timestamp, accel_x, accel_y, accel_z, gyro_x, gyro_y, gyro_z
1548455082847,-0.208862,-0.964111,0.252014,0.365854,0.000000,0.000000
1548455082854,-0.208130,-0.973145,0.251648,-0.121951,0.121951,0.000000
1548455082869,-0.205994,-0.968811,0.251343,-0.060976,0.121951,0.000000
1548455082877,-0.206543,-0.972839,0.252991,0.365854,0.000000,-0.060976
1548455082884,-0.209045,-0.969971,0.250793,0.670732,0.121951,-0.060976
1548455082899,-0.212769,-0.967346,0.250183,0.609756,0.182927,0.000000
1548455082907,-0.210999,-0.968323,0.249756,0.548781,0.243902,-0.182927
1548455082914,-0.210022,-0.967346,0.249207,0.731707,0.304878,-0.182927
1548455082929,-0.211975,-0.969360,0.250549,0.792683,0.243902,-0.182927
1548455082944,-0.211853,-0.974731,0.252869,0.853659,0.121951,-0.365854
1548455082945,-0.208618,-0.978394,0.252441,0.609756,0.060976,-0.609756
1548455082959,-0.206482,-0.977356,0.252380,0.426829,-0.060976,-0.426829
1548455082967,-0.208252,-0.978333,0.253296,0.121951,-0.060976,-0.365854
1548455082974,-0.209717,-0.981262,0.253967,-0.365854,-0.121951,-0.304878
1548455082989,-0.207764,-0.980286,0.252747,-0.426829,-0.060976,-0.060976
1548455082997,-0.210205,-0.977051,0.252502,-0.060976,-0.060976,0.487805
1548455083005,-0.214783,-0.976440,0.250244,0.182927,-0.243902,0.670732
1548455083019,-0.213745,-0.974121,0.246826,0.365854,-0.487805,0.731707
1548455083027,-0.210876,-0.972046,0.245605,0.304878,-0.304878,1.036585
1548455083034,-0.209473,-0.968933,0.249695,-0.182927,-0.121951,0.975610
1548455083049,-0.205750,-0.966858,0.249573,-0.853659,-0.243902,0.609756
1548455083057,-0.199219,-0.966309,0.249207,-1.097561,-0.243902,0.670732
1548455083064,-0.201538,-0.966919,0.250610,-0.792683,-0.243902,0.609756
1548455083079,-0.204773,-0.972290,0.252869,-0.243902,-0.426829,0.365854
1548455083087,-0.203247,-0.971680,0.250549,0.243902,-0.548781,0.243902
1548455083094,-0.209717,-0.973145,0.246277,0.365854,-1.097561,0.487805
1548455083109,-0.213318,-0.974426,0.249084,-0.060976,-1.280488,0.243902
1548455083117,-0.209106,-0.973328,0.253784,-0.609756,-0.853659,0.182927
1548455083124,-0.205872,-0.969116,0.252747,-0.609756,-0.853659,0.670732
1548455083139,-0.210083,-0.968994,0.252258,-0.121951,-0.914634,0.731707
1548455083147,-0.214111,-0.973877,0.253479,0.304878,-0.853659,0.487805
1548455083154,-0.213989,-0.972534,0.248718,0.426829,-0.670732,0.426829
1548455083169,-0.210938,-0.969116,0.247864,-0.121951,-0.548781,0.609756
1548455083177,-0.213135,-0.968567,0.249512,-0.731707,-0.487805,0.670732
1548455083184,-0.213501,-0.971497,0.254517,-0.609756,-0.487805,0.487805
1548455083199,-0.213074,-0.972839,0.254028,-0.060976,-0.487805,0.609756
1548455083207,-0.208801,-0.965942,0.249695,0.182927,-0.426829,0.609756
1548455083214,-0.212708,-0.966370,0.249695,-0.060976,-0.304878,0.487805
1548455083229,-0.215393,-0.971130,0.250366,-0.060976,-0.182927,0.182927
1548455083237,-0.208923,-0.967712,0.250366,0.182927,-0.121951,0.182927
1548455083244,-0.207031,-0.961487,0.247192,-0.060976,-0.060976,0.365854
1548455083259,-0.213562,-0.963562,0.247925,-0.365854,0.000000,0.182927
1548455083267,-0.216675,-0.971802,0.247986,0.060976,-0.243902,-0.121951
1548455083274,-0.209229,-0.968262,0.246277,0.731707,-0.365854,0.000000
1548455083289,-0.210693,-0.963745,0.245544,0.426829,-0.182927,0.365854
1548455083297,-0.213013,-0.967590,0.246216,-0.304878,-0.426829,-0.060976
1548455083306,-0.206116,-0.966492,0.247009,-0.060976,-0.853659,-0.182927
1548455083319,-0.200562,-0.968323,0.247681,0.609756,-0.792683,0.243902
1548455083327,-0.206238,-0.976196,0.250488,0.731707,-0.792683,0.121951
1548455083334,-0.207947,-0.973999,0.248840,0.426829,-0.975610,-0.304878
1548455083357,-0.210083,-0.971497,0.244751,0.609756,-0.975610,0.000000
1548455083357,-0.213745,-0.974915,0.247864,0.853659,-0.975610,0.182927
1548455083364,-0.214539,-0.976257,0.252197,0.731707,-0.975610,-0.060976
1548455083379,-0.210510,-0.971558,0.250183,0.365854,-0.853659,0.121951
1548455083387,-0.207642,-0.970154,0.247498,0.182927,-0.853659,0.426829
1548455083395,-0.209534,-0.968872,0.247559,0.060976,-0.914634,0.548781
1548455083410,-0.207458,-0.973145,0.249756,-0.304878,-0.731707,0.487805
1548455083417,-0.205078,-0.968933,0.247131,-0.487805,-0.853659,0.609756
1548455083424,-0.208496,-0.966980,0.249146,-0.243902,-1.158537,0.914634
1548455083439,-0.210632,-0.969177,0.251953,0.365854,-1.280488,0.853659
1548455083447,-0.206360,-0.970947,0.250183,0.853659,-1.158537,0.975610
1548455083454,-0.206238,-0.970886,0.246765,0.853659,-1.158537,1.036585
1548455083469,-0.205078,-0.970032,0.247253,0.670732,-1.158537,1.036585
1548455083477,-0.210999,-0.969849,0.247620,0.182927,-1.097561,0.914634
1548455083484,-0.212708,-0.965759,0.247620,-0.304878,-1.097561,0.792683
1548455083499,-0.212463,-0.964233,0.248169,-0.426829,-0.914634,0.731707
1548455083507,-0.214722,-0.966675,0.247314,0.060976,-0.792683,0.670732
1548455083514,-0.213379,-0.967773,0.254578,0.548781,-0.914634,0.548781
1548455083529,-0.211060,-0.970642,0.254700,0.731707,-0.975610,0.487805
1548455083537,-0.207825,-0.972717,0.249573,0.792683,-0.792683,0.426829
1548455083544,-0.209106,-0.971863,0.246826,0.792683,-0.792683,0.426829
1548455083560,-0.214172,-0.969910,0.247375,0.792683,-0.853659,0.426829
1548455083567,-0.213928,-0.971436,0.250122,0.670732,-0.731707,0.487805
1548455083574,-0.211060,-0.971375,0.250732,0.548781,-0.731707,0.487805
1548455083589,-0.208740,-0.967285,0.252930,0.487805,-0.731707,0.487805
1548455083597,-0.212830,-0.967346,0.251587,0.365854,-0.853659,0.365854
1548455083604,-0.214600,-0.964539,0.251099,0.487805,-1.158537,0.121951
1548455083619,-0.210022,-0.962952,0.247375,0.670732,-0.853659,0.000000
1548455083627,-0.211182,-0.968323,0.251465,1.036585,-1.036585,0.060976
1548455083634,-0.207458,-0.974060,0.252441,1.524390,-1.341463,0.060976
1548455083649,-0.205994,-0.967957,0.249878,1.097561,-1.036585,0.121951
1548455083657,-0.205933,-0.969055,0.246460,0.426829,-1.097561,0.304878
1548455083664,-0.209351,-0.975464,0.249817,0.060976,-0.853659,0.121951
1548455083679,-0.211426,-0.974854,0.251404,0.182927,-0.731707,0.000000
1548455083687,-0.210510,-0.972046,0.252625,0.365854,-0.853659,0.426829
1548455083694,-0.213928,-0.972717,0.255310,0.609756,-0.731707,0.487805
1548455083709,-0.213684,-0.976013,0.251404,0.853659,-0.792683,0.487805
1548455083717,-0.214539,-0.977905,0.252869,0.975610,-0.914634,0.731707
1548455083724,-0.212891,-0.975464,0.253540,1.097561,-0.975610,1.036585
1548455083739,-0.212097,-0.972473,0.250427,1.158537,-0.975610,1.402439
1548455083747,-0.213196,-0.971008,0.252441,0.975610,-1.036585,1.341463
1548455083754,-0.217712,-0.967957,0.253357,0.792683,-0.670732,1.402439
1548455083769,-0.214478,-0.966797,0.253601,0.792683,-0.426829,1.585366
1548455083777,-0.210083,-0.968262,0.253540,0.731707,-0.365854,1.463415
1548455083784,-0.211060,-0.966064,0.255554,0.365854,-0.182927,1.341463
1548455083799,-0.210327,-0.970032,0.259827,-0.060976,-0.182927,0.975610
1548455083807,-0.211121,-0.977051,0.258972,0.365854,-0.060976,0.975610
1548455083814,-0.209106,-0.976074,0.260071,0.914634,-0.060976,1.097561
1548455083829,-0.211365,-0.976685,0.254333,0.914634,0.000000,1.280488
1548455083837,-0.213928,-0.980103,0.250854,0.487805,0.182927,1.219512
1548455083844,-0.217957,-0.980164,0.253174,-0.121951,0.243902,1.097561
1548455083859,-0.214722,-0.979675,0.253174,-0.426829,0.365854,1.158537
1548455083867,-0.211060,-0.975647,0.253540,-0.487805,0.243902,1.341463
1548455083874,-0.205688,-0.981567,0.248779,-0.853659,0.365854,1.402439
1548455083890,-0.202026,-0.981384,0.247803,-0.731707,0.304878,1.402439
1548455083897,-0.207458,-0.978088,0.251709,-0.182927,0.182927,1.890244
1548455083904,-0.210571,-0.980591,0.246582,-0.365854,-0.121951,1.951220
1548455083919,-0.209473,-0.976013,0.243408,-0.792683,-0.243902,1.890244
1548455083927,-0.214417,-0.970337,0.240967,-1.036585,0.182927,2.134146
1548455083934,-0.219727,-0.970032,0.242004,-1.158537,0.060976,2.134146
1548455083949,-0.220154,-0.963928,0.245300,-1.463415,-0.060976,1.890244
1548455083957,-0.219849,-0.961182,0.244934,-1.768293,-0.243902,2.012195
1548455083964,-0.218872,-0.956726,0.244690,-1.951220,-0.609756,1.768293
1548455083979,-0.220703,-0.950195,0.243652,-2.134146,-0.792683,1.463415
1548455083987,-0.225525,-0.949707,0.241394,-1.829268,-1.158537,1.341463
1548455083994,-0.230347,-0.952942,0.240784,-1.280488,-1.707317,0.853659
1548455084009,-0.231689,-0.953125,0.239990,-1.097561,-1.524390,0.548781
1548455084017,-0.224915,-0.957886,0.247009,-1.158537,-1.707317,0.304878
1548455084024,-0.221924,-0.961182,0.249390,-1.036585,-1.768293,-0.060976
1548455084039,-0.220947,-0.965271,0.248901,-0.670732,-1.829268,-0.243902
1548455084047,-0.218323,-0.968750,0.247314,-0.243902,-1.890244,-0.426829
1548455084054,-0.217957,-0.974976,0.247314,0.121951,-1.829268,-0.365854
1548455084069,-0.219788,-0.982300,0.247192,0.304878,-1.768293,-0.182927
1548455084077,-0.219666,-0.981934,0.241516,0.182927,-1.768293,0.121951
1548455084084,-0.220825,-0.984436,0.241211,0.121951,-2.073171,0.670732
1548455084099,-0.221130,-0.983643,0.239685,0.121951,-1.890244,1.219512
1548455084107,-0.216614,-0.979797,0.237793,0.121951,-1.463415,1.707317
1548455084114,-0.210510,-0.985291,0.240540,0.914634,-1.707317,2.378049
1548455084129,-0.211670,-0.990906,0.238953,2.743902,-1.707317,3.475610
1548455084137,-0.214294,-0.985596,0.235474,2.500000,-1.524390,3.658537
1548455084144,-0.212280,-0.976807,0.235779,0.426829,-1.585366,3.597561
1548455084159,-0.206177,-0.984741,0.236206,0.670732,-1.768293,4.146341
1548455084167,-0.209290,-1.001221,0.240295,3.719512,-1.951220,4.939024
1548455084174,-0.216003,-1.007568,0.238403,5.304878,-2.012195,5.000000
1548455084189,-0.211243,-1.002136,0.240906,1.219512,-1.768293,4.939024
1548455084197,-0.201050,-0.993652,0.244873,-2.804878,-1.707317,5.731708
1548455084204,-0.204895,-1.002136,0.247253,-1.036585,-2.012195,6.768293
1548455084219,-0.219177,-1.014465,0.248413,2.195122,-2.560976,7.743903
1548455084227,-0.233948,-1.016479,0.251831,3.170732,-2.743902,8.536586
1548455084234,-0.239197,-1.013184,0.249512,2.073171,-2.621951,9.573171
1548455084249,-0.241882,-1.013245,0.246338,1.097561,-2.439024,10.853659
1548455084257,-0.246460,-1.015564,0.252258,1.341463,-2.256098,12.134147
1548455084264,-0.243103,-1.019531,0.258362,1.585366,-2.134146,13.414635
1548455084279,-0.243958,-1.021362,0.256348,1.524390,-2.012195,15.000000
1548455084287,-0.246338,-1.019226,0.259094,0.975610,-2.073171,16.463415
1548455084294,-0.244263,-1.017456,0.264771,0.670732,-1.768293,17.926830
1548455084309,-0.247253,-1.018616,0.268311,0.914634,-1.402439,19.573172
1548455084317,-0.252380,-1.021973,0.265564,1.768293,-1.341463,21.036587
1548455084324,-0.261658,-1.021851,0.266113,2.560976,-1.158537,22.743902
1548455084339,-0.270264,-1.021057,0.263550,2.926829,-0.548781,24.390244
1548455084347,-0.273499,-1.020447,0.258545,2.439024,0.000000,25.792683
1548455084354,-0.274597,-1.011475,0.253540,1.829268,0.426829,27.317074
1548455084369,-0.276184,-1.014648,0.258118,2.073171,0.670732,28.963415
1548455084377,-0.275513,-1.011780,0.262939,2.682927,0.609756,30.426830
1548455084384,-0.276672,-0.995178,0.258362,3.048780,0.609756,32.073170
1548455084399,-0.285461,-0.982239,0.257324,2.926829,0.792683,33.597561
1548455084407,-0.297180,-0.979614,0.256775,2.743902,0.731707,34.268295
1548455084414,-0.297729,-0.975159,0.258057,2.804878,0.487805,34.634148
1548455084429,-0.296875,-0.971313,0.259583,2.317073,0.731707,35.304878
1548455084437,-0.297241,-0.962219,0.262573,1.585366,0.670732,35.975609
1548455084444,-0.296814,-0.952820,0.261230,1.280488,0.975610,36.280487
1548455084459,-0.307861,-0.944336,0.261230,1.707317,1.463415,36.341465
1548455084467,-0.320862,-0.946289,0.258667,2.621951,1.585366,36.585365
1548455084482,-0.327942,-0.943970,0.259277,3.292683,1.951220,36.646343
1548455084489,-0.339417,-0.938721,0.259277,3.109756,2.317073,36.890244
1548455084497,-0.347534,-0.939026,0.260376,2.256098,2.560976,37.012196
1548455084504,-0.349854,-0.926392,0.268738,1.341463,2.743902,36.890244
1548455084519,-0.352356,-0.921875,0.268433,1.219512,3.048780,37.317074
1548455084527,-0.357788,-0.914612,0.264648,1.707317,3.292683,37.256100
1548455084534,-0.370544,-0.907166,0.264893,2.926829,3.719512,36.951221
1548455084549,-0.380554,-0.916931,0.269287,3.719512,4.085366,36.768295
1548455084557,-0.378906,-0.913818,0.264771,3.658537,4.268293,36.341465
1548455084564,-0.378357,-0.907898,0.262085,2.804878,4.634146,36.463417
1548455084580,-0.382690,-0.911072,0.260925,1.524390,4.878049,36.219513
1548455084587,-0.384521,-0.904602,0.251587,1.219512,5.060976,35.731709
1548455084594,-0.398682,-0.898621,0.254456,2.012195,5.121951,36.097561
1548455084609,-0.413940,-0.906189,0.261841,2.926829,5.121951,36.097561
1548455084617,-0.420410,-0.903381,0.254333,3.536585,5.182927,35.670734
1548455084625,-0.422485,-0.886475,0.244385,3.292683,5.182927,36.097561
1548455084640,-0.434753,-0.888123,0.247498,0.731707,5.365854,35.914635
1548455084647,-0.439819,-0.882385,0.245056,-1.768293,5.487805,34.146343
1548455084655,-0.441650,-0.876892,0.238037,-1.951220,5.182927,34.085365
1548455084669,-0.437805,-0.888062,0.244751,-0.243902,4.390244,34.512196
1548455084677,-0.435547,-0.883240,0.238647,1.036585,3.963415,34.085365
1548455084684,-0.449524,-0.871216,0.250183,1.585366,3.597561,33.902439
1548455084699,-0.460999,-0.859497,0.250183,1.280488,3.414634,33.353661
1548455084707,-0.465210,-0.842773,0.237976,0.426829,3.841464,32.073170
1548455084714,-0.466187,-0.847839,0.232849,-0.853659,3.963415,31.097561
1548455084729,-0.461853,-0.862305,0.229614,-2.439024,3.780488,29.756098
1548455084737,-0.460327,-0.857178,0.231262,-3.719512,3.292683,28.780489
1548455084745,-0.464722,-0.841309,0.237610,-3.780488,2.621951,28.658537
1548455084759,-0.474487,-0.836182,0.236206,-2.134146,2.317073,28.475611
1548455084767,-0.485229,-0.849121,0.251892,0.000000,1.890244,27.743902
1548455084774,-0.494568,-0.856812,0.261169,1.463415,1.707317,26.829269
1548455084789,-0.503967,-0.866516,0.269104,1.585366,1.646341,26.463415
1548455084797,-0.510864,-0.860779,0.267212,0.487805,2.073171,26.402439
1548455084804,-0.510010,-0.845520,0.259888,-0.548781,2.621951,26.219513
1548455084819,-0.517273,-0.847168,0.264282,-1.280488,3.231707,26.219513
1548455084827,-0.526428,-0.850647,0.258728,-1.585366,3.658537,25.731709
1548455084834,-0.527527,-0.835571,0.255310,-2.195122,3.963415,25.426830
1548455084849,-0.527161,-0.826904,0.252991,-2.682927,4.451220,25.548780
1548455084857,-0.527222,-0.845642,0.260925,-2.317073,4.756098,24.939026
1548455084864,-0.527832,-0.861145,0.264160,-0.487805,5.243903,24.329269
1548455084879,-0.535645,-0.842407,0.263245,-0.121951,5.731708,24.695122
1548455084887,-0.545471,-0.846558,0.272034,-2.926829,6.463415,24.695122
1548455084894,-0.551025,-0.835938,0.271301,-5.000000,7.439024,23.536587
1548455084909,-0.553528,-0.820923,0.267761,-4.085366,8.170732,23.719513
1548455084917,-0.557129,-0.814819,0.256714,-1.707317,9.085366,24.146341
1548455084924,-0.562073,-0.805786,0.247498,0.365854,9.512196,23.597561
1548455084939,-0.567566,-0.801086,0.244507,0.731707,9.756098,23.048780
1548455084947,-0.569336,-0.801575,0.246155,-0.487805,10.243902,21.951220
1548455084954,-0.564392,-0.811401,0.241028,-1.158537,10.792684,20.731709
1548455084969,-0.559692,-0.798889,0.227661,-0.670732,11.097561,19.939024
1548455084977,-0.565918,-0.785156,0.221069,0.243902,11.341464,19.634148
1548455084992,-0.575439,-0.786377,0.219604,0.548781,11.280488,18.902439
1548455084999,-0.577271,-0.780273,0.221069,0.365854,11.036586,17.378050
1548455085007,-0.577820,-0.767273,0.215576,0.060976,10.914635,16.646341
1548455085014,-0.576782,-0.750427,0.200012,-0.182927,10.670732,15.731708
1548455085029,-0.577087,-0.756226,0.197144,-0.609756,10.121951,14.024390
1548455085037,-0.573853,-0.779114,0.204895,-1.341463,9.451220,11.951220
1548455085044,-0.565247,-0.774597,0.194031,-2.743902,8.719512,10.121951
1548455085059,-0.567871,-0.760437,0.187378,-4.573171,8.109756,9.207317
1548455085067,-0.582397,-0.764404,0.185608,-7.012195,7.378049,7.743903
1548455085074,-0.589294,-0.761047,0.184204,-8.841464,6.585366,5.548780
1548455085089,-0.592773,-0.756042,0.182739,-9.085366,5.853659,4.390244
1548455085097,-0.593933,-0.758118,0.182007,-7.743903,4.878049,3.353659
1548455085104,-0.592102,-0.768677,0.183777,-5.243903,4.329268,1.646341
1548455085119,-0.589478,-0.775085,0.184692,-2.134146,3.902439,0.000000
1548455085127,-0.591675,-0.773071,0.182617,0.548781,2.987805,-1.036585
1548455085134,-0.589050,-0.793701,0.189697,1.890244,2.195122,-2.012195
1548455085149,-0.588989,-0.812866,0.195679,2.743902,1.524390,-3.292683
1548455085157,-0.585938,-0.810059,0.190857,3.353659,0.975610,-3.658537
1548455085164,-0.588745,-0.808533,0.189697,3.353659,0.731707,-3.475610
1548455085179,-0.596008,-0.822937,0.196228,2.378049,0.487805,-4.024390
1548455085187,-0.597290,-0.827942,0.201721,2.134146,0.182927,-4.512195
1548455085194,-0.594421,-0.829529,0.205383,2.621951,0.060976,-3.902439
1548455085209,-0.597961,-0.831482,0.211670,2.439024,-0.121951,-3.536585
1548455085217,-0.599487,-0.838135,0.212341,1.707317,-0.060976,-3.780488
1548455085224,-0.600525,-0.834839,0.209167,1.158537,0.243902,-3.658537
1548455085239,-0.602417,-0.832703,0.205627,1.280488,0.487805,-3.048780
1548455085247,-0.600037,-0.839722,0.209167,1.280488,0.426829,-2.682927
1548455085254,-0.592407,-0.839172,0.213013,1.158537,0.487805,-2.621951
1548455085270,-0.585022,-0.823547,0.208801,1.280488,0.487805,-1.951220
1548455085277,-0.584229,-0.824341,0.204224,1.280488,0.548781,-1.402439
1548455085284,-0.586243,-0.826904,0.209595,0.975610,0.548781,-2.012195
1548455085299,-0.586792,-0.826172,0.208313,0.975610,0.548781,-2.256098
1548455085307,-0.585266,-0.825806,0.206238,0.975610,0.609756,-1.829268
1548455085314,-0.586609,-0.826294,0.209045,1.341463,0.670732,-1.768293
1548455085329,-0.589600,-0.823547,0.205139,1.158537,0.548781,-1.707317
1548455085337,-0.588623,-0.815552,0.198975,0.487805,0.487805,-1.524390
1548455085344,-0.590881,-0.817627,0.202087,0.426829,0.487805,-1.463415
1548455085359,-0.584900,-0.819824,0.200867,0.487805,0.121951,-1.524390
1548455085367,-0.580322,-0.813354,0.196899,0.914634,-0.304878,-1.768293
1548455085374,-0.576599,-0.815918,0.196533,1.158537,-0.548781,-2.012195
1548455085397,-0.576904,-0.818420,0.195068,1.036585,-0.853659,-2.621951
1548455085397,-0.583435,-0.821106,0.203552,0.670732,-1.097561,-3.109756
1548455085404,-0.587097,-0.828979,0.208740,0.060976,-1.280488,-3.170732
1548455085419,-0.588501,-0.823547,0.203674,-0.426829,-1.219512,-3.292683
1548455085427,-0.588074,-0.832153,0.202759,-1.097561,-1.097561,-3.170732
1548455085434,-0.584961,-0.829895,0.201111,-1.524390,-1.402439,-3.414634
1548455085449,-0.583435,-0.830444,0.197754,-1.707317,-1.402439,-3.231707
1548455085457,-0.584167,-0.835388,0.203857,-1.890244,-1.402439,-2.987805
1548455085464,-0.583923,-0.825562,0.199585,-2.256098,-1.768293,-2.865854
1548455085479,-0.584290,-0.815430,0.202271,-2.926829,-1.829268,-2.743902
1548455085487,-0.582886,-0.820190,0.201843,-3.170732,-1.890244,-3.048780
1548455085494,-0.579407,-0.823120,0.202515,-2.743902,-2.134146,-3.414634
1548455085509,-0.574463,-0.816162,0.194397,-1.890244,-2.195122,-3.780488
1548455085517,-0.573486,-0.816223,0.195251,-1.341463,-2.195122,-3.902439
1548455085524,-0.573120,-0.822632,0.200378,-0.914634,-2.682927,-4.695122
1548455085539,-0.569519,-0.821594,0.194885,-0.426829,-3.048780,-5.182927
1548455085547,-0.570190,-0.817200,0.186096,-0.487805,-3.231707,-5.304878
1548455085554,-0.575745,-0.817383,0.180969,-1.280488,-3.597561,-5.792683
1548455085569,-0.577026,-0.811340,0.182251,-2.317073,-4.146341,-6.463415
1548455085577,-0.571594,-0.815002,0.191650,-3.292683,-4.451220,-7.012195
1548455085584,-0.564270,-0.824707,0.194580,-3.902439,-4.695122,-7.682927
1548455085599,-0.558350,-0.814636,0.195557,-3.536585,-5.304878,-8.170732
1548455085607,-0.555237,-0.819153,0.194214,-2.317073,-5.670732,-8.292683
1548455085614,-0.557617,-0.831665,0.193481,-1.219512,-6.097561,-9.146341
1548455085629,-0.561096,-0.836609,0.199890,-0.792683,-6.585366,-10.060976
1548455085637,-0.562378,-0.834412,0.198914,-1.402439,-6.890244,-10.121951
1548455085644,-0.563110,-0.834656,0.195496,-2.317073,-7.195122,-10.426829
1548455085659,-0.562439,-0.844238,0.200195,-2.987805,-7.317073,-10.975610
1548455085667,-0.560486,-0.839600,0.201355,-3.109756,-7.439024,-11.219512
1548455085674,-0.558594,-0.832825,0.201477,-2.987805,-7.500000,-10.914635
1548455085689,-0.556030,-0.841431,0.207153,-3.353659,-7.621952,-11.036586
1548455085697,-0.550171,-0.841431,0.214172,-3.597561,-7.500000,-11.829268
1548455085704,-0.545715,-0.839050,0.215393,-3.536585,-7.317073,-11.646341
1548455085719,-0.540955,-0.837402,0.211914,-3.414634,-7.317073,-11.768293
1548455085727,-0.540161,-0.843872,0.212708,-2.987805,-7.073171,-12.195122
1548455085734,-0.540405,-0.846802,0.212097,-2.621951,-7.073171,-12.378049
1548455085749,-0.540283,-0.844788,0.213989,-2.317073,-7.073171,-12.439025
1548455085757,-0.540222,-0.852661,0.217773,-2.865854,-7.073171,-12.621951
1548455085764,-0.535583,-0.859985,0.212708,-3.414634,-7.012195,-13.414635
1548455085779,-0.532898,-0.847473,0.207031,-3.475610,-7.012195,-13.414635
1548455085787,-0.533447,-0.847656,0.204346,-5.182927,-7.073171,-13.170732
1548455085794,-0.531860,-0.851868,0.204529,-7.743903,-7.012195,-14.329268
1548455085809,-0.526917,-0.842712,0.203247,-8.475610,-6.890244,-14.756098
1548455085817,-0.523438,-0.846252,0.210632,-8.597561,-6.890244,-14.390244
1548455085824,-0.517334,-0.862915,0.215088,-8.658537,-6.951220,-15.365854
1548455085839,-0.509399,-0.850403,0.205750,-8.658537,-6.890244,-16.280489
1548455085847,-0.508850,-0.844604,0.205505,-7.926829,-6.768293,-16.158537
1548455085854,-0.511292,-0.855591,0.196289,-6.158537,-6.646342,-16.829269
1548455085869,-0.512756,-0.858276,0.198547,-3.536585,-6.768293,-17.500000
1548455085877,-0.508789,-0.868774,0.199707,-1.768293,-6.768293,-17.195122
1548455085884,-0.502808,-0.863342,0.191223,-1.646341,-6.951220,-17.378050
1548455085899,-0.497131,-0.852051,0.187195,-1.890244,-7.195122,-17.743902
1548455085907,-0.497253,-0.842224,0.181519,-2.012195,-7.378049,-17.865854
1548455085914,-0.497192,-0.836853,0.189026,-2.134146,-7.926829,-18.658537
1548455085929,-0.487000,-0.841736,0.189453,-2.560976,-8.475610,-19.878050
1548455085944,-0.478271,-0.859314,0.201294,-3.658537,-8.780488,-21.097561
1548455085945,-0.466370,-0.883179,0.205505,-5.487805,-9.085366,-22.439024
1548455085959,-0.453369,-0.872620,0.193481,-6.951220,-9.146341,-23.597561
1548455085967,-0.455200,-0.865295,0.186462,-7.621952,-9.512196,-23.536587
1548455085974,-0.466492,-0.863098,0.184570,-8.109756,-10.121951,-24.268293
1548455085989,-0.475159,-0.859314,0.189209,-8.902439,-10.487805,-25.548780
1548455085997,-0.471558,-0.852661,0.183960,-9.512196,-10.731708,-25.914635
1548455086004,-0.465759,-0.858765,0.187195,-8.597561,-10.975610,-26.585367
1548455086019,-0.452454,-0.882935,0.196350,-5.182927,-11.219512,-27.804878
1548455086027,-0.434692,-0.881104,0.193176,-0.792683,-11.585366,-28.475611
1548455086034,-0.426270,-0.874023,0.200012,1.951220,-11.768293,-28.414635
1548455086049,-0.419067,-0.897644,0.210083,1.707317,-11.951220,-29.329269
1548455086057,-0.408752,-0.916260,0.211060,0.609756,-12.073171,-30.853659
1548455086064,-0.406921,-0.916748,0.216553,-0.121951,-12.195122,-30.975611
1548455086079,-0.412292,-0.921875,0.220276,-1.097561,-12.195122,-30.670732
1548455086087,-0.418274,-0.915222,0.218201,-1.951220,-11.951220,-31.219513
1548455086094,-0.418762,-0.900024,0.215393,-0.792683,-11.646341,-30.914635
1548455086110,-0.419189,-0.910278,0.219666,1.036585,-11.280488,-30.121952
1548455086117,-0.411682,-0.933960,0.229187,2.560976,-10.975610,-30.609756
1548455086124,-0.394653,-0.936951,0.228699,3.292683,-10.548780,-30.792685
1548455086139,-0.382446,-0.930725,0.220093,2.987805,-10.060976,-30.000000
1548455086147,-0.377502,-0.929871,0.216614,2.134146,-9.695122,-29.817074
1548455086154,-0.375244,-0.927673,0.215698,1.280488,-9.634147,-30.487806
1548455086169,-0.373413,-0.925232,0.224304,0.365854,-9.512196,-30.365854
1548455086177,-0.367371,-0.929016,0.231506,-1.097561,-9.268292,-30.243902
1548455086184,-0.359131,-0.931458,0.235352,-2.804878,-9.207317,-30.670732
1548455086199,-0.350342,-0.940125,0.230713,-3.475610,-8.780488,-30.914635
1548455086207,-0.340698,-0.944397,0.232788,-1.646341,-8.414635,-31.036587
1548455086214,-0.338745,-0.966187,0.234375,1.951220,-8.048780,-30.792685
1548455086229,-0.335938,-0.966309,0.229309,5.243903,-7.926829,-30.487806
1548455086237,-0.338074,-0.972107,0.234253,7.926829,-7.500000,-29.695122
1548455086244,-0.339172,-0.984009,0.235901,9.939025,-7.256098,-28.719513
1548455086259,-0.340027,-0.979431,0.235535,10.304878,-7.073171,-27.865854
1548455086267,-0.337830,-0.972351,0.235352,8.353659,-6.585366,-26.829269
1548455086274,-0.332642,-0.971497,0.236389,4.390244,-6.097561,-26.341463
1548455086289,-0.319275,-0.985046,0.241516,-0.182927,-5.670732,-26.097561
1548455086297,-0.303406,-0.988159,0.242615,-3.536585,-5.000000,-26.219513
1548455086304,-0.293030,-0.982056,0.239685,-4.268293,-4.207317,-25.609756
1548455086319,-0.295715,-0.976929,0.236633,-3.109756,-3.658537,-24.756098
1548455086327,-0.299011,-0.974243,0.235291,-0.548781,-3.170732,-24.268293
1548455086334,-0.303101,-0.965942,0.228333,2.073171,-2.926829,-23.475611
1548455086349,-0.301758,-0.958435,0.228638,3.414634,-2.865854,-22.682928
1548455086357,-0.295532,-0.957397,0.223511,3.292683,-2.804878,-22.500000
1548455086364,-0.286865,-0.966919,0.234009,2.804878,-2.804878,-22.500000
1548455086379,-0.274414,-0.970947,0.234619,2.560976,-2.804878,-22.560976
1548455086387,-0.264221,-0.969116,0.231506,2.317073,-2.865854,-22.256098
1548455086394,-0.255554,-0.974731,0.229492,1.768293,-2.500000,-22.073172
1548455086410,-0.254272,-0.966736,0.229004,1.707317,-2.317073,-22.195122
1548455086417,-0.255798,-0.960388,0.224487,1.829268,-2.317073,-21.890244
1548455086424,-0.261658,-0.962219,0.230469,2.073171,-2.256098,-21.829269
1548455086439,-0.260254,-0.982483,0.235229,2.378049,-2.073171,-21.829269
1548455086447,-0.251099,-0.998108,0.236572,2.317073,-2.134146,-21.646341
1548455086454,-0.241028,-0.999512,0.236511,2.439024,-2.134146,-20.975611
1548455086469,-0.238647,-0.998962,0.235352,2.317073,-2.195122,-20.000000
1548455086477,-0.241211,-0.995361,0.233215,2.012195,-2.317073,-19.695122
1548455086484,-0.242432,-0.991577,0.232666,0.731707,-2.378049,-19.329269
1548455086499,-0.242615,-0.988464,0.237061,-0.670732,-2.134146,-18.902439
1548455086507,-0.235962,-0.997498,0.240295,-1.463415,-1.951220,-18.536585
1548455086514,-0.229065,-1.000427,0.236389,-1.524390,-1.646341,-17.987804
1548455086530,-0.224976,-0.993774,0.230225,-0.792683,-1.463415,-17.378050
1548455086537,-0.220520,-0.995850,0.229248,-0.365854,-1.158537,-16.829269
1548455086544,-0.216980,-0.993774,0.232117,0.000000,-0.975610,-16.585365
1548455086559,-0.215698,-0.996277,0.233398,0.182927,-1.036585,-16.097561
1548455086567,-0.216125,-1.003235,0.233276,-0.304878,-0.914634,-15.487805
1548455086574,-0.216980,-0.997253,0.227661,-0.914634,-0.792683,-15.060976
1548455086589,-0.220581,-0.985168,0.222473,-1.463415,-0.609756,-14.268293
1548455086597,-0.220459,-0.987000,0.218140,-1.646341,-0.426829,-13.658537
1548455086604,-0.217224,-0.990967,0.221191,-1.585366,-0.548781,-13.536586
1548455086619,-0.208130,-0.986816,0.226440,-1.280488,-0.731707,-13.170732
1548455086627,-0.200989,-0.984131,0.227051,-1.097561,-0.853659,-12.621951
1548455086634,-0.193848,-0.988525,0.222107,-0.975610,-0.914634,-12.621951
1548455086649,-0.189636,-0.984558,0.216064,-0.548781,-1.036585,-12.682927
1548455086657,-0.189880,-0.983887,0.214478,-0.304878,-1.341463,-12.195122
1548455086664,-0.191345,-0.985474,0.214844,-0.609756,-1.524390,-12.073171
1548455086679,-0.190308,-0.989136,0.219910,-1.036585,-1.646341,-12.134147
1548455086687,-0.183594,-0.995911,0.222229,-1.280488,-1.890244,-12.012196
1548455086694,-0.177246,-0.992859,0.219421,-1.402439,-1.768293,-11.829268
1548455086709,-0.181274,-0.988037,0.220764,-1.158537,-1.890244,-11.402439
1548455086724,-0.186401,-0.994812,0.226318,-0.853659,-1.951220,-11.280488
1548455086725,-0.188477,-0.997620,0.227173,-0.487805,-2.012195,-11.280488
1548455086739,-0.186279,-0.991211,0.228516,-0.609756,-2.073171,-10.853659
1548455086747,-0.184937,-0.988708,0.227722,-0.914634,-2.012195,-10.182927
1548455086754,-0.178833,-0.994446,0.231812,-0.975610,-1.768293,-10.121951
1548455086769,-0.176331,-0.991577,0.230469,-0.609756,-1.707317,-9.756098
1548455086777,-0.173401,-0.986572,0.228149,-0.426829,-1.646341,-9.268292
1548455086784,-0.167114,-0.990662,0.226868,-0.548781,-1.646341,-9.207317
1548455086799,-0.163513,-0.996948,0.228882,-0.487805,-1.646341,-9.329268
1548455086807,-0.161560,-1.000549,0.228577,-0.548781,-1.768293,-8.780488
1548455086815,-0.164307,-1.000671,0.228821,-0.975610,-1.768293,-8.414635
1548455086829,-0.167786,-1.000000,0.232239,-1.280488,-1.585366,-8.231708
1548455086837,-0.171692,-0.997986,0.230530,-1.158537,-1.524390,-7.621952
1548455086844,-0.172241,-0.997742,0.227600,-0.548781,-1.219512,-7.073171
1548455086859,-0.173035,-0.999329,0.224060,0.426829,-0.975610,-6.646342
1548455086867,-0.169006,-0.999512,0.222839,0.792683,-0.975610,-6.036585
1548455086874,-0.163147,-0.992493,0.223755,0.426829,-1.036585,-5.548780
1548455086889,-0.159729,-0.993530,0.225159,-0.243902,-0.914634,-5.365854
1548455086897,-0.156006,-0.993835,0.228760,-0.731707,-0.975610,-5.487805
1548455086904,-0.150879,-0.990601,0.228027,-0.792683,-0.792683,-5.426829
1548455086919,-0.151123,-0.993347,0.228821,-0.487805,-0.548781,-5.243903
1548455086927,-0.148315,-0.995728,0.226196,-0.121951,-0.426829,-5.243903
1548455086934,-0.150635,-0.989990,0.219299,0.121951,-0.365854,-4.878049
1548455086949,-0.154419,-0.991943,0.221252,-0.243902,-0.426829,-4.451220
1548455086957,-0.152527,-0.992676,0.226562,-0.365854,-0.487805,-4.512195
1548455086964,-0.152771,-0.994385,0.228149,0.182927,-0.609756,-4.329268
1548455086979,-0.154968,-1.001099,0.229919,0.426829,-0.670732,-3.963415
1548455086987,-0.155701,-0.996704,0.224243,0.365854,-0.487805,-4.024390
1548455086994,-0.158997,-0.994873,0.222412,0.304878,-0.243902,-3.841464
1548455087009,-0.154846,-0.996887,0.225464,0.060976,0.000000,-3.536585
1548455087017,-0.150757,-0.995605,0.224060,-0.243902,0.121951,-3.292683
1548455087024,-0.144714,-0.993530,0.223999,-0.548781,0.182927,-3.170732
1548455087039,-0.142883,-0.990784,0.221741,-0.609756,0.243902,-2.987805
1548455087047,-0.144958,-0.989807,0.223328,-0.243902,0.121951,-2.926829
1548455087054,-0.147949,-0.989014,0.221558,0.182927,0.121951,-2.743902
1548455087069,-0.146301,-0.992676,0.223938,0.426829,0.000000,-2.378049
1548455087077,-0.149048,-0.992981,0.224731,0.670732,-0.060976,-2.195122
1548455087084,-0.149170,-0.987854,0.223694,0.365854,-0.182927,-1.951220
1548455087099,-0.143921,-0.993896,0.223145,-0.121951,-0.121951,-1.768293
1548455087107,-0.143433,-0.990051,0.223877,-0.243902,0.000000,-1.768293
1548455087114,-0.141846,-0.988647,0.221008,0.182927,0.182927,-1.585366
1548455087129,-0.143555,-0.993408,0.222046,0.426829,0.121951,-1.524390
1548455087137,-0.144287,-0.990967,0.224304,0.487805,0.000000,-1.768293
1548455087152,-0.145935,-0.991455,0.227722,0.365854,0.060976,-1.524390
1548455087159,-0.145813,-0.994995,0.227783,0.304878,0.121951,-1.341463
1548455087167,-0.147888,-0.994019,0.225647,0.792683,0.121951,-1.280488
1548455087174,-0.143433,-0.998291,0.225098,1.036585,0.000000,-1.097561
1548455087189,-0.140320,-0.999268,0.224365,0.853659,0.060976,-1.097561
1548455087197,-0.139282,-0.996521,0.225342,0.487805,0.060976,-0.853659
1548455087205,-0.140564,-0.993713,0.222778,-0.060976,0.060976,-0.609756
1548455087219,-0.146240,-0.991638,0.221802,-0.121951,0.121951,-0.487805
1548455087227,-0.147400,-1.000305,0.224060,0.365854,0.243902,-0.243902
1548455087235,-0.147888,-1.002563,0.221802,0.914634,0.182927,0.182927
1548455087249,-0.148865,-0.997131,0.222168,1.097561,0.243902,0.670732
1548455087257,-0.148132,-0.993103,0.223450,0.609756,0.304878,1.036585
1548455087264,-0.146179,-0.994751,0.222778,0.243902,0.365854,1.158537
1548455087279,-0.145447,-0.995728,0.219666,0.426829,0.426829,1.219512
1548455087287,-0.144104,-0.992737,0.217957,0.670732,0.365854,1.463415
1548455087294,-0.146729,-0.992859,0.217590,0.426829,0.304878,1.585366
1548455087309,-0.146667,-0.992554,0.217346,-0.060976,0.243902,1.524390
1548455087317,-0.143616,-0.993774,0.222290,-0.426829,0.243902,1.646341
1548455087324,-0.141235,-0.990234,0.222839,-0.914634,0.182927,1.768293
1548455087340,-0.141968,-0.983948,0.220093,-1.585366,0.243902,1.646341
1548455087347,-0.144714,-0.983765,0.217773,-1.768293,0.426829,1.707317
1548455087354,-0.148682,-0.988586,0.218811,-0.670732,0.487805,1.768293
1548455087369,-0.151611,-0.988770,0.220581,0.365854,0.365854,1.890244
1548455087377,-0.152466,-0.987915,0.222961,0.731707,0.121951,1.951220
1548455087384,-0.151306,-0.985962,0.222656,0.731707,0.182927,2.073171
1548455087399,-0.148865,-0.982788,0.220520,0.731707,0.121951,2.256098
1548455087407,-0.146301,-0.981079,0.219971,0.548781,0.182927,2.134146
1548455087414,-0.145325,-0.981567,0.222351,0.365854,0.243902,1.951220
1548455087429,-0.145996,-0.977905,0.223267,0.487805,0.060976,1.707317
1548455087437,-0.147400,-0.979614,0.225281,0.609756,0.060976,1.463415
1548455087444,-0.146301,-0.981506,0.224670,0.914634,0.121951,1.097561
1548455087459,-0.148804,-0.983826,0.225952,1.158537,0.182927,0.853659
1548455087467,-0.149109,-0.985291,0.225708,1.158537,0.243902,0.792683
1548455087474,-0.152710,-0.986938,0.226624,0.792683,0.426829,0.792683
1548455087489,-0.153503,-0.988953,0.226318,0.548781,0.548781,0.914634
1548455087497,-0.152588,-0.986084,0.227356,0.853659,0.731707,1.036585
1548455087504,-0.153931,-0.987000,0.227722,1.463415,0.792683,1.280488
1548455087519,-0.154541,-0.993835,0.226135,1.768293,0.853659,1.402439
1548455087527,-0.154419,-0.999634,0.223755,1.707317,0.975610,1.219512
1548455087534,-0.151733,-0.999268,0.223755,1.463415,0.975610,1.463415
1548455087549,-0.150818,-0.999268,0.226196,1.341463,1.036585,1.951220
1548455087557,-0.150635,-1.003052,0.230957,1.280488,1.036585,2.256098
1548455087564,-0.150574,-1.005493,0.227112,1.219512,1.097561,2.682927
1548455087579,-0.151917,-1.003113,0.221680,1.036585,1.158537,3.292683
1548455087587,-0.156616,-1.002686,0.225525,1.036585,1.280488,3.719512
1548455087594,-0.160339,-1.008484,0.226074,1.402439,1.524390,3.963415
1548455087609,-0.161926,-1.007019,0.220886,1.707317,1.463415,4.512195
1548455087617,-0.160583,-1.002747,0.220276,1.707317,1.280488,5.182927
1548455087624,-0.161926,-1.008789,0.219543,1.890244,1.463415,5.609756
1548455087639,-0.161438,-1.008057,0.219482,1.768293,1.463415,5.975610
1548455087647,-0.158508,-1.004578,0.219116,1.402439,1.524390,6.707317
1548455087654,-0.154541,-0.998474,0.220276,1.158537,1.524390,7.439024
1548455087669,-0.156982,-0.997070,0.219238,1.219512,1.402439,7.682927
1548455087677,-0.160828,-0.994934,0.221924,1.646341,1.341463,7.926829
1548455087684,-0.163696,-0.993103,0.221924,1.951220,1.280488,8.170732
1548455087699,-0.163940,-0.998596,0.222900,1.646341,1.341463,8.292683
1548455087707,-0.163757,-0.994812,0.221558,1.829268,1.341463,8.353659
1548455087714,-0.167297,-0.995605,0.222290,1.951220,1.280488,8.902439
1548455087729,-0.171997,-0.995300,0.224426,1.524390,1.280488,9.024390
1548455087737,-0.177185,-0.992310,0.227417,1.341463,1.219512,9.085366
1548455087744,-0.176331,-0.991455,0.228821,1.219512,1.280488,9.573171
1548455087759,-0.176636,-0.987244,0.224426,1.280488,1.402439,9.756098
1548455087767,-0.182739,-0.982544,0.225464,1.341463,1.341463,10.000000
1548455087774,-0.184509,-0.988342,0.224365,1.280488,1.402439,10.182927
1548455087789,-0.182190,-0.989990,0.225952,1.402439,1.158537,10.426829
1548455087797,-0.180359,-0.990601,0.230591,1.585366,1.280488,11.036586
1548455087804,-0.179810,-0.991638,0.231567,1.524390,1.280488,11.219512
1548455087819,-0.181580,-0.985168,0.231506,1.585366,1.341463,11.402439
1548455087827,-0.188477,-0.990845,0.230957,2.134146,1.646341,11.829268
1548455087834,-0.193298,-0.994629,0.231812,2.500000,1.646341,11.829268
1548455087849,-0.194702,-0.995483,0.232239,2.439024,1.646341,12.012196
1548455087857,-0.196289,-0.993225,0.232788,1.890244,1.585366,12.256098
1548455087864,-0.198486,-0.992432,0.228027,1.219512,1.768293,12.256098
1548455087879,-0.200562,-0.994019,0.231812,1.280488,1.707317,12.439025
1548455087887,-0.206970,-0.998535,0.232788,1.524390,1.951220,12.804878
1548455087894,-0.209045,-0.998413,0.232544,1.707317,1.951220,13.170732
1548455087909,-0.209900,-0.992554,0.232361,1.768293,2.134146,13.841464
1548455087917,-0.212708,-0.994568,0.230164,1.646341,2.378049,14.390244
1548455087924,-0.216064,-0.999573,0.228394,1.707317,2.560976,14.695123
1548455087939,-0.218567,-0.998779,0.225220,1.829268,2.682927,15.243903
1548455087947,-0.222534,-0.993347,0.226074,1.829268,2.621951,16.158537
1548455087962,-0.221863,-0.996277,0.225403,1.707317,2.560976,16.585365
1548455087969,-0.227234,-0.988525,0.229370,1.402439,2.560976,17.012196
1548455087977,-0.229736,-0.988342,0.227173,1.280488,2.500000,17.743902
1548455087984,-0.230103,-0.986633,0.227051,0.914634,2.560976,17.926830
1548455087999,-0.228455,-0.979004,0.221863,0.914634,2.560976,18.109756
1548455088007,-0.229431,-0.980530,0.220276,1.158537,2.621951,18.475611
1548455088014,-0.235596,-0.984131,0.217041,1.585366,2.500000,18.597561
1548455088029,-0.242615,-0.984436,0.214294,2.256098,2.073171,18.841463
1548455088037,-0.244873,-0.982605,0.214661,2.134146,1.707317,19.329269
1548455088044,-0.244751,-0.977112,0.219177,1.646341,1.524390,19.573172
1548455088059,-0.247925,-0.976746,0.221130,1.585366,1.219512,19.878050
1548455088067,-0.252563,-0.971985,0.215454,1.341463,0.914634,19.939024
1548455088074,-0.257385,-0.971313,0.211426,0.975610,0.670732,19.939024
1548455088089,-0.262573,-0.973083,0.213257,0.426829,0.487805,20.060976
1548455088097,-0.258362,-0.969910,0.212219,0.792683,0.182927,20.243902
1548455088104,-0.259827,-0.969543,0.212830,1.341463,-0.487805,20.853659
1548455088119,-0.266052,-0.968994,0.214417,1.585366,-0.975610,20.975611
1548455088127,-0.270142,-0.968384,0.216125,1.951220,-1.341463,21.097561
1548455088134,-0.273987,-0.968018,0.218872,2.195122,-1.646341,21.402439
1548455088149,-0.285339,-0.970337,0.219116,2.195122,-1.951220,21.463415
1548455088157,-0.290161,-0.968079,0.218750,1.707317,-2.134146,21.280489
1548455088164,-0.291443,-0.965942,0.217529,1.036585,-2.195122,21.463415
1548455088179,-0.291504,-0.966125,0.222473,0.609756,-2.560976,21.768293
1548455088187,-0.294922,-0.966797,0.227600,0.548781,-2.865854,22.195122
1548455088194,-0.297974,-0.966064,0.231873,0.914634,-2.926829,22.560976
1548455088209,-0.301697,-0.962708,0.230835,1.097561,-2.987805,22.804878
1548455088217,-0.307434,-0.959351,0.229065,1.097561,-2.926829,22.987806
1548455088224,-0.313721,-0.960449,0.233948,1.036585,-2.743902,23.048780
1548455088239,-0.320435,-0.958862,0.235901,0.731707,-2.743902,23.048780
1548455088247,-0.321228,-0.954285,0.232544,0.121951,-2.621951,23.414635
1548455088254,-0.326965,-0.947876,0.229004,-0.243902,-2.256098,23.780489
1548455088277,-0.332397,-0.944885,0.234619,-0.426829,-2.134146,23.963415
1548455088277,-0.334473,-0.945801,0.235474,-0.487805,-2.012195,23.780489
1548455088284,-0.333923,-0.944458,0.235596,-0.426829,-1.890244,23.963415
1548455088299,-0.329590,-0.950562,0.238342,-0.548781,-1.829268,24.146341
1548455088307,-0.328796,-0.942261,0.239868,-1.219512,-1.951220,23.841463
1548455088314,-0.332825,-0.940613,0.239075,-3.170732,-1.707317,23.902439
1548455088329,-0.341492,-0.937683,0.242615,-4.634146,-1.341463,23.597561
1548455088337,-0.354675,-0.934448,0.242065,-3.414634,-1.097561,23.353659
1548455088344,-0.364563,-0.934326,0.238831,-1.890244,-0.914634,23.841463
1548455088359,-0.369080,-0.932861,0.236938,-0.426829,-0.548781,23.780489
1548455088367,-0.372253,-0.929321,0.238464,1.158537,-0.426829,24.085367
1548455088374,-0.371216,-0.943054,0.243225,2.256098,-0.243902,24.451220
1548455088389,-0.366394,-0.949402,0.246399,2.682927,0.060976,24.268293
1548455088397,-0.370972,-0.944580,0.246216,2.865854,0.487805,24.817074
1548455088404,-0.383301,-0.945129,0.246155,2.073171,1.036585,25.182928
1548455088419,-0.390869,-0.939880,0.247314,0.914634,1.768293,24.878050
1548455088427,-0.395691,-0.940674,0.247192,0.365854,2.317073,25.304878
1548455088434,-0.399658,-0.938782,0.244263,0.609756,2.743902,25.853659
1548455088449,-0.405029,-0.934082,0.242737,1.402439,3.109756,26.646341
1548455088457,-0.407410,-0.934814,0.246704,1.951220,3.475610,27.317074
1548455088464,-0.408325,-0.926392,0.247742,2.500000,3.902439,27.682928
1548455088480,-0.412964,-0.923096,0.247620,2.987805,4.451220,28.414635
1548455088487,-0.415100,-0.936829,0.253479,3.109756,5.000000,28.414635
1548455088495,-0.415039,-0.942627,0.249390,2.865854,5.426829,28.292683
1548455088509,-0.419250,-0.928101,0.247620,2.560976,6.036585,29.268293
1548455088517,-0.432312,-0.917358,0.245300,2.439024,6.707317,30.304878
1548455088524,-0.443665,-0.915405,0.245911,2.804878,7.195122,30.487806
1548455088539,-0.450134,-0.912476,0.243774,3.475610,7.621952,31.036587
1548455088547,-0.449341,-0.922546,0.248413,3.475610,7.987805,31.829269
1548455088554,-0.453003,-0.922058,0.256897,2.317073,8.353659,31.951220
1548455088577,-0.447449,-0.906555,0.247559,0.426829,9.268292,31.951220
1548455088577,-0.453552,-0.880920,0.236938,-0.182927,10.060976,32.500000
1548455088585,-0.467407,-0.873108,0.230530,1.402439,10.548780,32.682926
1548455088599,-0.476807,-0.873108,0.234680,2.804878,10.487805,32.378048
1548455088607,-0.478638,-0.882385,0.249695,3.292683,10.853659,31.951220
1548455088614,-0.477905,-0.883362,0.249756,3.231707,11.219512,31.829269
1548455088629,-0.479492,-0.863281,0.240234,3.048780,11.890244,31.768293
1548455088644,-0.489868,-0.850098,0.234375,3.597561,12.500000,31.829269
1548455088645,-0.502869,-0.850281,0.233765,4.329268,12.926829,31.158537
1548455088659,-0.507935,-0.836121,0.228210,4.939024,13.231708,30.487806
1548455088667,-0.509216,-0.836304,0.229065,4.451220,13.780488,30.060976
1548455088674,-0.507629,-0.843933,0.224792,3.841464,14.207317,28.902439
1548455088689,-0.511230,-0.837830,0.219788,3.658537,14.329268,27.743902
1548455088697,-0.516846,-0.832336,0.222107,3.963415,14.207317,27.256098
1548455088704,-0.519958,-0.826538,0.212219,4.268293,14.207317,26.524391
1548455088719,-0.523621,-0.816162,0.200867,4.329268,14.146341,25.975611
1548455088727,-0.531494,-0.810425,0.196045,4.268293,13.902439,25.121952
1548455088734,-0.535950,-0.811646,0.200256,3.231707,13.414635,23.780489
1548455088749,-0.537964,-0.800171,0.199890,2.317073,12.987805,22.621952
1548455088757,-0.539978,-0.788452,0.189575,1.341463,12.621951,21.646341
1548455088764,-0.539307,-0.789490,0.178162,0.609756,12.256098,20.060976
1548455088779,-0.540771,-0.785156,0.172424,0.914634,11.707317,18.292683
1548455088787,-0.540100,-0.781189,0.175598,1.585366,10.914635,16.951220
1548455088794,-0.539062,-0.788208,0.176025,1.524390,10.060976,15.426829
1548455088809,-0.542908,-0.788208,0.171326,1.036585,9.024390,13.292684
1548455088817,-0.549744,-0.790344,0.172974,0.365854,8.048780,11.768293
1548455088824,-0.556519,-0.790283,0.172791,-0.304878,7.073171,10.304878
1548455088839,-0.559631,-0.778137,0.168518,-0.365854,6.219512,8.719512
1548455088847,-0.563965,-0.777893,0.169250,0.000000,5.548780,7.682927
1548455088854,-0.564270,-0.782349,0.171875,0.731707,4.634146,6.219512
1548455088869,-0.561584,-0.790955,0.175964,1.829268,3.658537,4.756098
1548455088877,-0.555115,-0.791931,0.175476,2.073171,2.743902,3.536585
1548455088884,-0.552795,-0.791199,0.175537,1.707317,1.951220,2.317073
1548455088899,-0.556702,-0.800049,0.176453,0.853659,1.097561,0.792683
1548455088907,-0.563110,-0.812988,0.186523,0.182927,0.304878,-1.158537
1548455088914,-0.565369,-0.818970,0.192566,-0.121951,-0.304878,-2.134146
1548455088929,-0.568359,-0.820557,0.198914,-0.365854,-0.670732,-2.439024
1548455088937,-0.573853,-0.829834,0.206238,-0.243902,-0.792683,-2.743902
1548455088944,-0.574951,-0.835388,0.207153,0.365854,-0.853659,-3.231707
1548455088959,-0.575623,-0.838257,0.208862,1.036585,-0.914634,-3.109756
1548455088967,-0.571960,-0.839600,0.207397,1.402439,-0.853659,-2.743902
1548455088974,-0.567200,-0.837219,0.202820,1.585366,-0.853659,-2.682927
1548455088989,-0.565857,-0.840820,0.205383,1.463415,-0.853659,-2.682927
1548455088997,-0.565430,-0.839905,0.204773,1.036585,-0.670732,-3.048780
1548455089004,-0.566467,-0.831482,0.204895,0.487805,-0.487805,-3.353659
1548455089019,-0.567871,-0.837036,0.209595,0.121951,-0.182927,-3.475610
1548455089027,-0.565796,-0.835327,0.205322,0.365854,0.304878,-3.963415
1548455089034,-0.564819,-0.828735,0.204285,0.548781,0.365854,-4.146341
1548455089049,-0.563232,-0.830566,0.204041,0.609756,0.548781,-4.329268
1548455089057,-0.561096,-0.835266,0.204529,0.609756,0.731707,-4.878049
1548455089064,-0.554260,-0.836853,0.198242,0.731707,0.609756,-5.000000
1548455089079,-0.552063,-0.835388,0.193542,0.975610,0.426829,-5.060976
1548455089087,-0.558289,-0.842468,0.193054,1.280488,0.121951,-5.426829
1548455089095,-0.562378,-0.847351,0.195679,1.097561,-0.182927,-5.853659
1548455089109,-0.560242,-0.845947,0.196411,0.914634,-0.487805,-5.731708
1548455089117,-0.556335,-0.841980,0.192383,0.609756,-0.731707,-5.426829
1548455089124,-0.554016,-0.846130,0.192078,0.121951,-0.792683,-5.609756
1548455089140,-0.550903,-0.862183,0.191406,-0.182927,-0.914634,-5.731708
1548455089147,-0.547852,-0.861084,0.192383,-1.097561,-1.402439,-5.609756
1548455089154,-0.544189,-0.860352,0.189941,-3.902439,-1.402439,-5.365854
1548455089169,-0.546509,-0.862976,0.194763,-6.463415,-1.402439,-5.426829
1548455089177,-0.548645,-0.869995,0.194336,-6.646342,-1.463415,-5.243903
1548455089184,-0.551025,-0.867004,0.197021,-6.097561,-1.524390,-4.756098
1548455089199,-0.554138,-0.866150,0.197021,-5.487805,-1.707317,-4.207317
1548455089207,-0.558533,-0.862976,0.196106,-4.573171,-1.707317,-3.780488
1548455089214,-0.557739,-0.865540,0.202637,-2.560976,-1.829268,-3.353659
1548455089229,-0.556519,-0.875671,0.204773,-0.182927,-1.890244,-2.743902
1548455089237,-0.550537,-0.868225,0.200317,1.280488,-1.951220,-2.256098
1548455089244,-0.549622,-0.868713,0.195068,1.402439,-1.768293,-1.707317
1548455089259,-0.548584,-0.871460,0.195496,0.853659,-1.707317,-1.646341
1548455089267,-0.548828,-0.865662,0.194763,0.304878,-1.585366,-1.585366
1548455089274,-0.549316,-0.856812,0.196533,-0.243902,-1.524390,-1.036585
1548455089289,-0.547546,-0.855347,0.193909,-0.914634,-1.463415,-0.914634
1548455089297,-0.550232,-0.854614,0.198242,-1.341463,-1.280488,-0.975610
1548455089304,-0.547791,-0.850647,0.196960,-1.097561,-1.219512,-0.792683
1548455089319,-0.542847,-0.841492,0.192566,-0.731707,-1.219512,-0.487805
1548455089327,-0.543884,-0.844238,0.195984,-0.426829,-1.402439,-0.426829
1548455089335,-0.542969,-0.848389,0.197998,-0.243902,-1.463415,-0.792683
1548455089349,-0.542725,-0.847290,0.193481,-0.121951,-1.585366,-1.036585
1548455089357,-0.544678,-0.842346,0.190857,-0.304878,-1.768293,-1.219512
1548455089364,-0.543457,-0.843567,0.192383,-0.853659,-2.012195,-1.585366
1548455089379,-0.546814,-0.841675,0.193665,-0.975610,-2.073171,-2.012195
1548455089387,-0.547791,-0.841919,0.197266,-0.304878,-2.256098,-2.073171
1548455089394,-0.544373,-0.846497,0.195007,0.365854,-2.317073,-2.195122
1548455089409,-0.542297,-0.841431,0.190369,0.426829,-2.317073,-2.378049
1548455089417,-0.541992,-0.838867,0.188110,-0.365854,-2.256098,-2.682927
1548455089424,-0.537354,-0.846375,0.190125,-1.158537,-2.195122,-3.292683
1548455089439,-0.535339,-0.845825,0.189697,-1.219512,-2.317073,-3.780488
1548455089447,-0.535767,-0.841370,0.191101,-1.036585,-2.560976,-4.085366
1548455089454,-0.536865,-0.837891,0.189575,-1.097561,-2.743902,-4.451220
1548455089469,-0.538696,-0.837097,0.188538,-0.792683,-2.926829,-4.878049
1548455089477,-0.539673,-0.842651,0.188904,-0.731707,-3.292683,-5.304878
1548455089484,-0.539185,-0.846313,0.192932,-0.792683,-3.658537,-5.731708
1548455089500,-0.534729,-0.844421,0.193848,-1.158537,-3.780488,-5.975610
1548455089507,-0.529602,-0.842957,0.190857,-1.036585,-3.902439,-6.219512
1548455089514,-0.530945,-0.844543,0.190735,-0.792683,-3.963415,-6.585366
1548455089529,-0.534058,-0.855713,0.199890,-0.731707,-4.146341,-7.317073
1548455089537,-0.525696,-0.856934,0.197937,-0.731707,-4.268293,-7.865854
1548455089544,-0.524902,-0.842102,0.191162,-0.792683,-4.146341,-7.682927
1548455089559,-0.527344,-0.840393,0.185059,-0.914634,-4.329268,-7.865854
1548455089567,-0.530212,-0.845581,0.188538,-1.097561,-4.573171,-8.719512
1548455089574,-0.528137,-0.841431,0.188416,-1.280488,-4.695122,-9.207317
1548455089589,-0.519531,-0.833801,0.190369,-1.646341,-5.060976,-9.268292
1548455089604,-0.512695,-0.840088,0.186035,-2.073171,-5.365854,-10.000000
1548455089605,-0.507446,-0.840942,0.186218,-2.195122,-5.609756,-11.219512
1548455089619,-0.508240,-0.838135,0.186829,-2.256098,-5.975610,-11.951220
1548455089627,-0.505981,-0.846619,0.190613,-2.256098,-6.341464,-12.743903
1548455089634,-0.503479,-0.854126,0.195862,-2.073171,-6.707317,-13.902439
1548455089657,-0.502625,-0.855469,0.196594,-1.646341,-7.073171,-14.390244
1548455089657,-0.508301,-0.850952,0.195068,-1.280488,-7.256098,-14.878049
1548455089664,-0.505859,-0.852661,0.196106,-1.097561,-7.195122,-15.609756
1548455089687,-0.501953,-0.862793,0.202881,-1.097561,-7.317073,-16.097561
1548455089687,-0.496582,-0.873596,0.208130,-1.097561,-7.378049,-16.402439
1548455089694,-0.493225,-0.862244,0.195557,-1.280488,-7.073171,-16.707317
1548455089709,-0.494751,-0.849426,0.187500,-1.829268,-7.195122,-16.951220
1548455089717,-0.491699,-0.856567,0.192688,-2.317073,-7.317073,-17.804878
1548455089724,-0.482605,-0.872437,0.198914,-2.378049,-7.378049,-18.841463
1548455089739,-0.473755,-0.869995,0.202881,-1.890244,-7.621952,-19.207317
1548455089747,-0.468384,-0.861755,0.202576,-1.219512,-7.804878,-19.451220
1548455089755,-0.469604,-0.872009,0.201355,-0.853659,-7.682927,-20.548780
1548455089769,-0.472656,-0.879395,0.205017,-0.426829,-7.804878,-21.768293
1548455089777,-0.467773,-0.879028,0.205566,0.243902,-7.743903,-21.768293
1548455089784,-0.468201,-0.896484,0.217041,1.280488,-7.865854,-21.768293
1548455089799,-0.464417,-0.901672,0.215576,2.621951,-7.804878,-22.317074
1548455089807,-0.460938,-0.897217,0.212646,3.170732,-7.743903,-21.768293
1548455089814,-0.456665,-0.904053,0.205017,2.804878,-7.378049,-21.280489
1548455089829,-0.449280,-0.905579,0.204041,1.829268,-7.317073,-21.524391
1548455089837,-0.440979,-0.904602,0.208740,0.914634,-7.317073,-21.219513
1548455089844,-0.435547,-0.905273,0.220337,0.000000,-7.317073,-20.975611
1548455089859,-0.431396,-0.913696,0.222839,-0.975610,-7.378049,-21.219513
1548455089867,-0.429077,-0.906677,0.213562,-1.524390,-7.256098,-21.646341
1548455089874,-0.433044,-0.902893,0.211304,-1.280488,-7.012195,-21.524391
1548455089889,-0.437134,-0.903503,0.211487,-0.121951,-7.012195,-21.585367
1548455089897,-0.430786,-0.895630,0.210022,2.073171,-7.195122,-21.768293
1548455089904,-0.419006,-0.895569,0.203186,3.963415,-7.256098,-21.402439
1548455089919,-0.413696,-0.911255,0.210571,5.182927,-7.560976,-21.768293
1548455089927,-0.404541,-0.913757,0.214905,6.280488,-7.621952,-22.500000
1548455089934,-0.397400,-0.905457,0.211609,7.621952,-7.621952,-22.378050
1548455089949,-0.397644,-0.906555,0.212891,8.719512,-7.743903,-22.195122
1548455089957,-0.396545,-0.908081,0.213806,9.268292,-7.987805,-23.109756
1548455089964,-0.396484,-0.906189,0.211304,8.780488,-8.109756,-23.475611
1548455089979,-0.394104,-0.918884,0.225464,7.073171,-8.353659,-23.658537
1548455089987,-0.384155,-0.924438,0.229797,4.878049,-8.414635,-24.512196
1548455089994,-0.373169,-0.917908,0.230042,3.414634,-8.475610,-24.573172
1548455090009,-0.371582,-0.929993,0.233093,3.170732,-8.536586,-24.207317
1548455090017,-0.375305,-0.936279,0.234802,4.024390,-8.414635,-25.000000
1548455090025,-0.378723,-0.933167,0.233337,4.939024,-8.414635,-24.695122
1548455090039,-0.379272,-0.926880,0.233154,4.878049,-8.292683,-23.902439
1548455090047,-0.378174,-0.919800,0.239502,3.963415,-8.170732,-24.268293
1548455090054,-0.369751,-0.903381,0.235229,2.378049,-7.743903,-24.695122
1548455090070,-0.355713,-0.900818,0.239990,0.487805,-7.378049,-25.121952
1548455090077,-0.338257,-0.932251,0.242615,-1.280488,-7.073171,-26.280489
1548455090084,-0.321350,-0.940125,0.238892,-2.560976,-6.951220,-27.560976
1548455090099,-0.318787,-0.930786,0.237305,-2.682927,-6.768293,-27.195122
1548455090107,-0.328186,-0.927002,0.232300,-2.378049,-6.707317,-27.012196
1548455090114,-0.331177,-0.924133,0.227844,-2.256098,-6.585366,-27.926830
1548455090129,-0.327209,-0.921387,0.228088,-1.402439,-6.585366,-28.170732
1548455090137,-0.320496,-0.939331,0.236023,-0.243902,-6.829268,-27.926830
1548455090144,-0.310669,-0.969910,0.242920,0.365854,-7.012195,-28.475611
1548455090159,-0.297729,-0.978149,0.243958,0.182927,-7.012195,-28.780489
1548455090167,-0.294067,-0.967102,0.244629,-0.243902,-6.829268,-27.987806
1548455090174,-0.295471,-0.971558,0.241272,-1.036585,-6.585366,-27.256098
1548455090189,-0.299683,-0.978088,0.239563,-1.585366,-6.341464,-27.500000
1548455090197,-0.300720,-0.977661,0.235474,-1.829268,-6.219512,-26.768293
1548455090204,-0.296448,-0.983215,0.233582,-2.256098,-6.097561,-25.609756
1548455090220,-0.289307,-0.993286,0.234436,-2.012195,-5.975610,-25.060976
1548455090227,-0.279114,-0.995972,0.231506,-0.975610,-5.792683,-24.329269
1548455090234,-0.274353,-0.999207,0.239319,0.182927,-5.731708,-23.109756
1548455090249,-0.270142,-1.006653,0.245483,0.426829,-5.609756,-22.317074
1548455090257,-0.267456,-0.998657,0.244934,0.000000,-5.182927,-21.707317
1548455090264,-0.267517,-0.987427,0.240601,-0.975610,-4.695122,-20.670732
1548455090279,-0.267395,-0.989807,0.239197,-2.317073,-4.146341,-20.060976
1548455090287,-0.261963,-0.995972,0.236267,-2.682927,-3.902439,-19.756098
1548455090294,-0.255920,-0.986694,0.235107,-1.951220,-3.841464,-18.841463
1548455090309,-0.252197,-0.977722,0.231812,-1.036585,-3.841464,-17.560976
1548455090317,-0.253052,-0.980713,0.229858,-0.304878,-3.963415,-17.134148
1548455090324,-0.249146,-0.987305,0.232971,0.243902,-4.085366,-16.829269
1548455090339,-0.240906,-0.994568,0.238037,-0.304878,-4.024390,-16.280489
1548455090347,-0.231506,-0.986511,0.234802,-1.402439,-3.963415,-15.853659
1548455090354,-0.231323,-0.972595,0.231262,-2.439024,-3.841464,-15.243903
1548455090369,-0.237000,-0.976746,0.232788,-2.439024,-3.780488,-15.060976
1548455090377,-0.236633,-0.990173,0.239624,-1.524390,-3.719512,-15.304878
1548455090384,-0.228027,-0.992310,0.239258,-0.426829,-3.536585,-14.878049
1548455090399,-0.223633,-0.986084,0.232483,0.060976,-3.231707,-14.024390
1548455090407,-0.227844,-0.981995,0.228882,-0.182927,-3.048780,-13.597561
1548455090414,-0.229004,-0.984314,0.227478,-0.365854,-2.804878,-13.719513
1548455090429,-0.225525,-0.981628,0.230591,-0.243902,-2.804878,-13.292684
1548455090437,-0.219238,-0.989258,0.232544,-0.548781,-2.987805,-12.560976
1548455090444,-0.211121,-0.987183,0.231750,-1.280488,-3.231707,-12.560976
1548455090459,-0.208740,-0.981384,0.231262,-1.951220,-3.231707,-12.439025
1548455090467,-0.211060,-0.987183,0.231201,-2.012195,-3.109756,-12.256098
1548455090474,-0.210754,-0.991516,0.232117,-1.097561,-3.048780,-12.317074
1548455090489,-0.207886,-0.987427,0.228516,0.060976,-3.170732,-11.768293
1548455090497,-0.209534,-0.984131,0.228577,0.365854,-3.048780,-10.975610
1548455090504,-0.209106,-0.992981,0.234314,0.000000,-3.048780,-10.670732
1548455090519,-0.198792,-0.995605,0.234375,-0.487805,-3.048780,-10.487805
1548455090527,-0.194458,-0.982483,0.229492,-0.609756,-2.987805,-9.756098
1548455090534,-0.195984,-0.980835,0.230225,-0.609756,-2.987805,-9.146341
1548455090550,-0.199402,-0.985840,0.232056,-0.365854,-2.865854,-9.390244
1548455090557,-0.199097,-0.982422,0.233704,-0.243902,-2.804878,-9.573171
1548455090564,-0.195496,-0.979309,0.235535,-0.609756,-2.804878,-9.329268
1548455090579,-0.189148,-0.987000,0.232300,-1.219512,-2.865854,-9.512196
1548455090587,-0.181885,-0.983826,0.228699,-1.280488,-2.804878,-9.695122
1548455090594,-0.182129,-0.972717,0.226990,-0.792683,-2.743902,-9.329268
1548455090609,-0.183594,-0.976135,0.230957,-0.304878,-2.926829,-9.146341
1548455090617,-0.182739,-0.987793,0.232422,0.182927,-3.048780,-9.634147
1548455090624,-0.183350,-0.983826,0.235168,0.365854,-2.987805,-9.634147
1548455090639,-0.181396,-0.973267,0.231506,-0.487805,-2.926829,-9.390244
1548455090647,-0.184448,-0.972229,0.230225,-1.219512,-2.743902,-9.573171
1548455090654,-0.183167,-0.984009,0.232544,-1.036585,-2.682927,-9.817074
1548455090669,-0.176575,-0.992371,0.232971,-0.182927,-2.743902,-9.573171
1548455090677,-0.176514,-0.990967,0.232666,0.182927,-2.743902,-9.085366
1548455090684,-0.174500,-0.994202,0.236145,-0.182927,-2.560976,-8.963415
1548455090699,-0.170959,-0.995239,0.235779,-0.914634,-2.317073,-9.085366
1548455090707,-0.166443,-0.993469,0.233948,-1.219512,-2.134146,-8.902439
1548455090714,-0.170410,-1.000854,0.235046,-1.097561,-1.829268,-8.536586
1548455090737,-0.174622,-1.001587,0.233887,-0.670732,-1.768293,-8.597561
1548455090737,-0.172119,-0.997681,0.235596,-0.304878,-1.585366,-7.987805
1548455090744,-0.170044,-1.002991,0.236145,-0.304878,-1.463415,-7.256098
1548455090759,-0.164307,-1.006958,0.238647,-0.243902,-1.341463,-7.012195
1548455090767,-0.161987,-1.005798,0.236145,0.121951,-1.036585,-6.280488
1548455090774,-0.161194,-1.001892,0.232849,0.000000,-0.792683,-5.548780
1548455090789,-0.162598,-1.000549,0.232849,-0.243902,-0.487805,-5.182927
1548455090797,-0.163269,-1.003967,0.233948,-0.548781,-0.243902,-4.756098
1548455090804,-0.159912,-0.998291,0.234802,-0.365854,-0.121951,-4.268293
1548455090820,-0.160156,-0.994873,0.230896,-0.426829,0.000000,-3.658537
1548455090827,-0.158875,-0.994629,0.227844,-0.548781,0.121951,-3.292683
1548455090834,-0.155945,-0.992676,0.227173,-0.121951,0.182927,-3.353659
1548455090849,-0.154297,-0.995178,0.227844,0.060976,0.243902,-3.109756
1548455090857,-0.150940,-0.992920,0.227844,-0.060976,0.182927,-2.865854
1548455090864,-0.149597,-0.990540,0.228699,-0.304878,0.000000,-2.560976
1548455090879,-0.151123,-0.989685,0.226135,-0.182927,-0.121951,-2.195122
1548455090887,-0.156250,-0.995850,0.226501,0.121951,-0.182927,-2.073171
1548455090894,-0.161560,-0.999023,0.227966,0.000000,-0.121951,-2.012195
1548455090909,-0.158569,-0.987610,0.229065,-0.304878,0.000000,-1.646341
1548455090917,-0.158508,-0.989258,0.226318,-0.365854,0.121951,-1.219512
1548455090924,-0.158142,-0.993713,0.224548,0.000000,0.121951,-1.219512
1548455090939,-0.154541,-0.993347,0.225525,0.487805,0.060976,-0.914634
1548455090947,-0.148926,-0.992371,0.224182,0.060976,0.000000,-0.548781
1548455090954,-0.146301,-0.987000,0.226868,-0.365854,-0.182927,-0.609756
1548455090969,-0.149963,-0.984192,0.224609,-0.243902,-0.365854,-0.365854
1548455090977,-0.153870,-0.988770,0.222839,-0.060976,-0.426829,-0.243902
1548455090984,-0.157410,-0.989258,0.222290,0.243902,-0.304878,-0.243902
1548455090999,-0.161377,-0.987122,0.221863,0.060976,-0.182927,0.000000
1548455091007,-0.156311,-0.986023,0.223999,-0.243902,-0.304878,-0.060976
1548455091015,-0.152405,-0.985535,0.225586,-0.304878,-0.243902,-0.182927
1548455091030,-0.148376,-0.985657,0.224548,-0.487805,-0.426829,0.060976
1548455091037,-0.149231,-0.984314,0.222412,-0.426829,-0.609756,0.000000
1548455091044,-0.151794,-0.983154,0.225220,-0.243902,-0.609756,-0.182927
1548455091059,-0.154907,-0.983948,0.225586,-0.060976,-0.670732,-0.304878
1548455091067,-0.154541,-0.984070,0.225464,0.000000,-0.670732,-0.426829
1548455091074,-0.153809,-0.981689,0.220520,0.243902,-0.548781,-0.365854
1548455091089,-0.152405,-0.984863,0.222229,0.365854,-0.609756,-0.182927
1548455091097,-0.149841,-0.985046,0.225220,0.060976,-0.670732,-0.426829
1548455091104,-0.145569,-0.983215,0.223145,-0.182927,-0.670732,-0.670732
1548455091119,-0.145691,-0.984802,0.221924,-0.304878,-0.731707,-0.609756
1548455091127,-0.150208,-0.984680,0.222351,-0.121951,-0.670732,-0.792683
1548455091142,-0.154724,-0.984192,0.224243,-0.121951,-0.731707,-1.158537
1548455091149,-0.158630,-0.986206,0.227661,-0.243902,-0.731707,-1.280488
1548455091157,-0.157471,-0.986877,0.225952,-0.060976,-0.792683,-1.280488
1548455091164,-0.154419,-0.987183,0.227173,-0.060976,-0.853659,-1.158537
1548455091179,-0.153015,-0.990173,0.226257,0.121951,-0.853659,-1.097561
1548455091187,-0.151245,-0.991089,0.226685,0.548781,-0.853659,-1.097561
1548455091194,-0.149353,-0.993530,0.228394,0.792683,-0.914634,-0.853659
1548455091209,-0.151367,-0.991333,0.229858,0.426829,-0.609756,-0.609756
1548455091217,-0.152100,-0.986389,0.228638,-0.121951,-0.487805,-0.487805
1548455091224,-0.151794,-0.981873,0.225647,-0.243902,-0.304878,-0.304878
1548455091239,-0.152283,-0.982666,0.227112,-0.060976,-0.182927,-0.060976
1548455091247,-0.149414,-0.986389,0.229553,0.060976,-0.182927,-0.182927
1548455091254,-0.144592,-0.986267,0.228333,0.365854,-0.243902,-0.243902
1548455091269,-0.145874,-0.991760,0.228638,0.609756,-0.365854,-0.243902
1548455091277,-0.146423,-0.991943,0.226685,0.548781,-0.243902,-0.487805
1548455091292,-0.149719,-0.990356,0.223877,0.670732,-0.426829,-0.487805
1548455091299,-0.152649,-0.993103,0.225952,0.243902,-0.487805,-0.426829
1548455091307,-0.152283,-0.992188,0.226013,-0.060976,-0.426829,-0.487805
1548455091314,-0.155396,-0.991211,0.223877,-0.121951,-0.365854,-0.365854
1548455091329,-0.153992,-0.992371,0.226257,0.060976,-0.182927,-0.060976
1548455091337,-0.151245,-0.996033,0.226135,0.548781,-0.121951,0.060976
1548455091345,-0.148926,-0.995483,0.228516,0.853659,-0.121951,0.304878
1548455091359,-0.148071,-0.989990,0.225159,0.548781,0.000000,0.426829
1548455091367,-0.150146,-0.987244,0.222534,-0.060976,0.060976,0.609756
1548455091382,-0.152954,-0.992126,0.220337,-0.243902,0.000000,0.731707
1548455091389,-0.157654,-0.990662,0.224426,0.000000,-0.121951,0.914634
1548455091397,-0.155273,-0.988953,0.223633,0.121951,-0.121951,1.341463
1548455091404,-0.153503,-0.992493,0.226257,0.060976,-0.121951,1.707317
1548455091419,-0.152161,-0.994141,0.226929,0.121951,0.000000,1.768293
1548455091427,-0.149841,-0.992615,0.223633,-0.182927,0.000000,1.768293
1548455091434,-0.144775,-0.994324,0.222595,-0.853659,-0.060976,1.646341
1548455091449,-0.150024,-0.993469,0.225891,-1.158537,0.000000,1.646341
1548455091457,-0.155212,-0.994690,0.222412,-1.707317,0.060976,1.829268
1548455091464,-0.154358,-0.995056,0.228271,-2.439024,0.243902,2.073171
1548455091479,-0.156433,-0.990906,0.220520,-2.621951,0.365854,2.378049
1548455091487,-0.157349,-0.995056,0.225952,-3.170732,0.609756,2.804878
1548455091494,-0.154541,-0.993530,0.226929,-3.048780,0.609756,2.804878
1548455091509,-0.153870,-0.991943,0.224792,-2.743902,0.731707,3.292683
1548455091517,-0.153564,-0.995667,0.227478,-2.378049,0.731707,3.658537
1548455091524,-0.154175,-0.989197,0.223694,-1.890244,0.731707,3.719512
1548455091547,-0.155151,-0.987854,0.220764,-1.524390,0.792683,4.207317
1548455091547,-0.158936,-0.990295,0.221436,-0.853659,0.914634,4.207317
1548455091554,-0.160461,-0.992065,0.223389,0.121951,1.036585,4.329268
1548455091569,-0.159607,-0.993042,0.217834,0.609756,1.097561,4.634146
1548455091577,-0.161560,-0.989685,0.214600,0.548781,1.158537,4.756098
1548455091584,-0.165710,-0.992126,0.220825,0.121951,1.341463,4.878049
1548455091599,-0.164673,-0.993774,0.223083,-0.121951,1.402439,5.000000
1548455091607,-0.161865,-0.989380,0.221375,-0.243902,1.280488,5.365854
1548455091614,-0.161438,-0.990906,0.218201,-0.304878,1.280488,5.853659
1548455091629,-0.166809,-0.991821,0.214355,-0.243902,1.280488,5.731708
1548455091637,-0.166077,-0.990479,0.217529,0.060976,1.219512,5.792683
1548455091644,-0.167725,-0.997742,0.218323,0.304878,1.097561,6.158537
1548455091659,-0.165100,-0.995239,0.218018,0.670732,1.036585,6.341464
1548455091667,-0.166687,-0.991577,0.217834,0.975610,1.036585,6.707317
1548455091674,-0.170044,-0.993103,0.218872,0.975610,1.097561,6.951220
1548455091689,-0.173889,-0.994812,0.218140,1.158537,1.219512,6.951220
1548455091697,-0.176941,-0.997681,0.219482,1.280488,1.280488,7.256098
1548455091704,-0.174133,-0.998230,0.221558,1.036585,1.280488,7.560976
1548455091719,-0.172791,-1.001160,0.221680,0.914634,1.280488,7.743903
1548455091727,-0.172607,-1.001038,0.217041,0.914634,1.219512,8.109756
1548455091734,-0.178528,-1.000916,0.220642,1.280488,1.280488,8.414635
1548455091749,-0.185303,-1.002319,0.222595,1.585366,1.463415,8.902439
1548455091757,-0.187195,-1.001892,0.221741,2.012195,1.585366,9.451220
1548455091765,-0.187927,-1.000732,0.218079,2.012195,1.829268,10.182927
1548455091779,-0.190735,-0.999390,0.219360,1.646341,1.951220,10.792684
1548455091787,-0.189392,-0.999878,0.219238,1.402439,1.951220,11.036586
1548455091794,-0.186096,-0.995605,0.218811,0.914634,1.951220,11.524390
1548455091809,-0.184692,-0.994812,0.220642,0.792683,1.768293,12.012196
1548455091817,-0.187134,-0.994873,0.219849,1.280488,1.768293,12.256098
1548455091824,-0.192993,-0.993774,0.221802,2.073171,1.768293,12.560976
1548455091839,-0.199951,-0.997192,0.220398,2.682927,1.829268,12.987805
1548455091847,-0.203857,-0.995789,0.221313,2.926829,1.768293,13.414635
1548455091854,-0.206909,-0.991211,0.222961,2.682927,1.768293,13.902439
1548455091869,-0.205444,-0.991455,0.221619,2.195122,1.951220,14.207317
1548455091877,-0.205444,-0.992554,0.222046,1.829268,2.134146,14.512196
1548455091884,-0.208496,-0.995667,0.224121,1.585366,2.195122,15.000000
1548455091899,-0.210815,-0.990662,0.224854,1.707317,2.256098,15.243903
1548455091907,-0.215576,-0.990051,0.227600,1.951220,2.378049,15.548780
1548455091914,-0.223328,-0.991516,0.229736,2.378049,2.378049,15.792684
1548455091929,-0.229736,-0.990479,0.228394,2.865854,2.500000,16.097561
1548455091937,-0.229370,-0.992249,0.227173,3.231707,2.682927,16.707317
1548455091944,-0.231445,-0.989685,0.227295,2.865854,2.865854,17.012196
1548455091959,-0.230347,-0.988220,0.228577,2.195122,3.170732,17.134148
1548455091967,-0.232971,-0.982300,0.228394,1.585366,3.292683,17.682928
1548455091974,-0.238831,-0.986023,0.230469,1.768293,3.536585,18.170732
1548455091989,-0.244385,-0.982178,0.228394,2.012195,3.780488,18.475611
1548455091997,-0.246582,-0.979797,0.230164,2.073171,3.963415,19.024391
1548455092004,-0.250793,-0.976929,0.229736,2.134146,4.207317,19.390244
1548455092019,-0.249329,-0.976074,0.229187,2.195122,4.390244,19.634148
1548455092027,-0.250854,-0.974854,0.227905,2.195122,4.451220,20.060976
1548455092034,-0.252991,-0.971741,0.229980,2.378049,4.573171,20.182928
1548455092057,-0.257263,-0.972290,0.227661,2.378049,4.573171,20.426830
1548455092057,-0.259155,-0.971680,0.226074,2.439024,4.512195,20.609756
1548455092064,-0.268372,-0.972351,0.225220,2.317073,4.573171,20.670732
1548455092079,-0.270508,-0.969788,0.217468,2.134146,4.573171,20.609756
1548455092087,-0.273376,-0.966736,0.218933,2.073171,4.451220,20.731709
1548455092094,-0.275024,-0.968994,0.218506,2.134146,4.512195,20.975611
1548455092109,-0.283386,-0.965637,0.214294,2.682927,4.329268,20.914635
1548455092117,-0.287476,-0.958313,0.216553,2.865854,3.841464,21.036587
1548455092124,-0.288452,-0.953857,0.219299,1.951220,3.780488,21.036587
1548455092139,-0.289368,-0.956726,0.218018,0.975610,3.780488,20.792683
1548455092147,-0.289795,-0.960144,0.215027,0.731707,3.841464,20.487804
1548455092154,-0.294312,-0.959900,0.213196,1.402439,3.902439,20.487804
1548455092169,-0.301941,-0.956726,0.213684,1.829268,3.536585,20.853659
1548455092177,-0.306091,-0.957825,0.213196,1.646341,3.292683,20.914635
1548455092184,-0.312683,-0.956177,0.212341,1.707317,3.109756,20.975611
1548455092199,-0.315186,-0.954346,0.214111,1.768293,2.804878,21.341463
1548455092207,-0.318970,-0.954590,0.215759,1.707317,2.500000,21.280489
1548455092214,-0.319946,-0.949524,0.214050,1.402439,2.439024,20.975611
1548455092229,-0.322693,-0.947266,0.214539,0.975610,2.134146,20.853659
1548455092237,-0.326782,-0.951355,0.218506,0.914634,1.890244,20.853659
1548455092244,-0.330383,-0.948486,0.220276,1.219512,1.768293,20.792683
1548455092259,-0.331909,-0.948181,0.218750,1.341463,1.707317,21.036587
1548455092267,-0.330750,-0.950134,0.220459,1.219512,1.707317,21.036587
1548455092274,-0.335999,-0.944946,0.216980,1.524390,1.707317,21.097561
1548455092290,-0.345581,-0.940796,0.216553,1.707317,1.524390,21.402439
1548455092297,-0.352600,-0.944153,0.219910,1.646341,1.524390,21.341463
1548455092304,-0.360413,-0.944824,0.224121,1.707317,1.463415,21.158537
1548455092319,-0.360413,-0.947144,0.228882,1.585366,1.219512,21.463415
1548455092327,-0.359436,-0.943176,0.229004,1.097561,1.402439,21.524391
1548455092335,-0.361328,-0.942261,0.225708,0.731707,1.524390,21.890244
1548455092349,-0.365601,-0.941284,0.226501,0.060976,1.463415,21.951220
1548455092357,-0.366455,-0.936096,0.221252,-1.768293,1.585366,21.646341
1548455092365,-0.370300,-0.931824,0.225891,-3.109756,2.012195,21.646341
1548455092379,-0.373474,-0.931213,0.224304,-2.256098,2.073171,21.890244
1548455092387,-0.379211,-0.930420,0.225037,-0.548781,1.951220,22.073172
1548455092394,-0.386108,-0.927490,0.224243,1.402439,1.890244,22.012196
1548455092409,-0.391235,-0.927490,0.229980,2.378049,2.012195,22.256098
1548455092418,-0.392639,-0.929443,0.228394,2.317073,2.256098,22.256098
1548455092424,-0.396484,-0.930237,0.227051,2.317073,2.439024,22.439024
1548455092439,-0.400391,-0.938843,0.227478,1.768293,2.560976,22.743902
1548455092447,-0.401611,-0.932068,0.223450,0.914634,2.621951,22.682928
1548455092454,-0.407043,-0.922058,0.223999,0.426829,2.682927,23.231709
1548455092470,-0.414978,-0.921631,0.229065,0.548781,2.804878,23.536587
1548455092477,-0.423035,-0.922607,0.235962,1.585366,2.926829,23.536587
1548455092484,-0.425171,-0.919495,0.237549,2.317073,3.170732,23.902439
1548455092499,-0.424866,-0.916687,0.230835,2.195122,3.780488,23.902439
1548455092507,-0.426880,-0.911987,0.229492,1.585366,4.146341,23.780489
1548455092514,-0.428833,-0.907715,0.229187,1.158537,4.451220,23.841463
1548455092529,-0.429443,-0.915100,0.225464,1.280488,4.817073,23.841463
1548455092537,-0.431885,-0.917847,0.226379,1.768293,4.878049,23.780489
1548455092544,-0.438538,-0.912659,0.231445,1.463415,5.000000,24.024391
1548455092559,-0.444885,-0.901611,0.227234,-0.548781,5.304878,24.207317
1548455092567,-0.453247,-0.895569,0.234314,-1.890244,5.609756,23.963415
1548455092574,-0.458008,-0.908020,0.234070,-0.548781,6.036585,24.146341
1548455092590,-0.458130,-0.907837,0.225403,1.585366,6.524390,24.451220
1548455092597,-0.462769,-0.897461,0.217773,3.597561,6.829268,25.000000
1548455092605,-0.472839,-0.894470,0.219238,4.207317,6.951220,25.609756
1548455092619,-0.474060,-0.892517,0.220215,3.902439,7.012195,25.182928
1548455092627,-0.474915,-0.892212,0.222412,3.048780,7.073171,25.304878
1548455092634,-0.475830,-0.894531,0.225525,1.463415,7.317073,25.304878
1548455092650,-0.478027,-0.876892,0.215637,-0.426829,7.621952,24.817074
1548455092657,-0.484741,-0.872253,0.213501,-0.975610,7.865854,24.756098
1548455092664,-0.487793,-0.877991,0.208862,0.121951,7.987805,24.268293
1548455092679,-0.492493,-0.869995,0.210388,1.829268,7.865854,23.963415
1548455092687,-0.499390,-0.870544,0.211304,2.865854,7.743903,24.329269
1548455092694,-0.501831,-0.875671,0.215271,2.621951,7.682927,23.963415
1548455092709,-0.500061,-0.867493,0.208069,2.439024,7.804878,23.353659
1548455092717,-0.505005,-0.869080,0.203735,2.195122,7.926829,23.475611
1548455092724,-0.512024,-0.869385,0.202271,1.890244,7.682927,23.109756
1548455092739,-0.517456,-0.864380,0.206116,1.890244,7.439024,22.926830
1548455092747,-0.523315,-0.859985,0.204407,1.524390,7.195122,23.414635
1548455092754,-0.524536,-0.848816,0.200439,1.036585,7.073171,23.292683
1548455092770,-0.525818,-0.844727,0.202637,0.609756,6.951220,23.109756
1548455092777,-0.526611,-0.852417,0.201721,0.426829,6.646342,22.804878
1548455092784,-0.526184,-0.847534,0.198181,0.243902,6.524390,22.134148
1548455092799,-0.526489,-0.847046,0.198364,0.182927,6.463415,21.829269
1548455092807,-0.532959,-0.854370,0.198792,0.000000,6.219512,21.524391
1548455092814,-0.537720,-0.841187,0.200012,0.060976,5.792683,21.036587
1548455092829,-0.547974,-0.841797,0.198425,-0.365854,5.670732,21.097561
1548455092837,-0.556946,-0.835754,0.198059,-1.158537,5.365854,20.365854
1548455092844,-0.562439,-0.828003,0.199402,-1.036585,5.243903,20.000000
1548455092859,-0.563782,-0.817322,0.194092,-1.097561,5.243903,19.878050
1548455092867,-0.562317,-0.816833,0.193726,-1.524390,5.243903,19.146341
1548455092874,-0.560547,-0.819519,0.190247,-2.317073,5.121951,17.926830
1548455092890,-0.557922,-0.813293,0.181091,-3.597561,4.939024,17.073172
1548455092897,-0.559021,-0.803162,0.181458,-5.000000,4.756098,16.341463
1548455092904,-0.564453,-0.791626,0.177307,-6.219512,4.451220,15.304878
1548455092919,-0.570312,-0.788452,0.180847,-7.256098,4.146341,14.146341
1548455092927,-0.569641,-0.787659,0.181458,-8.109756,3.841464,12.743903
1548455092935,-0.568298,-0.775757,0.173218,-8.658537,3.536585,11.341464
1548455092949,-0.573120,-0.771973,0.176331,-8.963415,3.109756,10.304878
1548455092957,-0.573975,-0.773865,0.177246,-9.451220,2.682927,8.353659
1548455092964,-0.573792,-0.767883,0.169067,-8.536586,2.378049,6.341464
1548455092979,-0.573914,-0.760010,0.164734,-6.280488,1.707317,5.243903
1548455092987,-0.574951,-0.769226,0.162964,-3.963415,1.036585,3.963415
1548455092994,-0.576294,-0.781006,0.163147,-1.951220,0.548781,1.890244
1548455093009,-0.573242,-0.783020,0.161316,-0.243902,-0.060976,0.365854
1548455093017,-0.575256,-0.793945,0.169556,0.853659,-0.731707,-0.487805
1548455093024,-0.574890,-0.812012,0.176453,0.853659,-1.280488,-1.951220
1548455093039,-0.574036,-0.813049,0.175232,0.304878,-1.646341,-2.865854
1548455093047,-0.575500,-0.820129,0.175903,-0.304878,-1.951220,-3.048780
1548455093055,-0.576233,-0.826233,0.183289,-0.182927,-2.256098,-3.658537
1548455093069,-0.579346,-0.835266,0.187744,0.426829,-2.500000,-4.146341
1548455093077,-0.578796,-0.842651,0.189087,1.097561,-2.560976,-4.207317
1548455093084,-0.583008,-0.847961,0.187256,2.012195,-2.378049,-4.207317
1548455093099,-0.587891,-0.857300,0.188721,2.439024,-2.256098,-4.024390
1548455093107,-0.591614,-0.859314,0.191589,1.829268,-2.012195,-4.024390
1548455093115,-0.587891,-0.853088,0.189758,1.158537,-1.646341,-3.292683
1548455093129,-0.583679,-0.857178,0.189148,0.792683,-1.280488,-2.439024
1548455093137,-0.579285,-0.859619,0.191467,0.365854,-0.914634,-2.073171
1548455093144,-0.571533,-0.856750,0.188110,0.060976,-0.792683,-1.707317
1548455093159,-0.567627,-0.854370,0.188416,-0.121951,-0.670732,-1.097561
1548455093167,-0.566833,-0.848999,0.184570,-0.121951,-0.609756,-0.914634
1548455093174,-0.572937,-0.851440,0.181580,0.182927,-0.609756,-0.792683
1548455093189,-0.576904,-0.850647,0.179749,0.365854,-0.609756,-0.731707
1548455093197,-0.577698,-0.837219,0.176270,0.792683,-0.853659,-0.426829
1548455093204,-0.577759,-0.843506,0.177429,0.670732,-1.036585,0.243902
1548455093219,-0.576965,-0.847412,0.180725,0.243902,-1.158537,0.000000
1548455093227,-0.573059,-0.840271,0.178650,0.121951,-1.280488,0.060976
1548455093234,-0.569092,-0.835449,0.173523,-0.365854,-1.402439,0.609756
1548455093249,-0.570007,-0.835571,0.177246,-0.792683,-1.524390,0.243902
1548455093257,-0.570312,-0.831970,0.178467,-0.731707,-1.585366,-0.304878
1548455093264,-0.572937,-0.831177,0.178284,-0.304878,-1.646341,-0.182927
1548455093280,-0.576782,-0.834351,0.182922,0.121951,-1.951220,-0.426829
1548455093287,-0.577087,-0.833801,0.182190,0.304878,-2.073171,-0.792683
1548455093294,-0.576538,-0.830505,0.181152,0.182927,-2.134146,-0.853659
1548455093310,-0.574463,-0.834351,0.180054,0.000000,-2.195122,-0.914634
1548455093317,-0.571960,-0.840576,0.185181,0.000000,-2.439024,-1.097561
1548455093340,-0.569824,-0.844055,0.190186,0.000000,-2.560976,-1.341463
1548455093340,-0.566040,-0.841675,0.189026,-0.182927,-2.560976,-1.341463
1548455093363,-0.570557,-0.838989,0.185852,-0.426829,-2.439024,-1.219512
1548455093364,-0.581604,-0.841064,0.190918,-0.304878,-2.378049,-1.524390
1548455093370,-0.581299,-0.842712,0.192444,-0.121951,-2.317073,-1.524390
1548455093378,-0.578979,-0.839539,0.186768,0.060976,-2.134146,-1.219512
1548455093385,-0.574402,-0.834290,0.189392,0.121951,-1.890244,-0.853659
1548455093399,-0.570801,-0.842224,0.189575,0.304878,-1.768293,-0.853659
1548455093407,-0.565552,-0.844849,0.189575,0.670732,-1.646341,-1.280488
1548455093414,-0.563965,-0.846619,0.189880,0.670732,-1.524390,-1.219512
1548455093429,-0.565063,-0.845581,0.190796,0.304878,-1.463415,-1.402439
1548455093437,-0.566284,-0.843079,0.190552,0.000000,-1.463415,-1.463415
1548455093444,-0.570984,-0.848633,0.187805,0.243902,-1.463415,-1.463415
1548455093460,-0.576843,-0.847473,0.187683,0.853659,-1.463415,-1.463415
1548455093467,-0.577820,-0.845581,0.186890,1.097561,-1.585366,-1.097561
1548455093474,-0.576111,-0.843201,0.189209,0.853659,-1.402439,-0.792683
1548455093489,-0.572327,-0.837402,0.189331,0.609756,-1.280488,-0.853659
1548455093497,-0.569458,-0.842651,0.189514,0.670732,-1.097561,-0.853659
1548455093504,-0.563416,-0.848938,0.189453,0.731707,-0.975610,-0.792683
1548455093519,-0.559937,-0.843994,0.183960,0.670732,-0.853659,-1.036585
1548455093527,-0.565308,-0.837952,0.183655,0.365854,-0.853659,-0.792683
1548455093534,-0.570007,-0.841248,0.187561,0.243902,-0.853659,-0.792683
1548455093549,-0.569458,-0.839722,0.189880,0.000000,-0.853659,-1.036585
1548455093557,-0.563354,-0.836121,0.189209,-0.060976,-0.731707,-0.853659
1548455093565,-0.563049,-0.834167,0.187317,0.365854,-0.731707,-0.792683
1548455093580,-0.565552,-0.834778,0.185852,0.731707,-0.914634,-1.280488
1548455093595,-0.565491,-0.835266,0.184082,0.914634,-0.975610,-1.768293
1548455093596,-0.568787,-0.837158,0.184021,0.792683,-1.158537,-2.012195
1548455093611,-0.567200,-0.838074,0.187683,0.731707,-1.524390,-2.134146
1548455093618,-0.568665,-0.836731,0.186890,0.670732,-1.585366,-2.378049
1548455093625,-0.571655,-0.843811,0.187256,0.609756,-1.585366,-2.743902
1548455093640,-0.567749,-0.846985,0.188416,0.548781,-1.463415,-3.048780
1548455093648,-0.564453,-0.839417,0.185852,0.426829,-1.341463,-3.170732
1548455093655,-0.566467,-0.837830,0.181274,0.304878,-1.219512,-2.865854
1548455093670,-0.563904,-0.840759,0.183289,0.182927,-1.280488,-3.109756
1548455093678,-0.562561,-0.834839,0.183350,0.365854,-1.341463,-3.231707
1548455093685,-0.561523,-0.830566,0.182922,0.426829,-1.524390,-3.109756
1548455093701,-0.559692,-0.833496,0.186035,0.000000,-1.646341,-3.536585
1548455093707,-0.555237,-0.835205,0.182190,0.000000,-1.768293,-4.207317
1548455093715,-0.554016,-0.834167,0.178223,0.060976,-2.134146,-4.390244
1548455093730,-0.557373,-0.833252,0.181458,-0.060976,-2.317073,-4.695122
1548455093737,-0.557373,-0.833374,0.180359,-0.121951,-2.500000,-5.182927
1548455093745,-0.558594,-0.837097,0.182190,-0.182927,-2.804878,-5.487805
1548455093759,-0.558289,-0.839600,0.183899,-0.121951,-3.109756,-6.036585
1548455093767,-0.552368,-0.836975,0.181824,-0.121951,-3.231707,-6.341464
1548455093774,-0.547913,-0.834656,0.180786,-0.121951,-3.414634,-6.646342
1548455093789,-0.549744,-0.839600,0.184143,-0.060976,-3.475610,-7.195122
1548455093797,-0.549988,-0.841187,0.184998,-0.365854,-3.658537,-7.804878
1548455093804,-0.545959,-0.842896,0.183777,-1.036585,-3.658537,-8.231708
1548455093819,-0.543884,-0.853577,0.185852,-1.524390,-3.719512,-8.475610
1548455093827,-0.542542,-0.858215,0.184998,-1.280488,-3.963415,-8.902439
1548455093834,-0.543335,-0.853638,0.184448,-0.426829,-4.146341,-8.902439
1548455093850,-0.545898,-0.850952,0.184692,0.243902,-4.329268,-8.719512
1548455093857,-0.549011,-0.848694,0.182739,0.243902,-4.634146,-8.902439
1548455093865,-0.546204,-0.845276,0.179260,-0.243902,-4.878049,-9.146341
1548455093880,-0.539734,-0.836365,0.172791,-0.975610,-5.000000,-9.268292
1548455093888,-0.537354,-0.828735,0.163757,-1.829268,-5.243903,-9.878049
1548455093895,-0.531372,-0.819336,0.159912,-2.621951,-5.731708,-10.731708
1548455093910,-0.520386,-0.818237,0.163513,-3.231707,-6.158537,-11.890244
1548455093917,-0.509094,-0.818359,0.162292,-4.085366,-6.829268,-13.353659
1548455093925,-0.505005,-0.796326,0.154846,-4.634146,-7.439024,-14.634147
1548455093940,-0.508911,-0.792358,0.150696,-4.817073,-8.048780,-16.097561
1548455093948,-0.510132,-0.810913,0.154419,-5.182927,-9.024390,-18.292683
1548455093956,-0.503052,-0.832764,0.164734,-5.304878,-10.121951,-20.365854
1548455093970,-0.494812,-0.836243,0.166565,-6.768293,-11.585366,-21.402439
1548455093978,-0.490234,-0.845398,0.169250,-10.609756,-12.439025,-22.926830
1548455093985,-0.490601,-0.868164,0.182922,-15.609756,-13.170732,-25.060976
1548455094000,-0.484009,-0.881226,0.186462,-19.390244,-13.414635,-26.707317
1548455094008,-0.487000,-0.871765,0.189697,-20.060976,-13.414635,-26.768293
1548455094015,-0.492859,-0.882446,0.197144,-19.451220,-13.231708,-26.463415
1548455094023,-0.500671,-0.883972,0.192932,-17.195122,-12.256098,-27.256098
1548455094037,-0.502075,-0.888977,0.194885,-11.585366,-11.829268,-26.768293
1548455094046,-0.496338,-0.914185,0.196472,-4.512195,-11.463415,-25.487806
1548455094053,-0.485046,-0.922791,0.196960,0.975610,-11.463415,-24.878050
1548455094068,-0.476074,-0.922424,0.196106,2.682927,-11.402439,-24.085367
1548455094075,-0.463928,-0.920471,0.191589,1.097561,-10.731708,-23.597561
1548455094082,-0.454285,-0.907043,0.192444,-1.036585,-10.304878,-23.597561
1548455094098,-0.450684,-0.909973,0.193054,-2.743902,-10.121951,-23.353659
1548455094105,-0.447510,-0.915405,0.199219,-4.024390,-9.634147,-23.597561
1548455094112,-0.444458,-0.921021,0.205383,-4.695122,-9.207317,-23.780489
1548455094127,-0.442078,-0.917908,0.200867,-4.024390,-8.658537,-23.414635
1548455094135,-0.448425,-0.924011,0.193604,-2.743902,-8.353659,-22.743902
1548455094143,-0.451294,-0.928284,0.193115,-1.524390,-7.926829,-22.621952
1548455094157,-0.450012,-0.919556,0.191589,-0.609756,-7.804878,-22.256098
1548455094165,-0.445496,-0.908264,0.188171,-0.365854,-7.682927,-21.158537
1548455094172,-0.437378,-0.891663,0.182556,-0.975610,-7.378049,-21.036587
1548455094187,-0.428711,-0.881958,0.187012,-1.707317,-7.134147,-21.524391
1548455094195,-0.412170,-0.891785,0.196167,-1.402439,-7.012195,-22.439024
1548455094203,-0.395325,-0.902405,0.206482,0.304878,-6.829268,-23.536587
1548455094218,-0.384277,-0.909058,0.203430,1.646341,-6.646342,-24.207317
1548455094226,-0.385620,-0.907715,0.193115,1.890244,-6.097561,-25.304878
1548455094233,-0.396240,-0.903870,0.189941,1.707317,-5.792683,-25.975611
1548455094248,-0.406189,-0.905090,0.189819,1.036585,-5.853659,-26.707317
1548455094255,-0.404907,-0.904175,0.190796,0.060976,-5.975610,-27.256098
1548455094263,-0.397583,-0.910217,0.198242,-0.975610,-6.036585,-27.500000
1548455094278,-0.383423,-0.928589,0.201782,-1.585366,-5.914634,-28.292683
1548455094285,-0.366699,-0.924133,0.204102,-0.975610,-5.670732,-28.963415
1548455094292,-0.361938,-0.916870,0.200378,0.914634,-5.304878,-28.658537
1548455094308,-0.364685,-0.919434,0.199829,2.378049,-5.121951,-29.024391
1548455094315,-0.361755,-0.924805,0.200684,3.353659,-4.939024,-29.939026
1548455094323,-0.356506,-0.945251,0.209717,3.780488,-5.060976,-30.121952
1548455094338,-0.343811,-0.973877,0.215088,3.719512,-5.243903,-30.182928
1548455094345,-0.335510,-0.972229,0.208435,3.048780,-4.878049,-30.243902
1548455094352,-0.337891,-0.962097,0.200928,2.195122,-4.573171,-29.512196
1548455094368,-0.342041,-0.968994,0.203857,2.195122,-4.085366,-29.268293
1548455094375,-0.338623,-0.974060,0.202698,3.292683,-3.841464,-29.268293
1548455094383,-0.337219,-0.979004,0.213989,4.085366,-3.597561,-28.170732
1548455094397,-0.331055,-0.987305,0.218689,3.170732,-3.170732,-27.500000
1548455094405,-0.324402,-0.980835,0.211975,1.646341,-2.439024,-27.560976
1548455094412,-0.320190,-0.989685,0.211914,1.219512,-2.012195,-26.768293
1548455094428,-0.312927,-1.005371,0.211426,1.402439,-1.646341,-26.280489
1548455094435,-0.303284,-0.994995,0.204102,1.707317,-1.280488,-25.609756
1548455094442,-0.300781,-0.988831,0.204407,1.829268,-1.036585,-24.146341
1548455094457,-0.299133,-0.993835,0.202087,0.975610,-0.792683,-23.658537
1548455094465,-0.293030,-0.995667,0.202698,0.243902,-0.426829,-23.414635
1548455094472,-0.293213,-0.986023,0.199036,-0.182927,-0.182927,-22.256098
1548455094487,-0.298279,-0.977966,0.193726,-0.731707,-0.060976,-21.158537
1548455094495,-0.298157,-0.974731,0.193298,-1.219512,0.121951,-21.097561
1548455094503,-0.289978,-0.978699,0.195374,-1.524390,0.243902,-20.914635
1548455094517,-0.275635,-0.985535,0.193176,-1.768293,0.304878,-20.426830
1548455094526,-0.264465,-0.970093,0.187317,-1.585366,0.182927,-20.000000
1548455094532,-0.263062,-0.966187,0.188354,-1.341463,-0.121951,-19.390244
1548455094548,-0.261963,-0.974365,0.184570,-0.548781,-0.243902,-19.817074
1548455094555,-0.259338,-0.972839,0.183655,0.304878,-0.731707,-19.817074
1548455094563,-0.257629,-0.971069,0.187073,0.365854,-1.036585,-19.268293
1548455094578,-0.254822,-0.970581,0.184143,-0.609756,-1.097561,-19.451220
1548455094585,-0.253906,-0.963562,0.178894,-1.402439,-1.280488,-19.756098
1548455094593,-0.251404,-0.964600,0.178650,-1.646341,-1.524390,-19.573172
1548455094607,-0.247009,-0.974426,0.189026,-1.402439,-1.768293,-19.878050
1548455094615,-0.238586,-0.967529,0.186523,-0.975610,-2.134146,-20.000000
1548455094623,-0.234619,-0.957520,0.186523,-0.365854,-2.317073,-19.756098
1548455094637,-0.234070,-0.972534,0.190918,0.914634,-2.500000,-20.000000
1548455094645,-0.231506,-0.975952,0.187195,2.560976,-2.926829,-20.609756
1548455094653,-0.227844,-0.967529,0.188049,2.987805,-3.048780,-20.243902
1548455094668,-0.229004,-0.972290,0.195435,3.048780,-3.048780,-20.182928
1548455094675,-0.224121,-0.971924,0.196716,3.658537,-3.597561,-20.670732
1548455094683,-0.219543,-0.986328,0.199829,3.780488,-3.841464,-20.609756
1548455094697,-0.212036,-0.996094,0.200989,3.780488,-3.841464,-20.792683
1548455094705,-0.203003,-0.998657,0.196411,3.414634,-3.841464,-20.487804
1548455094712,-0.198853,-0.991028,0.190369,2.134146,-3.963415,-20.000000
1548455094727,-0.202332,-0.990906,0.204956,0.304878,-4.207317,-19.817074
1548455094735,-0.201965,-1.000916,0.208130,-1.341463,-3.963415,-19.878050
1548455094742,-0.200256,-1.002991,0.210938,-1.219512,-3.780488,-19.573172
1548455094757,-0.198425,-1.008057,0.213257,-0.304878,-3.841464,-18.780489
1548455094767,-0.197205,-1.015564,0.213074,0.000000,-3.536585,-18.231709
1548455094772,-0.197571,-1.018860,0.217224,0.304878,-3.353659,-17.743902
1548455094788,-0.191772,-1.025452,0.217285,0.792683,-2.926829,-16.829269
1548455094795,-0.186951,-1.028625,0.215027,1.829268,-2.439024,-15.792684
1548455094802,-0.188416,-1.022644,0.212463,3.292683,-2.317073,-14.512196
1548455094817,-0.188171,-1.023071,0.211792,3.536585,-1.890244,-13.292684
1548455094833,-0.185303,-1.025879,0.218628,2.195122,-1.463415,-12.682927
1548455094833,-0.177979,-1.031067,0.214661,0.426829,-1.158537,-11.890244
1548455094848,-0.172058,-1.025452,0.206665,-1.097561,-0.731707,-11.036586
1548455094855,-0.171448,-1.019958,0.206116,-1.890244,-0.365854,-10.182927
1548455094863,-0.173645,-1.016174,0.206726,-1.768293,-0.182927,-9.390244
1548455094878,-0.175781,-1.013245,0.203064,-1.402439,-0.121951,-8.536586
1548455094885,-0.176270,-1.010620,0.204834,-0.792683,0.060976,-7.682927
1548455094893,-0.173096,-1.011047,0.205139,-0.304878,0.182927,-7.012195
1548455094908,-0.166382,-1.008301,0.200562,0.365854,0.304878,-6.341464
1548455094915,-0.162415,-1.013184,0.199036,0.853659,0.243902,-5.670732
1548455094923,-0.153442,-1.017273,0.196472,0.975610,0.365854,-5.487805
1548455094938,-0.153442,-1.008667,0.194702,0.548781,0.426829,-4.878049
1548455094945,-0.161560,-1.002136,0.190430,-0.426829,0.365854,-4.024390
1548455094953,-0.169067,-0.997070,0.191833,-1.097561,0.243902,-3.963415
1548455094968,-0.169739,-0.991943,0.193237,-1.219512,0.182927,-3.658537
1548455094975,-0.164246,-0.994019,0.194458,-0.792683,-0.060976,-3.292683
1548455094983,-0.156616,-0.992920,0.193237,-0.365854,-0.121951,-3.353659
1548455094998,-0.150940,-0.994385,0.190735,-0.121951,-0.365854,-3.292683
1548455095006,-0.148926,-0.996216,0.191101,0.121951,-0.670732,-3.109756
1548455095012,-0.149414,-0.997620,0.193665,0.060976,-1.097561,-2.987805
1548455095028,-0.152893,-0.996948,0.191895,0.304878,-1.341463,-2.804878
1548455095035,-0.159180,-0.997559,0.194153,0.365854,-1.707317,-2.439024
1548455095042,-0.165100,-0.996338,0.193359,0.487805,-1.951220,-2.378049
1548455095057,-0.164490,-0.997620,0.194641,0.487805,-2.012195,-2.256098
1548455095066,-0.162354,-0.998901,0.197083,0.060976,-1.890244,-2.134146
1548455095072,-0.157532,-0.997803,0.196899,-0.426829,-1.890244,-1.951220
1548455095087,-0.152832,-0.994751,0.198669,-0.670732,-1.890244,-1.524390
1548455095095,-0.155029,-0.993896,0.200195,-0.426829,-1.890244,-1.219512
1548455095102,-0.157349,-0.995544,0.203186,0.060976,-1.890244,-0.975610
1548455095117,-0.155457,-0.995789,0.202454,0.426829,-2.012195,-0.731707
1548455095125,-0.153748,-0.992981,0.200684,0.426829,-2.012195,-0.243902
1548455095134,-0.153625,-0.991577,0.200012,0.182927,-2.073171,0.121951
1548455095148,-0.153320,-0.992371,0.202881,-0.060976,-2.073171,0.060976
1548455095155,-0.153931,-0.987488,0.202759,-0.060976,-2.195122,0.000000
1548455095162,-0.150452,-0.979431,0.199890,-0.060976,-2.134146,-0.121951
1548455095178,-0.151001,-0.982483,0.202454,-0.182927,-2.134146,-0.365854
1548455095185,-0.150818,-0.989502,0.202515,-0.060976,-2.195122,-0.670732
1548455095200,-0.152283,-0.988281,0.202026,0.365854,-2.195122,-0.975610
1548455095210,-0.154785,-0.990051,0.198303,0.304878,-2.073171,-1.097561
1548455095215,-0.155945,-0.994629,0.199219,-0.121951,-1.829268,-1.341463
1548455095223,-0.153870,-0.993103,0.200012,-0.426829,-1.707317,-1.341463
1548455095238,-0.156067,-0.994873,0.199707,-0.426829,-1.768293,-0.914634
1548455095245,-0.157776,-1.000061,0.203735,-0.548781,-1.707317,-0.792683
1548455095252,-0.156006,-1.000549,0.202026,-0.426829,-1.585366,-0.670732
1548455095267,-0.156860,-0.997253,0.200562,0.243902,-1.524390,-0.060976
1548455095274,-0.159485,-1.000122,0.202515,0.487805,-1.585366,0.304878
1548455095282,-0.158386,-1.003357,0.202332,0.426829,-1.524390,0.365854
1548455095297,-0.155334,-0.999329,0.202637,0.304878,-1.402439,0.792683
1548455095304,-0.153442,-0.998352,0.203979,0.060976,-1.280488,1.158537
1548455095312,-0.152039,-0.998474,0.201477,-0.243902,-1.036585,0.975610
1548455095329,-0.150574,-0.998352,0.200500,-0.243902,-0.914634,0.975610
1548455095335,-0.150879,-0.994873,0.199402,-0.182927,-0.914634,1.280488
1548455095343,-0.153809,-0.994263,0.198059,-0.121951,-0.975610,1.585366
1548455095357,-0.153320,-0.995117,0.196594,-0.060976,-0.914634,1.524390
1548455095365,-0.152344,-0.992615,0.196228,0.121951,-0.914634,1.707317
1548455095373,-0.151917,-0.987671,0.195618,0.365854,-0.975610,2.073171
1548455095388,-0.154724,-0.987244,0.194153,0.548781,-1.097561,2.073171
1548455095395,-0.155640,-0.992981,0.197632,0.487805,-1.036585,1.890244
1548455095402,-0.151245,-0.989624,0.194885,0.182927,-1.036585,1.951220
1548455095418,-0.154907,-0.987061,0.193787,-0.121951,-1.158537,2.134146
1548455095425,-0.154175,-0.990112,0.199341,-0.487805,-1.158537,2.012195
1548455095433,-0.152466,-0.992554,0.198486,-0.914634,-1.097561,1.707317
1548455095448,-0.151550,-0.986328,0.194458,-1.158537,-1.219512,1.951220
1548455095455,-0.155090,-0.983643,0.196838,-1.402439,-1.280488,1.951220
1548455095463,-0.158020,-0.987854,0.199646,-1.585366,-1.341463,1.524390
1548455095477,-0.158875,-0.988037,0.199646,-0.609756,-1.280488,1.402439
1548455095486,-0.160522,-0.985352,0.199219,0.365854,-1.280488,1.890244
1548455095493,-0.160583,-0.988586,0.198669,0.609756,-1.219512,1.646341
1548455095508,-0.157898,-0.992554,0.200317,0.670732,-1.097561,1.463415
1548455095516,-0.155823,-0.990784,0.197998,0.304878,-1.158537,1.829268
1548455095523,-0.160278,-0.986023,0.197998,-0.243902,-1.219512,1.951220
1548455095538,-0.161743,-0.987793,0.200745,-0.365854,-1.158537,1.646341
1548455095545,-0.158691,-0.989380,0.201294,-0.182927,-0.975610,1.463415
1548455095553,-0.158020,-0.982971,0.197876,0.304878,-0.975610,1.646341
1548455095568,-0.160706,-0.984619,0.199646,0.792683,-0.975610,1.768293
1548455095575,-0.164368,-0.994141,0.201721,1.097561,-0.914634,1.524390
1548455095582,-0.159851,-0.994385,0.201416,0.975610,-0.853659,1.341463
1548455095598,-0.156433,-0.984131,0.201599,0.365854,-0.853659,1.585366
1548455095605,-0.161926,-0.985352,0.195984,-0.121951,-0.731707,1.402439
1548455095613,-0.163391,-0.992920,0.197693,0.000000,-0.609756,1.036585
1548455095627,-0.159668,-0.990601,0.200867,0.609756,-0.548781,1.097561
1548455095642,-0.158813,-0.988281,0.199707,0.487805,-0.487805,1.463415
1548455095643,-0.160828,-0.992493,0.196228,0.121951,-0.426829,1.219512
1548455095658,-0.160156,-0.992554,0.194763,0.304878,-0.487805,1.219512
1548455095665,-0.160217,-0.989380,0.195801,0.670732,-0.487805,1.524390
1548455095673,-0.161621,-0.988647,0.196472,0.731707,-0.609756,1.646341
1548455095688,-0.161438,-0.990967,0.195374,0.670732,-0.609756,1.402439
1548455095695,-0.160950,-0.984192,0.192627,0.548781,-0.731707,1.280488
1548455095703,-0.162415,-0.981506,0.192200,0.609756,-0.731707,1.341463
1548455095717,-0.162476,-0.986694,0.192505,0.487805,-0.731707,1.402439
1548455095725,-0.157410,-0.986938,0.194397,0.487805,-0.731707,1.097561
1548455095732,-0.156128,-0.984863,0.195435,0.487805,-0.792683,1.036585
1548455095748,-0.156616,-0.987122,0.193848,0.243902,-0.853659,0.853659
1548455095755,-0.155151,-0.988220,0.193359,0.060976,-0.853659,0.548781
1548455095763,-0.160889,-0.988525,0.196106,0.304878,-0.975610,0.487805
1548455095777,-0.164673,-0.990784,0.195007,0.609756,-1.097561,0.548781
1548455095785,-0.168640,-0.990906,0.198120,0.487805,-1.036585,0.304878
1548455095793,-0.170837,-0.991638,0.197388,0.304878,-0.975610,0.365854
1548455095808,-0.168579,-0.990906,0.195557,0.243902,-1.158537,0.609756
1548455095815,-0.164185,-0.989929,0.196655,0.365854,-1.219512,0.670732
1548455095823,-0.162048,-0.991516,0.198547,0.365854,-1.280488,0.792683
1548455095838,-0.161377,-0.992554,0.199646,0.304878,-1.158537,0.853659
1548455095845,-0.160278,-0.985901,0.198608,0.182927,-1.097561,0.975610
1548455095860,-0.159729,-0.985596,0.196533,0.060976,-0.975610,1.280488
1548455095876,-0.164978,-0.988586,0.201355,0.243902,-0.731707,1.097561
1548455095876,-0.162292,-0.988403,0.201416,0.365854,-0.731707,1.158537
1548455095882,-0.162842,-0.985229,0.200989,0.487805,-0.731707,1.341463
1548455095898,-0.161987,-0.990906,0.204834,0.365854,-0.731707,1.097561
1548455095905,-0.161316,-0.997192,0.203064,0.365854,-0.609756,0.914634
1548455095913,-0.160339,-0.995728,0.203308,0.487805,-0.670732,1.036585
1548455095927,-0.164429,-0.998779,0.201599,0.426829,-0.670732,1.341463
1548455095942,-0.168701,-1.001648,0.201721,0.548781,-0.609756,1.402439
1548455095943,-0.171143,-1.003723,0.202637,0.670732,-0.365854,1.463415
1548455095957,-0.172424,-1.004517,0.202454,0.609756,-0.121951,1.951220
1548455095965,-0.171143,-1.006287,0.201599,0.487805,0.121951,2.378049
1548455095973,-0.167725,-1.007385,0.193665,0.304878,0.304878,2.743902
1548455095988,-0.164734,-1.011292,0.194580,0.121951,0.426829,3.292683
1548455095995,-0.168884,-1.010559,0.200745,0.060976,0.243902,3.902439
1548455096002,-0.167664,-1.009827,0.197388,0.365854,0.243902,4.573171
1548455096019,-0.170044,-1.006531,0.192810,0.670732,0.182927,5.243903
1548455096026,-0.174072,-1.011719,0.191833,0.975610,0.365854,5.792683
1548455096033,-0.175110,-1.011292,0.191406,1.097561,0.365854,6.280488
1548455096047,-0.174744,-1.011902,0.191589,0.975610,0.121951,6.829268
1548455096054,-0.175537,-1.012268,0.188965,0.548781,0.121951,7.256098
1548455096062,-0.175720,-1.011597,0.194214,0.365854,0.000000,7.682927
1548455096077,-0.179321,-1.009644,0.196655,0.365854,0.000000,8.353659
1548455096084,-0.178345,-1.012512,0.196167,0.304878,0.060976,8.841464
1548455096093,-0.179016,-1.014465,0.190552,0.243902,0.060976,9.390244
1548455096107,-0.182251,-1.010559,0.191406,0.426829,0.060976,10.121951
1548455096114,-0.185608,-1.005188,0.193176,0.609756,0.000000,11.097561
1548455096122,-0.186035,-1.005249,0.189941,0.609756,-0.182927,11.646341
1548455096138,-0.187134,-1.001587,0.191284,0.731707,-0.426829,12.134147
1548455096145,-0.189148,-1.000916,0.191833,1.036585,-0.548781,12.865854
1548455096153,-0.192078,-1.002258,0.193787,1.036585,-0.609756,13.231708
1548455096168,-0.192139,-0.994690,0.195679,1.097561,-0.975610,13.414635
1548455096175,-0.191589,-0.989807,0.195496,1.219512,-1.158537,13.780488
1548455096183,-0.194702,-0.993164,0.197144,1.524390,-1.219512,14.024390
1548455096198,-0.198914,-0.992065,0.200928,1.768293,-1.097561,14.024390
1548455096205,-0.204285,-0.988037,0.200500,1.890244,-0.975610,14.390244
1548455096213,-0.211243,-0.985474,0.203552,1.768293,-0.853659,14.695123
1548455096228,-0.212097,-0.985596,0.207153,1.280488,-0.670732,14.573171
1548455096235,-0.213806,-0.977356,0.205627,0.792683,-0.365854,14.573171
1548455096242,-0.214050,-0.977722,0.205627,0.670732,-0.060976,14.817074
1548455096258,-0.213501,-0.982300,0.208679,0.853659,0.060976,14.756098
1548455096266,-0.217285,-0.975342,0.210571,1.219512,0.121951,15.000000
1548455096273,-0.222168,-0.973572,0.213501,1.341463,0.182927,15.365854
1548455096288,-0.226074,-0.977722,0.211243,1.707317,0.487805,15.060976
1548455096295,-0.227844,-0.976685,0.210205,1.951220,0.670732,14.878049
1548455096303,-0.229614,-0.984192,0.211060,1.646341,0.853659,15.121951
1548455096318,-0.232300,-0.982483,0.206909,-0.121951,1.036585,14.939025
1548455096325,-0.230835,-0.979431,0.206970,-2.560976,1.585366,14.756098
1548455096333,-0.232788,-0.977295,0.205261,-2.743902,2.073171,14.939025
1548455096347,-0.241943,-0.981934,0.206360,-1.402439,2.134146,15.182927
1548455096354,-0.244202,-0.978088,0.204041,-0.914634,2.134146,15.304878
1548455096426,-0.247925,-0.974915,0.203735,-0.487805,2.682927,15.365854
1548455096426,-0.252319,-0.975586,0.202942,0.487805,2.682927,15.548780
1548455096427,-0.254395,-0.981873,0.207214,1.280488,2.804878,15.670732
1548455096427,-0.254089,-0.984924,0.199890,2.195122,2.926829,15.792684
1548455096427,-0.253479,-0.985596,0.199341,2.378049,3.048780,16.158537
1548455096427,-0.253845,-0.982971,0.200562,2.073171,3.231707,16.402439
1548455096427,-0.257568,-0.980225,0.199585,2.195122,3.353659,16.768293
1548455096437,-0.264893,-0.984863,0.197876,2.195122,3.475610,17.134148
1548455096444,-0.270569,-0.983215,0.196045,1.768293,3.780488,17.195122
1548455096452,-0.272949,-0.979126,0.193542,1.341463,3.902439,17.500000
1548455096467,-0.273926,-0.978943,0.196411,1.402439,3.902439,17.865854
1548455096475,-0.278076,-0.979614,0.195068,1.890244,3.902439,18.048780
1548455096482,-0.278503,-0.979492,0.194946,2.500000,3.841464,18.475611
1548455096497,-0.281006,-0.983398,0.196472,2.560976,3.719512,18.841463
1548455096505,-0.280396,-0.982910,0.193542,2.134146,3.841464,19.024391
1548455096512,-0.285217,-0.981262,0.190002,1.890244,3.841464,19.512196
1548455096527,-0.292542,-0.984741,0.190002,2.012195,3.780488,20.060976
1548455096534,-0.301575,-0.982178,0.192383,2.378049,3.597561,20.487804
1548455096542,-0.304138,-0.974182,0.191528,2.012195,3.414634,21.097561
1548455096564,-0.307312,-0.969666,0.192139,1.341463,3.353659,21.463415
1548455096565,-0.308655,-0.969604,0.189575,0.792683,3.414634,21.463415
1548455096572,-0.311035,-0.966248,0.187256,0.975610,3.292683,21.707317
1548455096587,-0.311829,-0.968201,0.187134,1.280488,3.109756,22.012196
1548455096594,-0.311646,-0.965698,0.187866,1.280488,2.926829,22.073172
1548455096602,-0.317932,-0.958801,0.188354,1.219512,2.682927,22.560976
1548455096617,-0.321838,-0.961914,0.192383,1.402439,2.439024,23.109756
1548455096625,-0.323486,-0.956421,0.190857,1.890244,2.317073,22.987806
1548455096633,-0.331299,-0.952698,0.189270,2.134146,2.134146,23.414635
1548455096647,-0.336487,-0.961304,0.191772,1.829268,2.134146,23.597561
1548455096655,-0.333191,-0.956604,0.190063,1.463415,2.012195,23.475611
1548455096663,-0.339417,-0.953308,0.195496,1.341463,1.768293,23.963415
1548455096678,-0.346924,-0.949158,0.198181,1.158537,1.585366,24.085367
1548455096685,-0.353455,-0.942078,0.197205,1.402439,1.402439,23.902439
1548455096693,-0.361450,-0.940002,0.201416,1.768293,1.280488,24.085367
1548455096708,-0.366333,-0.938171,0.199219,2.073171,1.341463,23.841463
1548455096715,-0.368774,-0.939392,0.192200,1.829268,1.402439,23.658537
1548455096723,-0.366760,-0.937561,0.195557,1.219512,1.585366,23.414635
1548455096738,-0.366699,-0.932922,0.195801,1.036585,1.524390,23.292683
1548455096745,-0.371094,-0.933411,0.200989,1.158537,1.646341,23.353659
1548455096753,-0.375061,-0.934265,0.204956,1.463415,1.768293,23.170732
1548455096768,-0.381226,-0.929443,0.204163,1.890244,1.951220,23.048780
1548455096776,-0.389465,-0.920532,0.200073,1.951220,2.073171,23.109756
1548455096783,-0.396667,-0.919250,0.197998,1.646341,2.256098,23.048780
1548455096798,-0.400574,-0.918152,0.201965,1.280488,2.317073,22.621952
1548455096805,-0.406006,-0.909607,0.201538,1.524390,2.317073,22.500000
1548455096813,-0.406982,-0.911499,0.204712,1.646341,2.500000,22.682928
1548455096828,-0.405029,-0.909363,0.202942,1.768293,2.743902,22.256098
1548455096835,-0.408264,-0.903503,0.208557,2.195122,2.926829,21.707317
1548455096843,-0.411194,-0.905640,0.212952,2.256098,3.231707,21.280489
1548455096858,-0.414062,-0.900085,0.211060,2.134146,3.536585,20.426830
1548455096865,-0.418945,-0.893616,0.208862,1.951220,3.963415,19.939024
1548455096873,-0.423889,-0.897827,0.209656,1.768293,4.207317,19.390244
1548455096887,-0.424255,-0.899719,0.209412,2.012195,4.390244,18.597561
1548455096895,-0.426208,-0.900818,0.205139,2.865854,4.634146,18.475611
1548455096903,-0.429504,-0.902588,0.200745,3.170732,4.756098,18.414635
1548455096917,-0.435425,-0.902344,0.205200,3.170732,4.939024,18.109756
1548455096925,-0.440125,-0.898621,0.213318,2.804878,5.060976,17.926830
1548455096932,-0.443298,-0.897705,0.213074,2.621951,5.304878,17.621952
1548455096948,-0.446716,-0.898621,0.208374,2.804878,5.548780,17.500000
1548455096955,-0.450745,-0.898987,0.204285,2.926829,5.792683,17.134148
1548455096962,-0.454041,-0.896362,0.198730,2.987805,5.975610,16.951220
1548455096977,-0.452515,-0.897705,0.198303,2.926829,6.097561,16.829269
1548455096985,-0.451782,-0.896545,0.194702,2.804878,6.219512,16.524391
1548455096993,-0.454529,-0.893372,0.194214,3.048780,6.280488,16.585365
1548455097007,-0.458496,-0.900208,0.198486,2.987805,6.158537,16.524391
1548455097016,-0.460999,-0.902710,0.195740,3.292683,6.280488,15.914635
1548455097023,-0.465881,-0.898865,0.187988,3.658537,6.280488,16.158537
1548455097037,-0.470215,-0.900085,0.185852,3.414634,6.280488,16.524391
1548455097045,-0.471436,-0.900391,0.187256,3.109756,6.158537,16.219513
1548455097053,-0.476746,-0.898132,0.190735,2.926829,5.975610,16.341463
1548455097075,-0.478760,-0.903503,0.191223,2.621951,5.731708,16.829269
1548455097075,-0.478760,-0.906677,0.184998,2.500000,5.609756,16.829269
1548455097083,-0.481689,-0.902222,0.185486,2.134146,5.548780,16.951220
1548455097098,-0.485474,-0.888428,0.183594,0.670732,5.304878,17.378050
1548455097105,-0.488770,-0.883850,0.184875,-1.341463,5.487805,17.134148
1548455097112,-0.490967,-0.874451,0.178528,-1.829268,5.365854,16.707317
1548455097127,-0.493896,-0.872070,0.179138,-0.548781,5.182927,16.890244
1548455097135,-0.496948,-0.869629,0.181519,0.609756,4.817073,16.768293
1548455097143,-0.495300,-0.870178,0.178894,1.524390,4.573171,16.402439
1548455097158,-0.494629,-0.871094,0.174744,2.256098,4.268293,16.097561
1548455097165,-0.496399,-0.870605,0.179016,2.378049,3.841464,15.792684
1548455097180,-0.500488,-0.861450,0.182251,1.768293,3.353659,15.365854
1548455097188,-0.506348,-0.854797,0.181641,0.853659,3.048780,14.939025
1548455097195,-0.508667,-0.849915,0.177429,0.365854,3.048780,14.207317
1548455097203,-0.510132,-0.843872,0.176270,0.792683,2.926829,13.597561
1548455097217,-0.511108,-0.845337,0.174072,1.219512,2.621951,12.987805
1548455097225,-0.512085,-0.841248,0.176758,1.097561,2.195122,12.134147
1548455097233,-0.510803,-0.832886,0.177246,0.731707,1.890244,11.402439
1548455097248,-0.513245,-0.829590,0.175232,0.060976,1.585366,10.609756
1548455097255,-0.515625,-0.831970,0.179993,-0.243902,1.280488,9.207317
1548455097263,-0.518677,-0.828552,0.178467,-0.243902,0.914634,8.048780
1548455097278,-0.521973,-0.825439,0.177185,-0.182927,0.548781,7.195122
1548455097285,-0.523438,-0.833008,0.178162,0.060976,0.243902,6.097561
1548455097292,-0.524048,-0.836792,0.179810,0.304878,-0.060976,4.878049
1548455097308,-0.521179,-0.832520,0.180908,0.487805,-0.609756,4.268293
1548455097315,-0.521729,-0.840759,0.184875,0.121951,-0.914634,3.597561
1548455097322,-0.521606,-0.844482,0.186401,-0.365854,-1.097561,2.317073
1548455097338,-0.520935,-0.845886,0.187683,-0.487805,-1.402439,1.463415
1548455097345,-0.524048,-0.848083,0.189331,-0.243902,-1.463415,0.975610
1548455097353,-0.529968,-0.850464,0.190430,0.304878,-1.524390,0.426829
1548455097368,-0.533386,-0.861511,0.193970,0.731707,-1.463415,-0.121951
1548455097375,-0.532959,-0.871643,0.196899,1.158537,-1.402439,-0.243902
1548455097383,-0.527222,-0.866455,0.191406,1.341463,-1.341463,0.060976
1548455097398,-0.526001,-0.867493,0.196106,0.792683,-1.097561,0.548781
1548455097405,-0.525574,-0.876099,0.195496,0.548781,-0.914634,0.426829
1548455097413,-0.524719,-0.874207,0.195862,0.731707,-0.792683,0.304878
1548455097428,-0.525635,-0.875061,0.197083,0.792683,-0.792683,0.731707
1548455097435,-0.529785,-0.879272,0.197632,0.548781,-0.487805,0.609756
1548455097443,-0.532532,-0.873901,0.191956,0.609756,-0.304878,0.426829
1548455097458,-0.536011,-0.872925,0.192322,1.158537,-0.182927,0.853659
1548455097466,-0.534180,-0.878357,0.189636,1.463415,-0.121951,0.853659
1548455097473,-0.529358,-0.871765,0.184143,1.524390,0.000000,0.609756
1548455097487,-0.527344,-0.870117,0.185608,1.097561,0.243902,1.036585
1548455097495,-0.522156,-0.872314,0.186584,0.609756,0.365854,0.975610
1548455097503,-0.519592,-0.870972,0.185364,0.121951,0.304878,0.731707
1548455097518,-0.520691,-0.866882,0.182739,0.000000,0.182927,0.853659
1548455097525,-0.523560,-0.862976,0.183716,0.060976,0.121951,0.731707
1548455097533,-0.529297,-0.862610,0.181885,0.304878,0.000000,0.426829
1548455097548,-0.530762,-0.863037,0.181824,0.365854,-0.121951,0.182927
1548455097555,-0.530823,-0.865784,0.184021,0.670732,-0.426829,0.243902
1548455097570,-0.529724,-0.866638,0.184265,0.792683,-0.487805,0.304878
1548455097578,-0.528076,-0.865601,0.182434,0.670732,-0.548781,0.121951
1548455097585,-0.527649,-0.867249,0.183411,0.426829,-0.670732,0.182927
1548455097593,-0.529419,-0.866394,0.186768,0.182927,-0.853659,0.060976
1548455097608,-0.532593,-0.865051,0.186523,-0.060976,-0.914634,-0.121951
1548455097615,-0.529236,-0.867249,0.183777,-0.365854,-0.975610,-0.121951
1548455097623,-0.528381,-0.868591,0.186768,-0.365854,-1.097561,-0.243902
1548455097638,-0.527588,-0.864746,0.188171,-0.182927,-1.036585,-0.182927
1548455097645,-0.524597,-0.859192,0.188721,0.000000,-0.975610,0.000000
1548455097652,-0.526550,-0.863831,0.190979,0.243902,-0.853659,-0.182927
1548455097668,-0.529236,-0.870667,0.193237,0.548781,-0.853659,-0.487805
1548455097675,-0.526367,-0.861267,0.190552,0.609756,-0.853659,-0.548781
1548455097683,-0.529968,-0.860657,0.186523,0.426829,-0.731707,-0.365854
1548455097698,-0.532471,-0.869385,0.193604,0.365854,-0.609756,-0.731707
1548455097707,-0.530701,-0.870422,0.195679,0.548781,-0.670732,-0.853659
1548455097713,-0.527893,-0.866028,0.193726,0.731707,-0.548781,-0.548781
1548455097727,-0.525085,-0.862305,0.191650,0.365854,-0.365854,-0.609756
1548455097742,-0.527100,-0.863708,0.190918,0.304878,-0.243902,-0.853659
1548455097742,-0.524231,-0.865234,0.188416,0.792683,0.000000,-0.914634
1548455097758,-0.523743,-0.864319,0.187805,1.158537,0.121951,-0.914634
1548455097765,-0.523926,-0.865540,0.189880,0.914634,0.000000,-1.036585
1548455097781,-0.523743,-0.870544,0.190491,0.609756,0.060976,-1.341463
1548455097787,-0.521484,-0.869507,0.192505,0.731707,-0.060976,-1.402439
1548455097795,-0.524841,-0.871033,0.188354,0.731707,-0.121951,-1.280488
1548455097803,-0.524170,-0.875671,0.182739,0.609756,-0.121951,-1.646341
1548455097818,-0.525452,-0.877869,0.185303,1.036585,-0.182927,-1.768293
1548455097826,-0.530518,-0.879700,0.184082,1.402439,-0.121951,-1.463415
1548455097832,-0.530762,-0.875610,0.182861,1.280488,-0.060976,-1.402439
1548455097847,-0.526733,-0.872192,0.178772,0.731707,0.060976,-1.219512
1548455097855,-0.523499,-0.874939,0.178406,0.060976,-0.060976,-1.158537
1548455097862,-0.518860,-0.869629,0.180237,0.000000,-0.121951,-1.280488
1548455097877,-0.517578,-0.871582,0.180969,-0.060976,-0.365854,-1.158537
1548455097885,-0.517517,-0.871460,0.183838,-0.670732,-0.609756,-1.402439
1548455097892,-0.517273,-0.864746,0.184692,-0.731707,-0.853659,-1.646341
1548455097907,-0.518433,-0.872131,0.185608,-0.426829,-0.914634,-1.402439
1548455097915,-0.520447,-0.874512,0.185791,0.000000,-1.219512,-1.707317
1548455097922,-0.524170,-0.869446,0.189270,0.548781,-1.341463,-1.524390
1548455097937,-0.527405,-0.875793,0.190369,0.731707,-1.463415,-1.036585
1548455097945,-0.526306,-0.876099,0.190918,0.853659,-1.646341,-1.280488
1548455097952,-0.524902,-0.872253,0.186768,0.548781,-1.463415,-0.975610
1548455097967,-0.525696,-0.873169,0.187195,0.060976,-1.219512,-0.792683
1548455097975,-0.523865,-0.867493,0.190735,-0.304878,-1.280488,-1.097561
1548455097982,-0.522827,-0.859497,0.190918,-0.731707,-1.097561,-0.914634
1548455097997,-0.523987,-0.859314,0.190857,-1.158537,-0.914634,-0.975610
1548455098005,-0.519470,-0.861084,0.190063,-0.914634,-0.670732,-1.463415
1548455098013,-0.514893,-0.859558,0.189331,-0.121951,-0.609756,-1.768293
1548455098028,-0.511292,-0.861694,0.188110,0.426829,-0.609756,-1.951220
1548455098035,-0.510193,-0.864868,0.187805,0.792683,-0.487805,-2.560976
1548455098043,-0.513977,-0.863953,0.183716,0.914634,-0.548781,-2.926829
1548455098058,-0.516907,-0.862671,0.187195,0.548781,-0.670732,-3.292683
1548455098065,-0.520081,-0.864136,0.184082,0.121951,-0.670732,-3.719512
1548455098073,-0.522217,-0.863098,0.182617,-0.121951,-0.853659,-3.902439
1548455098088,-0.521118,-0.861816,0.182678,-0.182927,-1.036585,-4.085366
1548455098095,-0.516296,-0.860291,0.182678,-0.426829,-1.097561,-4.329268
1548455098103,-0.513245,-0.862427,0.182190,-0.426829,-1.158537,-4.573171
1548455098118,-0.506653,-0.866150,0.182007,-0.060976,-1.158537,-4.817073
1548455098125,-0.506165,-0.867859,0.180237,0.304878,-1.463415,-5.121951
1548455098133,-0.506226,-0.864563,0.177551,0.243902,-1.768293,-5.365854
1548455098147,-0.506226,-0.867554,0.181152,-0.060976,-1.768293,-5.487805
1548455098155,-0.502014,-0.872498,0.182251,-0.304878,-1.768293,-5.792683
1548455098162,-0.501282,-0.869019,0.177979,-0.060976,-1.829268,-6.036585
1548455098178,-0.504517,-0.867737,0.181091,0.000000,-2.256098,-6.036585
1548455098186,-0.509094,-0.876160,0.186096,-0.426829,-2.256098,-6.707317
1548455098193,-0.506409,-0.875366,0.183716,-0.548781,-2.317073,-7.256098
1548455098208,-0.504333,-0.870300,0.181702,-0.365854,-2.682927,-6.951220
1548455098215,-0.504089,-0.876221,0.182373,-0.304878,-2.865854,-6.890244
1548455098223,-0.505066,-0.880737,0.180298,-0.182927,-3.048780,-7.743903
1548455098238,-0.503113,-0.881958,0.181335,-0.304878,-3.292683,-7.804878
1548455098245,-0.497131,-0.878235,0.182495,-0.731707,-3.414634,-7.804878
1548455098253,-0.493896,-0.868896,0.180237,-1.158537,-3.536585,-8.109756
1548455098268,-0.493286,-0.867859,0.179016,-1.646341,-3.719512,-8.536586
1548455098275,-0.491577,-0.876038,0.183777,-1.951220,-3.841464,-9.146341
1548455098282,-0.490662,-0.877869,0.188293,-1.646341,-3.963415,-9.634147
1548455098298,-0.488098,-0.873657,0.195374,-1.219512,-4.024390,-9.695122
1548455098305,-0.487610,-0.877502,0.187317,-0.853659,-3.902439,-10.121951
1548455098313,-0.486816,-0.880188,0.181458,-0.426829,-3.963415,-10.487805
1548455098329,-0.490662,-0.878723,0.181946,-0.121951,-4.024390,-10.670732
1548455098335,-0.487549,-0.872192,0.186829,-0.548781,-4.207317,-10.853659
1548455098343,-0.481567,-0.868225,0.187317,-1.463415,-4.329268,-11.158537
1548455098357,-0.477722,-0.875366,0.190857,-1.951220,-4.268293,-11.707317
1548455098365,-0.474121,-0.881836,0.190063,-1.768293,-4.146341,-12.560976
1548455098373,-0.471191,-0.877869,0.187927,-1.524390,-4.024390,-12.926829
1548455098387,-0.468628,-0.887512,0.189148,-1.402439,-4.085366,-13.048780
1548455098395,-0.467346,-0.889709,0.187500,-1.097561,-4.146341,-13.658537
1548455098402,-0.466309,-0.886047,0.191345,-0.731707,-4.268293,-13.719513
1548455098418,-0.466553,-0.881042,0.189392,-0.670732,-4.268293,-13.597561
1548455098426,-0.467346,-0.881531,0.189758,-0.670732,-4.146341,-14.146341
1548455098432,-0.463562,-0.886108,0.189758,-0.792683,-4.146341,-14.634147
1548455098448,-0.458679,-0.881897,0.191589,-0.609756,-4.207317,-15.060976
1548455098455,-0.452332,-0.888855,0.190308,-0.426829,-4.024390,-15.060976
1548455098463,-0.445129,-0.894409,0.187683,-0.487805,-3.963415,-15.792684
1548455098478,-0.443115,-0.889771,0.187744,-0.487805,-4.207317,-16.341463
1548455098485,-0.438171,-0.902466,0.192993,-0.670732,-4.146341,-16.280489
1548455098492,-0.436890,-0.910400,0.196167,-0.548781,-4.268293,-17.012196
1548455098508,-0.438171,-0.906372,0.196228,-0.243902,-4.390244,-17.317074
1548455098515,-0.442810,-0.908569,0.189209,-0.365854,-4.085366,-16.890244
1548455098523,-0.447144,-0.907043,0.184387,-0.853659,-3.963415,-17.073172
1548455098538,-0.444397,-0.906860,0.186768,-1.097561,-3.963415,-17.012196
1548455098545,-0.432373,-0.911621,0.189697,-1.219512,-4.146341,-16.707317
1548455098553,-0.420410,-0.914673,0.195740,-1.219512,-4.329268,-16.829269
1548455098568,-0.412170,-0.918457,0.194336,-1.280488,-4.329268,-17.073172
1548455098575,-0.411377,-0.920898,0.199463,-1.280488,-4.329268,-17.378050
1548455098583,-0.412964,-0.927673,0.200317,-1.097561,-4.085366,-17.439024
1548455098598,-0.416016,-0.924561,0.194702,-0.304878,-3.963415,-17.378050
1548455098613,-0.418457,-0.924988,0.189880,0.548781,-3.719512,-16.829269
1548455098613,-0.421387,-0.919128,0.189148,1.036585,-3.597561,-16.646341
1548455098628,-0.417358,-0.919739,0.197693,0.670732,-3.719512,-16.768293
1548455098635,-0.404419,-0.927795,0.202393,0.000000,-3.597561,-16.707317
1548455098642,-0.393860,-0.934387,0.199890,-0.060976,-3.597561,-16.707317
1548455098658,-0.390503,-0.936096,0.196167,-0.121951,-3.292683,-16.768293
1548455098665,-0.391846,-0.928162,0.194885,-0.121951,-2.987805,-16.829269
1548455098674,-0.395142,-0.919617,0.194031,-0.365854,-2.926829,-16.524391
1548455098688,-0.397583,-0.916870,0.192505,-0.304878,-2.682927,-16.585365
1548455098695,-0.392090,-0.920471,0.190857,0.975610,-2.682927,-16.707317
1548455098703,-0.386108,-0.914795,0.186646,3.048780,-2.926829,-16.707317
1548455098718,-0.380127,-0.919556,0.183350,3.048780,-2.926829,-17.073172
1548455098725,-0.371582,-0.918884,0.180786,1.402439,-2.926829,-18.292683
1548455098733,-0.364807,-0.920410,0.178162,-0.304878,-3.170732,-18.902439
1548455098748,-0.356995,-0.920715,0.176697,-1.707317,-3.536585,-19.573172
1548455098763,-0.360413,-0.924805,0.174805,-2.317073,-3.841464,-20.243902
1548455098771,-0.362244,-0.927856,0.173157,-2.500000,-4.451220,-20.670732
1548455098778,-0.362854,-0.929932,0.177917,-1.951220,-4.878049,-21.280489
1548455098785,-0.361084,-0.935425,0.179993,-1.341463,-5.304878,-21.219513
1548455098793,-0.354248,-0.935364,0.184082,-0.792683,-5.731708,-21.402439
1548455098808,-0.348694,-0.928345,0.187073,-0.487805,-6.036585,-21.646341
1548455098815,-0.340332,-0.953064,0.189087,0.670732,-6.036585,-21.707317
1548455098823,-0.335571,-0.954346,0.187927,2.987805,-6.463415,-22.012196
1548455098838,-0.337646,-0.962341,0.192322,3.902439,-6.646342,-21.402439
1548455098845,-0.333008,-0.972412,0.193298,2.743902,-6.707317,-21.463415
1548455098853,-0.328430,-0.974731,0.198792,1.524390,-6.707317,-21.341463
1548455098868,-0.324280,-0.981812,0.201965,-0.060976,-6.768293,-20.426830
1548455098875,-0.321533,-0.986572,0.204773,-1.707317,-6.524390,-20.060976
1548455098883,-0.324524,-0.978699,0.204590,-2.621951,-6.280488,-19.329269
1548455098898,-0.326904,-0.974976,0.208801,-2.926829,-5.975610,-18.536585
1548455098905,-0.320923,-0.983826,0.213074,-2.743902,-5.853659,-18.170732
1548455098913,-0.313782,-0.977051,0.208984,-1.890244,-5.670732,-17.804878
1548455098928,-0.308838,-0.968506,0.210632,-1.402439,-5.609756,-16.829269
1548455098935,-0.304138,-0.974060,0.212036,-1.280488,-5.182927,-16.585365
1548455098943,-0.301941,-0.968567,0.206909,-0.914634,-4.878049,-16.890244
1548455098958,-0.300537,-0.968689,0.207275,-0.792683,-4.390244,-16.280489
1548455098965,-0.297241,-0.972900,0.207825,-1.097561,-3.841464,-16.219513
1548455098973,-0.293579,-0.967834,0.205750,-0.914634,-3.536585,-16.341463
1548455098988,-0.295227,-0.966675,0.203674,-1.097561,-3.292683,-15.731708
1548455098995,-0.295288,-0.975525,0.204468,-1.280488,-2.987805,-15.670732
1548455099002,-0.290710,-0.978699,0.204468,-1.463415,-2.804878,-15.975610
1548455099025,-0.282959,-0.968140,0.196899,-1.219512,-2.621951,-15.243903
1548455099025,-0.281494,-0.962769,0.195129,-1.036585,-2.500000,-14.634147
1548455099033,-0.283813,-0.962158,0.195374,-1.036585,-2.500000,-14.756098
1548455099047,-0.282043,-0.965271,0.198730,-0.914634,-2.621951,-15.000000
1548455099055,-0.275024,-0.971680,0.202393,-0.914634,-2.621951,-14.817074
1548455099063,-0.267334,-0.965393,0.198669,-0.975610,-2.378049,-14.939025
1548455099077,-0.266357,-0.961182,0.192566,-1.097561,-2.134146,-14.878049
1548455099085,-0.262878,-0.974548,0.190125,-0.975610,-2.073171,-15.182927
1548455099093,-0.257568,-0.987061,0.196960,-0.548781,-2.134146,-15.426829
1548455099108,-0.250916,-0.987549,0.197998,-0.426829,-2.134146,-14.878049
1548455099115,-0.253723,-0.980103,0.194336,-0.914634,-2.134146,-14.512196
1548455099123,-0.259277,-0.978760,0.192383,-1.158537,-2.195122,-14.207317
1548455099137,-0.265015,-0.983521,0.193054,-0.487805,-2.073171,-14.024390
1548455099145,-0.260010,-0.988647,0.192566,0.060976,-2.256098,-13.719513
1548455099153,-0.250244,-0.988708,0.193481,0.243902,-2.256098,-13.170732
1548455099168,-0.245117,-0.992493,0.196716,0.060976,-2.195122,-12.865854
1548455099175,-0.238403,-0.998596,0.195312,-0.426829,-2.195122,-12.500000
1548455099183,-0.235840,-0.992798,0.190125,-1.036585,-2.195122,-12.256098
1548455099198,-0.236755,-0.985962,0.188599,-1.036585,-2.195122,-11.707317
1548455099206,-0.241821,-0.984863,0.187378,-0.670732,-2.256098,-11.280488
1548455099213,-0.238953,-0.984680,0.194885,-0.548781,-2.378049,-11.219512
1548455099228,-0.234558,-0.979492,0.192017,-0.304878,-2.439024,-11.036586
1548455099235,-0.233154,-0.969177,0.184814,-0.304878,-2.439024,-10.853659
1548455099243,-0.232849,-0.970032,0.182434,-0.792683,-2.378049,-10.914635
1548455099258,-0.229004,-0.976868,0.187561,-1.219512,-2.317073,-11.341464
1548455099265,-0.220642,-0.973572,0.189941,-0.914634,-2.743902,-11.585366
1548455099273,-0.216736,-0.968323,0.188171,-0.670732,-2.865854,-11.219512
1548455099288,-0.216553,-0.968994,0.189941,-0.731707,-2.987805,-11.402439
1548455099295,-0.219238,-0.970276,0.191040,-0.975610,-3.048780,-12.073171
1548455099302,-0.216370,-0.973938,0.194092,-1.097561,-3.292683,-12.378049
1548455099318,-0.211426,-0.972778,0.198975,-0.975610,-3.353659,-12.560976
1548455099325,-0.209106,-0.962402,0.193298,-0.914634,-3.231707,-12.560976
1548455099333,-0.206787,-0.974731,0.193481,0.243902,-2.926829,-12.865854
1548455099348,-0.204895,-0.983032,0.197388,3.658537,-3.231707,-13.170732
1548455099356,-0.207764,-0.992493,0.202332,5.670732,-3.414634,-12.804878
1548455099363,-0.203674,-0.990173,0.200684,4.512195,-3.231707,-12.804878
1548455099378,-0.208435,-0.985229,0.198364,2.621951,-2.865854,-12.743903
1548455099385,-0.206726,-0.987610,0.199524,0.609756,-2.804878,-12.621951
1548455099393,-0.202942,-0.990540,0.202393,-0.609756,-2.621951,-12.987805
1548455099408,-0.197754,-0.989990,0.199219,-1.219512,-2.378049,-12.865854
1548455099415,-0.193542,-0.986145,0.198181,-1.158537,-2.134146,-12.560976
1548455099423,-0.188538,-0.992554,0.200500,-0.487805,-1.707317,-12.195122
1548455099437,-0.187988,-0.997803,0.202942,0.304878,-1.707317,-12.134147
1548455099445,-0.184265,-0.996094,0.201477,0.670732,-1.585366,-11.829268
1548455099453,-0.183105,-0.990295,0.195496,0.121951,-1.280488,-11.646341
