timestamp, accel_x, accel_y, accel_z, gyro_x, gyro_y, gyro_z
1548456992555,-1.030884,-0.000061,-0.163452,-2.987805,-1.463415,3.658537
1548456992562,-1.037537,0.004456,-0.164185,-3.719512,-1.585366,4.024390
1548456992577,-1.030396,0.007202,-0.162903,-4.085366,-1.402439,4.146341
1548456992585,-1.026611,0.008911,-0.165649,-4.085366,-1.280488,4.329268
1548456992593,-1.015564,0.010010,-0.164795,-3.963415,-1.646341,4.512195
1548456992607,-1.018860,0.015259,-0.158875,-4.024390,-1.341463,4.146341
1548456992616,-1.022034,0.016968,-0.163818,-3.841464,-0.731707,2.865854
1548456992622,-1.011169,0.014221,-0.163635,-2.987805,-1.585366,3.231707
1548456992637,-1.010498,0.017456,-0.157471,-3.414634,-1.951220,3.475610
1548456992646,-0.999207,0.015076,-0.161804,-3.475610,-0.670732,2.073171
1548456992652,-1.013794,0.018616,-0.155945,-3.292683,-0.548781,0.731707
1548456992668,-1.028015,0.020935,-0.157227,-3.170732,-1.829268,-0.243902
1548456992675,-1.031860,0.022766,-0.155579,-2.560976,-2.804878,0.792683
1548456992682,-1.017273,0.020386,-0.155212,-2.317073,-2.256098,1.890244
1548456992698,-1.009583,0.016663,-0.157471,-2.012195,-1.280488,2.012195
1548456992705,-1.014221,0.015869,-0.156982,-1.951220,-1.280488,0.731707
1548456992712,-1.036865,0.014587,-0.152100,-1.707317,-1.585366,-0.670732
1548456992728,-1.044434,0.014954,-0.151794,-1.341463,-2.134146,-0.548781
1548456992735,-1.041077,0.010681,-0.160767,-1.219512,-1.219512,0.975610
1548456992742,-1.030029,0.005371,-0.166138,-1.524390,0.182927,2.439024
1548456992757,-1.027649,0.008667,-0.160645,-1.951220,0.548781,3.353659
1548456992765,-1.024231,0.016724,-0.159912,-2.439024,-0.121951,2.865854
1548456992773,-1.019958,0.020935,-0.160461,-2.560976,-0.792683,1.585366
1548456992788,-1.018127,0.016846,-0.161072,-2.743902,-0.914634,0.000000
1548456992795,-1.019836,0.012146,-0.161621,-2.743902,-0.609756,-1.036585
1548456992803,-1.024414,0.014954,-0.159363,-2.621951,-0.548781,-1.402439
1548456992818,-1.024231,0.017822,-0.158264,-2.621951,-0.121951,-1.402439
1548456992825,-1.023071,0.022278,-0.164001,-2.682927,-0.060976,-1.402439
1548456992832,-1.022095,0.025024,-0.166504,-2.743902,-0.365854,-1.585366
1548456992848,-1.025269,0.024902,-0.165771,-2.621951,-0.914634,-1.890244
1548456992855,-1.024719,0.022705,-0.163330,-2.195122,-1.158537,-2.256098
1548456992862,-1.022766,0.018005,-0.161865,-1.585366,-1.219512,-2.500000
1548456992878,-1.021667,0.012390,-0.161011,-0.853659,-1.280488,-2.560976
1548456992885,-1.021545,0.006714,-0.158691,-0.243902,-1.402439,-2.378049
1548456992892,-1.016052,0.007507,-0.154846,0.121951,-1.402439,-2.256098
1548456992907,-1.023499,0.004333,-0.157898,0.182927,-1.158537,-2.256098
1548456992915,-1.044739,0.007263,-0.152649,-0.182927,-1.280488,-2.621951
1548456992923,-1.040466,0.014404,-0.154541,-0.853659,-1.829268,-1.463415
1548456992937,-1.030273,0.012207,-0.166809,-1.402439,-0.670732,-0.792683
1548456992945,-1.027649,0.012695,-0.165894,-2.500000,-0.243902,-0.975610
1548456992953,-1.030762,0.015808,-0.164246,-3.170732,-1.280488,-1.402439
1548456992968,-1.029724,0.020752,-0.163147,-3.536585,-2.073171,-1.890244
1548456992975,-1.032837,0.021973,-0.158447,-3.658537,-2.195122,-2.256098
1548456992982,-1.034668,0.020996,-0.150940,-3.475610,-2.195122,-2.317073
1548456992997,-1.030396,0.022034,-0.151367,-2.804878,-1.890244,-1.707317
1548456993005,-1.028870,0.024170,-0.151001,-2.317073,-1.463415,-1.280488
1548456993012,-1.029785,0.025452,-0.151489,-1.890244,-1.097561,-1.097561
1548456993027,-1.027710,0.024353,-0.150757,-1.341463,-0.975610,-0.914634
1548456993035,-1.028015,0.022339,-0.151672,-0.548781,-1.036585,-0.670732
1548456993043,-1.027832,0.017517,-0.146606,0.182927,-1.158537,-0.426829
1548456993057,-1.030457,0.013733,-0.145569,0.853659,-1.036585,-0.182927
1548456993065,-1.031372,0.013916,-0.144714,1.463415,-0.670732,0.000000
1548456993073,-1.028992,0.013489,-0.142883,1.890244,-0.121951,0.121951
1548456993087,-1.029297,0.010803,-0.141785,2.256098,0.182927,0.243902
1548456993095,-1.029602,0.010376,-0.141541,2.621951,0.121951,0.243902
1548456993102,-1.030396,0.014954,-0.141052,2.926829,0.243902,0.365854
1548456993117,-1.031555,0.014221,-0.145508,3.292683,0.426829,0.487805
1548456993125,-1.035034,0.015564,-0.146484,3.353659,0.670732,0.609756
1548456993132,-1.034668,0.015381,-0.151978,3.414634,1.097561,0.792683
1548456993148,-1.037415,0.012756,-0.156494,3.353659,1.524390,0.792683
1548456993155,-1.040344,0.006836,-0.160583,3.292683,1.707317,0.853659
1548456993163,-1.043640,0.004578,-0.159363,3.353659,1.768293,1.097561
1548456993177,-1.045349,0.004456,-0.159668,3.353659,1.951220,1.280488
1548456993185,-1.046204,0.006287,-0.159668,3.292683,2.012195,1.402439
1548456993192,-1.042603,0.007080,-0.159729,3.292683,1.951220,1.341463
1548456993207,-1.043823,0.008850,-0.161499,3.353659,1.646341,1.280488
1548456993215,-1.044495,0.008972,-0.165405,3.170732,1.219512,1.341463
1548456993222,-1.041077,0.007507,-0.168457,2.804878,0.914634,1.463415
1548456993237,-1.041748,0.009399,-0.170593,2.317073,0.731707,1.646341
1548456993245,-1.037720,0.009644,-0.172729,1.463415,0.426829,1.890244
1548456993253,-1.033936,0.008057,-0.171936,0.609756,0.243902,2.134146
1548456993268,-1.030151,0.009705,-0.173584,0.060976,0.000000,2.195122
1548456993275,-1.022400,0.013123,-0.170593,-0.121951,-0.060976,2.256098
1548456993283,-1.014099,0.014465,-0.165161,0.426829,0.243902,2.743902
1548456993297,-1.011841,0.016663,-0.162476,1.341463,0.000000,3.048780
1548456993305,-1.006287,0.018799,-0.164429,1.707317,-0.365854,3.048780
1548456993312,-1.003906,0.019287,-0.166199,1.890244,-0.731707,2.987805
1548456993327,-1.001221,0.015015,-0.168762,1.707317,-1.097561,3.048780
1548456993335,-0.996582,0.013733,-0.171204,1.219512,-1.585366,2.987805
1548456993342,-0.995667,0.008057,-0.171692,0.670732,-1.829268,2.743902
1548456993357,-0.998718,0.005249,-0.171875,0.243902,-2.134146,2.804878
1548456993365,-1.002197,0.006287,-0.168640,-0.060976,-2.500000,2.865854
1548456993372,-1.003052,0.009827,-0.172607,-0.548781,-2.926829,2.804878
1548456993387,-1.003235,0.009705,-0.179688,-0.975610,-3.414634,2.621951
1548456993395,-1.011414,0.010193,-0.179260,-1.402439,-4.024390,2.256098
1548456993403,-1.018677,0.011536,-0.176331,-2.012195,-4.573171,2.012195
1548456993418,-1.026733,0.015869,-0.177673,-2.500000,-4.817073,1.707317
1548456993425,-1.032043,0.019470,-0.176453,-3.048780,-4.878049,1.341463
1548456993433,-1.032776,0.021240,-0.171021,-3.536585,-4.878049,1.036585
1548456993448,-1.034851,0.021362,-0.168945,-3.658537,-4.573171,0.853659
1548456993455,-1.035889,0.023743,-0.166626,-3.414634,-4.085366,0.609756
1548456993463,-1.039551,0.030640,-0.161621,-2.804878,-3.780488,0.426829
1548456993478,-1.039062,0.030579,-0.162903,-2.073171,-3.414634,0.487805
1548456993485,-1.038818,0.029236,-0.160461,-1.463415,-2.743902,0.487805
1548456993493,-1.038208,0.028320,-0.155273,-0.670732,-2.317073,0.182927
1548456993507,-1.031860,0.022278,-0.151978,0.182927,-2.073171,-0.060976
1548456993515,-1.036682,0.023376,-0.144226,0.670732,-1.585366,-0.121951
1548456993522,-1.034302,0.029480,-0.147034,1.219512,-0.548781,-0.609756
1548456993538,-1.024902,0.025757,-0.152344,2.134146,0.731707,-0.792683
1548456993545,-1.018616,0.016785,-0.154968,2.500000,1.646341,-0.731707
1548456993552,-1.019775,0.015198,-0.152283,2.500000,1.951220,-0.853659
1548456993568,-1.022278,0.015198,-0.153015,2.804878,2.195122,-0.792683
1548456993575,-1.021362,0.016602,-0.158325,2.439024,3.048780,-1.219512
1548456993582,-1.015320,0.010864,-0.170593,1.890244,3.719512,-1.341463
1548456993597,-1.016235,0.002686,-0.180359,1.036585,3.658537,-1.097561
1548456993605,-1.023926,0.005066,-0.176147,-0.487805,3.109756,-0.853659
1548456993612,-1.024536,0.009949,-0.178833,-1.463415,3.170732,-0.914634
1548456993627,-1.021301,0.010498,-0.180054,-2.073171,3.231707,-1.402439
1548456993635,-1.021240,0.005798,-0.176392,-2.621951,2.560976,-2.073171
1548456993643,-1.024902,0.004333,-0.171631,-2.743902,1.768293,-2.012195
1548456993658,-1.026001,0.007080,-0.169067,-2.682927,1.463415,-1.707317
1548456993665,-1.024780,0.008606,-0.172058,-2.743902,1.585366,-1.280488
1548456993672,-1.031250,0.013916,-0.164124,-2.743902,1.158537,-0.853659
1548456993687,-1.035706,0.020691,-0.158264,-2.804878,0.365854,-0.426829
1548456993695,-1.034668,0.024353,-0.156982,-2.256098,0.243902,-0.426829
1548456993702,-1.034485,0.024719,-0.151489,-1.585366,0.243902,-0.914634
1548456993717,-1.036682,0.023438,-0.147461,-0.792683,-0.060976,-1.158537
1548456993725,-1.034363,0.027283,-0.146545,0.304878,0.060976,-1.097561
1548456993733,-1.029358,0.026611,-0.147644,1.280488,0.487805,-1.036585
1548456993747,-1.026733,0.023438,-0.151428,2.012195,0.731707,-1.036585
1548456993755,-1.024780,0.014465,-0.151672,2.865854,0.853659,-0.853659
1548456993762,-1.029053,0.015869,-0.145142,3.109756,0.853659,-0.365854
1548456993777,-1.027527,0.016235,-0.148010,3.048780,1.219512,-0.182927
1548456993785,-1.022766,0.013733,-0.152100,2.987805,2.134146,-0.487805
1548456993792,-1.016663,0.003052,-0.156372,2.926829,2.682927,-0.914634
1548456993807,-1.023315,-0.000854,-0.153992,2.743902,2.804878,-1.341463
1548456993815,-1.027344,0.000366,-0.160828,2.256098,2.987805,-2.012195
1548456993822,-1.022644,-0.006104,-0.172058,2.134146,2.926829,-1.829268
1548456993837,-1.020386,-0.007629,-0.169739,1.280488,1.158537,-0.121951
1548456993845,-1.014526,-0.007446,-0.170471,-0.304878,1.036585,0.426829
1548456993853,-1.017090,-0.003296,-0.175903,-1.158537,1.280488,-0.304878
1548456993867,-1.020020,0.003967,-0.182495,-2.195122,-0.304878,-1.036585
1548456993875,-1.021912,0.006104,-0.178833,-2.926829,-0.975610,-1.097561
1548456993882,-1.024414,0.010498,-0.175293,-2.378049,-1.036585,-0.975610
1548456993897,-1.023987,0.013062,-0.172974,-1.768293,-1.158537,-1.219512
1548456993905,-1.024292,0.016174,-0.168274,-1.463415,-1.341463,-1.402439
1548456993912,-1.026245,0.021790,-0.165833,-0.914634,-1.890244,-1.402439
1548456993928,-1.026367,0.030762,-0.164124,-0.243902,-2.317073,-1.585366
1548456993935,-1.028076,0.029907,-0.161499,0.670732,-2.560976,-1.768293
1548456993943,-1.028076,0.028564,-0.161682,2.134146,-2.804878,-1.890244
1548456993957,-1.025024,0.026306,-0.164856,3.658537,-2.987805,-1.951220
1548456993965,-1.019775,0.021057,-0.168518,4.634146,-2.804878,-2.012195
1548456993972,-1.018188,0.013367,-0.169434,4.756098,-2.804878,-1.951220
1548456993987,-1.017456,0.011292,-0.170593,4.573171,-3.109756,-1.951220
1548456993995,-1.019592,0.010376,-0.170166,4.329268,-3.841464,-1.768293
1548456994002,-1.022278,0.010681,-0.165405,3.963415,-4.146341,-1.646341
1548456994017,-1.021240,0.011169,-0.164368,3.780488,-4.268293,-1.646341
1548456994025,-1.021851,0.011230,-0.164368,3.597561,-4.634146,-1.646341
1548456994040,-1.024719,0.011658,-0.160522,3.597561,-4.878049,-1.524390
1548456994048,-1.022095,0.011108,-0.159058,3.536585,-4.817073,-1.219512
1548456994055,-1.010620,0.014526,-0.152771,3.292683,-4.634146,-1.097561
1548456994062,-1.016113,0.015625,-0.153503,2.987805,-4.024390,-1.585366
1548456994078,-1.036072,0.009033,-0.157654,2.926829,-3.170732,-3.475610
1548456994086,-1.026062,0.007019,-0.153137,3.414634,-5.000000,-2.012195
1548456994093,-1.021301,0.006592,-0.149841,2.560976,-5.548780,-0.182927
1548456994108,-1.024963,0.005737,-0.151917,1.890244,-2.987805,-1.402439
1548456994115,-1.037659,0.007812,-0.153503,2.500000,-3.292683,-1.585366
1548456994122,-1.041992,0.005127,-0.155945,2.256098,-4.451220,-1.219512
1548456994138,-1.033447,0.001038,-0.158997,1.890244,-3.109756,-1.524390
1548456994145,-1.028137,0.000732,-0.162842,1.829268,-2.195122,-1.463415
1548456994152,-1.040222,-0.006531,-0.166565,1.707317,-2.439024,-1.402439
1548456994167,-1.050720,-0.005920,-0.163086,1.280488,-2.926829,-1.036585
1548456994175,-1.037170,-0.001953,-0.168518,0.914634,-2.500000,-0.243902
1548456994182,-1.027771,-0.001892,-0.172424,0.792683,-1.402439,-0.121951
1548456994198,-1.032349,-0.007385,-0.171875,0.487805,-1.707317,-0.243902
1548456994205,-1.036011,-0.007874,-0.167725,0.121951,-2.621951,0.121951
1548456994212,-1.036743,-0.005981,-0.163391,-0.365854,-2.621951,0.487805
1548456994228,-1.033386,-0.006165,-0.161377,-0.731707,-2.073171,0.487805
1548456994235,-1.027832,-0.006897,-0.157104,-0.670732,-1.951220,0.487805
1548456994242,-1.028809,-0.003967,-0.152588,-0.670732,-2.073171,0.365854
1548456994257,-1.028015,0.002136,-0.146240,-0.548781,-2.134146,0.304878
1548456994265,-1.027527,0.007080,-0.147034,-0.060976,-2.195122,0.182927
1548456994272,-1.025085,0.009338,-0.143860,0.670732,-1.829268,-0.060976
1548456994287,-1.024170,0.010803,-0.145691,1.463415,-1.463415,-0.487805
1548456994295,-1.023132,0.009583,-0.150574,1.951220,-1.341463,-0.914634
1548456994303,-1.021423,0.005615,-0.153931,2.073171,-1.219512,-1.219512
1548456994317,-1.024170,0.003174,-0.155457,1.890244,-1.036585,-1.341463
1548456994325,-1.041199,-0.002502,-0.155640,1.829268,-1.341463,-1.646341
1548456994332,-1.050903,0.000305,-0.155884,1.890244,-1.402439,-1.158537
1548456994348,-1.054626,-0.002319,-0.158691,1.646341,-0.975610,0.060976
1548456994355,-1.049011,0.002319,-0.152039,1.280488,-0.487805,1.097561
1548456994362,-1.027649,0.000183,-0.160217,1.280488,-0.121951,2.439024
1548456994377,-1.026184,-0.000916,-0.161865,0.853659,1.158537,1.158537
1548456994385,-1.025574,0.003357,-0.154419,0.853659,0.914634,0.060976
1548456994392,-1.000366,0.004272,-0.159241,0.853659,0.243902,-0.060976
1548456994407,-0.979431,-0.006287,-0.170166,0.670732,1.219512,-0.731707
1548456994415,-1.004395,-0.014771,-0.169250,0.426829,0.792683,-1.646341
1548456994423,-1.028015,-0.011292,-0.157654,-0.121951,-2.378049,-0.792683
1548456994437,-1.022217,-0.007996,-0.158936,-0.914634,-3.719512,0.487805
1548456994445,-1.021729,-0.015259,-0.165649,-2.012195,-1.951220,-0.121951
1548456994453,-1.047302,-0.015930,-0.157288,-2.987805,-1.890244,-1.402439
1548456994467,-1.075439,-0.003479,-0.150391,-3.780488,-3.048780,-1.585366
1548456994475,-1.082214,0.012390,-0.148560,-4.268293,-2.317073,-0.792683
1548456994482,-1.074158,0.021912,-0.146362,-4.268293,-0.182927,0.731707
1548456994497,-1.058716,0.027344,-0.144592,-3.231707,1.585366,1.707317
1548456994505,-1.038513,0.021790,-0.152100,-1.341463,2.682927,1.829268
1548456994512,-1.045166,0.011169,-0.150208,0.365854,3.414634,0.548781
1548456994527,-1.050171,0.015564,-0.138855,1.524390,3.109756,0.182927
1548456994535,-1.027771,0.015625,-0.146057,2.439024,3.902439,1.707317
1548456994543,-1.007507,0.004883,-0.159119,2.926829,5.975610,2.560976
1548456994557,-1.002258,-0.003296,-0.163086,3.231707,6.402439,2.500000
1548456994565,-0.994019,-0.006348,-0.166504,2.926829,5.121951,2.682927
1548456994572,-0.980164,-0.013123,-0.178223,2.378049,4.329268,2.804878
1548456994587,-0.981262,-0.021118,-0.179443,1.707317,3.536585,2.256098
1548456994595,-0.993042,-0.020935,-0.175293,0.975610,1.341463,1.524390
1548456994602,-1.002319,-0.012634,-0.173157,0.000000,-0.548781,1.402439
1548456994617,-1.010254,-0.006592,-0.171753,-1.341463,-1.341463,1.341463
1548456994625,-1.017212,0.002747,-0.166504,-2.500000,-2.073171,1.158537
1548456994632,-1.024292,0.007202,-0.159180,-2.926829,-2.500000,0.975610
1548456994647,-1.029907,0.006287,-0.157471,-2.865854,-2.926829,0.670732
1548456994655,-1.037720,0.009094,-0.152039,-2.195122,-3.170732,0.548781
1548456994663,-1.045044,0.010315,-0.148010,-1.219512,-3.048780,0.670732
1548456994677,-1.046021,0.013000,-0.149292,-0.426829,-2.500000,1.036585
1548456994685,-1.044312,0.015137,-0.155090,0.182927,-2.012195,1.158537
1548456994693,-1.042297,0.015137,-0.156189,0.731707,-1.341463,1.158537
1548456994708,-1.036804,0.011414,-0.156616,1.402439,-0.975610,1.097561
1548456994715,-1.030457,0.012756,-0.159363,2.134146,-0.670732,0.975610
1548456994723,-1.025024,0.013306,-0.162109,2.987805,-0.487805,0.914634
1548456994738,-1.020325,0.008606,-0.164490,3.414634,-0.609756,0.914634
1548456994745,-1.016785,0.005615,-0.164490,3.597561,-0.853659,0.853659
1548456994753,-1.014221,0.006165,-0.163818,3.597561,-1.219512,0.609756
1548456994768,-1.013611,0.002319,-0.157776,3.231707,-1.463415,0.304878
1548456994776,-1.013916,0.001221,-0.150818,2.804878,-1.646341,0.000000
1548456994783,-1.015259,0.002197,-0.146118,2.621951,-1.829268,-0.426829
1548456994797,-1.016296,0.004272,-0.143982,2.743902,-2.134146,-0.792683
1548456994805,-1.018799,0.006104,-0.139099,2.621951,-2.500000,-1.036585
1548456994812,-1.023071,0.007690,-0.132690,2.682927,-2.743902,-1.219512
1548456994827,-1.034790,0.011475,-0.129700,2.987805,-2.926829,-1.280488
1548456994835,-1.042419,0.007263,-0.130798,3.658537,-2.804878,-1.280488
1548456994842,-1.047546,0.005737,-0.129578,4.268293,-2.439024,-1.280488
1548456994857,-1.051453,0.009399,-0.132874,4.695122,-1.768293,-1.036585
1548456994865,-1.049255,0.012268,-0.138367,4.878049,-0.853659,-0.548781
1548456994872,-1.049133,0.009216,-0.140869,5.182927,0.121951,0.000000
1548456994887,-1.049438,0.008423,-0.146851,5.609756,0.487805,0.548781
1548456994895,-1.045349,0.004211,-0.151978,5.975610,0.914634,1.036585
1548456994903,-1.039795,0.003052,-0.160156,6.158537,1.219512,1.402439
1548456994917,-1.028076,-0.000854,-0.163818,6.280488,1.280488,1.768293
1548456994925,-1.018982,-0.005127,-0.170654,6.097561,1.219512,2.073171
1548456994932,-1.010864,-0.010681,-0.172729,5.670732,0.365854,2.317073
1548456994947,-1.008789,-0.017334,-0.171082,5.243903,-0.548781,2.743902
1548456994955,-1.006592,-0.014587,-0.173645,4.329268,-1.768293,2.865854
1548456994962,-1.007141,-0.016357,-0.169312,3.048780,-2.987805,2.926829
1548456994977,-1.010315,-0.017273,-0.165344,2.012195,-3.841464,3.048780
1548456994985,-1.017212,-0.011230,-0.163513,0.792683,-5.060976,2.804878
1548456994993,-1.020203,-0.001648,-0.159485,-0.670732,-5.731708,2.560976
1548456995008,-1.021301,0.009094,-0.157471,-1.890244,-5.975610,2.439024
1548456995015,-1.020142,0.011719,-0.159363,-2.134146,-5.914634,2.560976
1548456995022,-1.025757,0.016602,-0.160034,-1.829268,-6.219512,2.439024
1548456995038,-1.031616,0.016907,-0.155823,-1.341463,-6.463415,2.378049
1548456995045,-0.999695,0.015259,-0.160950,-0.487805,-6.463415,2.256098
1548456995060,-0.985107,0.018860,-0.167236,0.060976,-6.097561,2.195122
1548456995067,-1.102661,0.020569,-0.134644,1.280488,-10.792684,2.012195
1548456995082,-1.088318,0.014160,-0.135986,1.890244,-14.146341,1.890244
1548456995083,-1.030579,0.015930,-0.159058,1.646341,-4.390244,2.865854
1548456995097,-1.037720,0.015442,-0.153442,1.707317,0.121951,2.560976
1548456995105,-1.038574,0.008301,-0.152588,1.768293,-1.829268,2.012195
1548456995113,-1.033203,0.005859,-0.157654,1.768293,-1.585366,2.073171
1548456995127,-1.035095,0.006226,-0.157166,1.524390,-1.219512,1.890244
1548456995135,-1.030945,0.002808,-0.154785,1.036585,-1.097561,1.829268
1548456995142,-1.030090,0.001892,-0.157532,0.304878,-0.731707,1.829268
1548456995158,-1.027405,0.001221,-0.158752,-0.365854,-0.548781,1.829268
1548456995165,-1.031616,0.001831,-0.150269,-1.036585,-0.670732,1.707317
1548456995173,-1.023376,0.006287,-0.154663,-2.012195,-0.487805,1.524390
1548456995187,-1.019165,-0.012207,-0.180786,-3.597561,1.341463,1.463415
1548456995195,-1.020020,-0.000122,-0.167419,-4.390244,0.304878,1.097561
1548456995202,-1.011841,0.011353,-0.157104,-4.695122,-0.060976,1.463415
1548456995217,-0.996521,0.002380,-0.170715,-5.914634,0.548781,1.341463
1548456995226,-1.021301,-0.003418,-0.168213,-6.585366,-1.463415,0.792683
1548456995232,-1.021423,-0.006348,-0.168884,-7.317073,-3.231707,0.731707
1548456995247,-1.034607,-0.000671,-0.156067,-8.292683,-2.743902,0.792683
1548456995255,-1.035278,0.007996,-0.151733,-9.024390,-1.890244,0.609756
1548456995262,-1.025391,0.020569,-0.147949,-9.878049,-0.060976,0.426829
1548456995278,-1.038147,0.018372,-0.152527,-10.792684,0.487805,0.487805
1548456995285,-1.021790,0.014954,-0.162415,-11.036586,-0.243902,0.426829
1548456995292,-1.046753,0.020752,-0.139832,-10.243902,0.060976,0.609756
1548456995307,-1.054810,0.035767,-0.127319,-9.878049,-0.426829,0.548781
1548456995315,-1.027649,0.027344,-0.156860,-9.451220,1.646341,1.097561
1548456995323,-1.023743,0.034485,-0.147705,-8.963415,3.719512,1.341463
1548456995338,-1.054993,0.034363,-0.131592,-7.926829,1.280488,1.646341
1548456995345,-1.031433,0.032837,-0.143555,-6.402439,1.585366,2.439024
1548456995353,-1.030823,0.031494,-0.143188,-4.451220,4.390244,3.597561
1548456995368,-1.026245,0.030762,-0.135193,-2.865854,3.536585,4.146341
1548456995375,-1.020813,0.024292,-0.139465,-1.280488,4.451220,4.634146
1548456995383,-1.026917,0.020630,-0.139099,-0.243902,2.621951,4.329268
1548456995397,-1.013794,0.026367,-0.138306,0.243902,2.256098,4.512195
1548456995405,-1.053101,0.021912,-0.124634,0.609756,0.975610,4.512195
1548456995412,-1.019409,0.024048,-0.138367,0.731707,0.853659,4.695122
1548456995428,-0.976562,0.013245,-0.158020,0.609756,4.390244,5.243903
1548456995435,-1.048767,0.019531,-0.126892,0.365854,0.243902,5.182927
1548456995442,-1.031982,0.037415,-0.118835,0.975610,-5.060976,5.914634
1548456995457,-1.029053,0.022705,-0.137939,0.609756,-2.012195,6.158537
1548456995472,-1.039551,0.028809,-0.136841,0.000000,-2.743902,5.975610
1548456995473,-1.034912,0.030640,-0.133240,-0.243902,-3.536585,6.768293
1548456995488,-1.049133,0.033020,-0.127625,-0.670732,-4.146341,6.768293
1548456995495,-1.045471,0.043518,-0.131287,-0.792683,-3.841464,7.012195
1548456995502,-1.044006,0.047546,-0.131165,-0.975610,-2.560976,7.560976
1548456995518,-1.043396,0.048157,-0.130859,-0.975610,-1.890244,7.926829
1548456995525,-1.051270,0.051941,-0.126465,-0.243902,-1.768293,8.719512
1548456995533,-1.043945,0.053528,-0.130310,0.670732,-1.585366,9.024390
1548456995548,-1.029236,0.056335,-0.136108,1.402439,-0.182927,9.329268
1548456995555,-1.034668,0.056335,-0.131775,2.073171,-0.853659,9.634147
1548456995562,-1.040161,0.053345,-0.132019,2.804878,-2.073171,10.060976
1548456995577,-1.027344,0.051819,-0.138733,3.353659,-1.463415,10.426829
1548456995585,-1.029602,0.050720,-0.140015,3.658537,-1.219512,10.792684
1548456995593,-1.024414,0.051147,-0.140686,3.719512,-1.463415,11.097561
1548456995607,-1.020386,0.049927,-0.142639,3.475610,-1.341463,11.463415
1548456995615,-1.024658,0.055786,-0.142944,2.926829,-1.768293,11.829268
1548456995622,-1.027710,0.059875,-0.148071,2.500000,-1.829268,12.317074
1548456995637,-1.016113,0.061096,-0.159119,1.585366,-1.036585,12.865854
1548456995645,-1.023560,0.065674,-0.157227,0.975610,-1.158537,13.353659
1548456995652,-1.030762,0.069946,-0.148193,0.731707,-2.500000,13.658537
1548456995667,-1.027161,0.069641,-0.147339,0.670732,-2.195122,14.146341
1548456995675,-1.023499,0.071899,-0.156006,0.731707,-0.792683,14.573171
1548456995682,-1.019409,0.073364,-0.159973,0.792683,-0.487805,15.121951
1548456995697,-1.025635,0.074158,-0.156799,0.609756,-0.853659,15.731708
1548456995705,-1.029053,0.075806,-0.154602,0.182927,-0.914634,15.975610
1548456995712,-1.016479,0.075928,-0.166382,-0.609756,0.060976,16.280489
1548456995727,-1.023804,0.077576,-0.167480,-1.524390,0.853659,16.646341
1548456995735,-1.027039,0.084229,-0.161804,-2.317073,-0.304878,16.768293
1548456995743,-1.024719,0.089844,-0.163452,-2.804878,0.121951,16.829269
1548456995750,-1.024231,0.093445,-0.164551,-3.353659,0.365854,16.768293
1548456995766,-1.024963,0.099609,-0.162292,-3.597561,0.304878,16.951220
1548456995772,-1.022461,0.101379,-0.164429,-3.170732,0.731707,17.256098
1548456995780,-1.010071,0.100220,-0.166748,-2.743902,1.524390,17.500000
1548456995795,-1.029358,0.101990,-0.156189,-2.560976,1.280488,17.621952
1548456995802,-1.007874,0.104980,-0.166077,-2.195122,1.585366,17.682928
1548456995810,-1.014465,0.113770,-0.164795,-1.890244,3.902439,18.109756
1548456995825,-1.007141,0.111572,-0.173035,-2.012195,2.865854,18.353659
1548456995833,-1.016052,0.115906,-0.170227,-2.012195,3.841464,18.719513
1548456995840,-1.019043,0.114014,-0.165649,-1.280488,2.804878,18.841463
1548456995855,-1.010010,0.118958,-0.166504,-0.609756,3.231707,18.963415
1548456995862,-1.030029,0.120361,-0.161011,-0.182927,2.378049,19.085367
1548456995870,-1.040222,0.113708,-0.150330,-0.060976,1.402439,19.268293
1548456995892,-1.023804,0.128845,-0.159241,-0.060976,4.146341,19.817074
1548456995893,-1.013977,0.139160,-0.169373,-0.548781,5.670732,20.000000
1548456995900,-1.020691,0.146423,-0.155151,-0.975610,4.512195,20.365854
1548456995915,-1.023560,0.140503,-0.153015,-1.158537,2.378049,20.426830
1548456995922,-1.009277,0.150085,-0.162781,-0.792683,2.682927,20.548780
1548456995930,-1.043884,0.151550,-0.146301,-0.548781,1.402439,21.158537
1548456995946,-1.047363,0.152222,-0.146667,-0.792683,-0.060976,21.097561
1548456995952,-1.002380,0.160767,-0.155823,-1.036585,3.658537,21.707317
1548456995960,-1.009277,0.168945,-0.156555,-1.463415,4.329268,22.317074
1548456995975,-1.013000,0.169067,-0.159119,-1.524390,1.219512,22.804878
1548456995983,-1.012512,0.181885,-0.151550,-1.280488,0.609756,23.414635
1548456995990,-1.063232,0.183777,-0.139160,-0.792683,-1.158537,23.841463
1548456996005,-1.005615,0.182129,-0.155579,-0.670732,2.560976,24.451220
1548456996013,-0.989380,0.185730,-0.151367,-0.182927,5.975610,25.731709
1548456996020,-1.010681,0.194397,-0.149292,-0.548781,3.414634,26.402439
1548456996035,-1.015137,0.196594,-0.150879,-0.670732,1.585366,26.829269
1548456996043,-0.995850,0.205261,-0.156250,-0.914634,2.012195,27.560976
1548456996050,-1.013611,0.211792,-0.149048,-1.280488,2.073171,28.048780
1548456996065,-1.029724,0.217651,-0.143799,-1.585366,-0.487805,28.475611
1548456996072,-1.021667,0.220459,-0.152039,-1.951220,-0.182927,28.658537
1548456996080,-1.009460,0.231323,-0.154175,-2.439024,2.439024,29.024391
1548456996095,-0.990906,0.226807,-0.160828,-2.682927,2.439024,29.634148
1548456996102,-1.029846,0.234009,-0.149414,-2.865854,0.609756,29.695122
1548456996110,-1.020386,0.232666,-0.153320,-2.073171,-0.304878,30.670732
1548456996125,-0.974976,0.235168,-0.164429,-2.743902,2.987805,30.975611
1548456996132,-1.011475,0.247009,-0.144348,-2.439024,2.378049,32.134148
1548456996140,-0.996582,0.266052,-0.179932,-2.378049,-0.792683,32.500000
1548456996155,-0.974426,0.272461,-0.165527,-1.951220,0.243902,31.768293
1548456996162,-1.017517,0.250183,-0.102905,1.585366,-4.268293,31.402439
1548456996170,-0.981873,0.240601,-0.157288,0.792683,-2.256098,32.317074
1548456996185,-0.979065,0.251282,-0.178833,-1.036585,2.865854,32.804878
1548456996193,-0.994263,0.256653,-0.153625,-0.487805,0.487805,33.170731
1548456996200,-0.993713,0.272583,-0.148987,-0.914634,-0.365854,33.841465
1548456996215,-0.982300,0.301636,-0.173279,-1.890244,0.792683,33.536587
1548456996222,-0.977905,0.291199,-0.174072,-2.926829,1.036585,33.048782
1548456996230,-0.979065,0.298950,-0.167236,-2.500000,-0.670732,32.439026
1548456996245,-0.983215,0.287659,-0.160583,-1.280488,-2.012195,31.890245
1548456996252,-0.966553,0.303894,-0.157410,-0.670732,-2.073171,31.768293
1548456996260,-0.969482,0.303955,-0.160889,0.182927,-1.219512,31.707317
1548456996275,-0.974243,0.300354,-0.158386,-0.182927,-2.317073,31.219513
1548456996282,-0.969177,0.307312,-0.160095,-0.365854,-1.646341,31.646341
1548456996290,-0.949036,0.311584,-0.168091,-0.548781,-0.304878,31.829269
1548456996305,-0.969116,0.322693,-0.161987,-1.036585,-0.609756,31.524391
1548456996313,-0.956482,0.326843,-0.165894,-0.853659,-1.341463,31.158537
1548456996320,-0.963440,0.333130,-0.166626,-0.670732,-0.182927,30.731709
1548456996335,-0.967102,0.334229,-0.161194,-0.426829,-0.548781,30.304878
1548456996342,-0.958313,0.338928,-0.162781,0.182927,0.121951,30.182928
1548456996350,-0.957642,0.357239,-0.174316,1.097561,1.402439,30.304878
1548456996365,-0.953308,0.359680,-0.174927,0.914634,1.341463,30.000000
1548456996373,-0.937195,0.363464,-0.173584,0.304878,1.097561,29.390245
1548456996380,-0.939575,0.363342,-0.170959,0.670732,0.182927,28.841465
1548456996395,-0.965027,0.367493,-0.161743,0.975610,-2.378049,28.109756
1548456996402,-0.956360,0.365723,-0.164185,1.341463,-2.926829,27.804878
1548456996410,-0.947998,0.365540,-0.166199,1.585366,-0.304878,27.743902
1548456996425,-0.946350,0.372803,-0.160767,1.524390,0.548781,27.682928
1548456996432,-0.947205,0.376404,-0.161804,1.036585,0.731707,27.743902
1548456996440,-0.928223,0.397339,-0.169067,0.792683,1.341463,27.865854
1548456996455,-0.925354,0.396484,-0.169983,0.487805,2.195122,27.926830
1548456996462,-0.921326,0.393677,-0.165588,0.121951,1.158537,27.743902
1548456996470,-0.925537,0.406006,-0.165283,0.792683,0.487805,27.987806
1548456996485,-0.931152,0.411499,-0.162781,0.975610,0.426829,28.536587
1548456996492,-0.934937,0.420288,-0.165344,0.914634,0.914634,28.902439
1548456996500,-0.933044,0.436584,-0.168945,0.853659,2.195122,29.451220
1548456996515,-0.928284,0.434143,-0.176758,1.036585,2.743902,29.512196
1548456996522,-0.927002,0.438843,-0.175598,1.646341,2.743902,29.695122
1548456996530,-0.944336,0.436401,-0.166077,2.317073,1.463415,29.695122
1548456996545,-0.930786,0.452942,-0.171204,2.621951,1.829268,30.365854
1548456996552,-0.929138,0.460754,-0.173401,2.500000,3.231707,30.914635
1548456996560,-0.914734,0.457703,-0.172302,1.829268,3.109756,31.097561
1548456996575,-0.938721,0.455322,-0.159302,2.134146,2.256098,31.219513
1548456996582,-0.921936,0.462769,-0.160156,2.134146,2.134146,31.646341
1548456996590,-0.901184,0.464966,-0.169067,2.012195,4.817073,32.073170
1548456996606,-0.909729,0.468872,-0.171143,1.097561,4.939024,32.378048
1548456996613,-0.903015,0.471375,-0.176025,-0.060976,4.085366,32.865856
1548456996620,-0.890869,0.474426,-0.175476,-0.365854,4.939024,33.231709
1548456996635,-0.884155,0.475159,-0.176697,-0.670732,5.121951,33.719513
1548456996643,-0.880859,0.480652,-0.176331,-1.097561,4.756098,34.085365
1548456996650,-0.899658,0.488770,-0.168701,-0.670732,3.536585,34.268295
1548456996665,-0.885437,0.498291,-0.175537,-0.304878,4.268293,34.817074
1548456996672,-0.880493,0.506897,-0.181580,-0.365854,5.792683,34.817074
1548456996680,-0.883728,0.515259,-0.176147,-0.609756,5.426829,34.756100
1548456996695,-0.888977,0.521484,-0.180115,-0.365854,4.390244,34.146343
1548456996702,-0.882507,0.520386,-0.180420,0.000000,4.268293,33.597561
1548456996710,-0.865845,0.518188,-0.182434,0.548781,5.000000,33.170731
1548456996725,-0.866577,0.513611,-0.183594,0.792683,5.243903,32.987804
1548456996732,-0.868225,0.524048,-0.180115,0.670732,4.085366,32.743904
1548456996740,-0.859192,0.516235,-0.175171,0.609756,4.085366,32.317074
1548456996755,-0.857971,0.522766,-0.177734,0.243902,4.817073,31.951220
1548456996762,-0.819336,0.539490,-0.184998,-0.060976,6.036585,31.524391
1548456996770,-0.848206,0.541077,-0.184692,-0.243902,6.219512,31.158537
1548456996785,-0.840820,0.538086,-0.187561,-0.731707,3.475610,30.304878
1548456996792,-0.845337,0.549438,-0.182495,0.243902,4.939024,30.060976
1548456996800,-0.812988,0.547302,-0.190918,1.341463,5.670732,29.573172
1548456996815,-0.833191,0.564209,-0.183533,1.219512,6.524390,29.207317
1548456996822,-0.841858,0.571350,-0.182373,1.219512,3.292683,28.475611
1548456996830,-0.827881,0.572205,-0.194092,0.853659,4.878049,27.560976
1548456996845,-0.827881,0.566895,-0.189148,1.280488,5.243903,26.646341
1548456996852,-0.815430,0.577881,-0.186768,2.500000,5.548780,26.219513
1548456996860,-0.808105,0.571533,-0.192993,2.987805,6.280488,25.914635
1548456996875,-0.789551,0.574524,-0.198181,2.682927,7.012195,25.975611
1548456996882,-0.812073,0.571350,-0.188721,2.926829,6.463415,26.158537
1548456996891,-0.786987,0.583801,-0.195496,3.109756,5.609756,25.975611
1548456996905,-0.827393,0.601562,-0.188782,2.926829,6.036585,25.670732
1548456996912,-0.835754,0.615906,-0.197632,2.073171,4.024390,25.121952
1548456996936,-0.789062,0.604431,-0.208801,1.402439,7.439024,24.268293
1548456996937,-0.807373,0.609802,-0.203125,1.951220,7.987805,23.780489
1548456996960,-0.799194,0.609192,-0.198547,2.560976,5.609756,23.780489
1548456996960,-0.800781,0.612305,-0.196899,2.378049,5.609756,23.841463
1548456996968,-0.804504,0.612854,-0.204834,2.439024,6.280488,23.414635
1548456996973,-0.782715,0.621338,-0.202820,2.682927,7.073171,24.268293
1548456996980,-0.752197,0.605591,-0.209045,1.768293,9.268292,24.085367
1548456996995,-0.760742,0.616028,-0.246216,1.280488,9.878049,23.597561
1548456997002,-0.768127,0.610901,-0.176453,2.378049,6.036585,22.256098
1548456997010,-0.749390,0.617249,-0.198853,3.658537,6.524390,22.256098
1548456997027,-0.780701,0.619324,-0.209473,1.646341,6.036585,22.560976
1548456997032,-0.792297,0.654541,-0.211121,0.304878,2.560976,22.987806
1548456997040,-0.803406,0.664490,-0.214844,-0.609756,2.317073,22.804878
1548456997055,-0.781189,0.655945,-0.214905,-0.609756,2.682927,22.134148
1548456997063,-0.761780,0.650146,-0.216614,1.036585,5.182927,21.280489
1548456997070,-0.768860,0.647888,-0.215637,3.109756,4.634146,21.646341
1548456997085,-0.760193,0.646057,-0.211487,3.658537,3.841464,21.585367
1548456997093,-0.760742,0.636292,-0.210754,4.207317,4.085366,21.463415
1548456997100,-0.757202,0.647644,-0.217712,3.597561,5.121951,21.463415
1548456997115,-0.766479,0.657288,-0.222229,2.560976,4.451220,21.646341
1548456997123,-0.747253,0.642944,-0.223328,2.073171,4.573171,20.548780
1548456997130,-0.745972,0.651855,-0.216125,2.195122,6.341464,20.365854
1548456997146,-0.771790,0.679199,-0.216125,2.195122,4.939024,20.365854
1548456997153,-0.738708,0.663879,-0.230713,1.280488,5.609756,19.207317
1548456997161,-0.731995,0.666382,-0.230408,0.975610,7.378049,18.353659
1548456997176,-0.715942,0.663452,-0.233154,1.768293,5.914634,17.073172
1548456997183,-0.735107,0.653870,-0.218628,2.012195,3.963415,15.243903
1548456997191,-0.706116,0.632263,-0.221802,2.256098,1.097561,14.329268
1548456997206,-0.698730,0.615906,-0.207581,1.646341,2.500000,13.231708
1548456997214,-0.709839,0.639648,-0.198303,2.378049,0.487805,13.780488
1548456997220,-0.710205,0.641907,-0.201477,0.365854,1.585366,13.231708
1548456997237,-0.706543,0.663696,-0.211182,-1.219512,3.902439,12.987805
1548456997243,-0.717590,0.671082,-0.225037,-2.134146,4.390244,12.439025
1548456997252,-0.714233,0.674011,-0.229797,-2.682927,3.597561,10.914635
1548456997267,-0.702698,0.674011,-0.226257,-0.731707,2.439024,9.329268
1548456997275,-0.707642,0.664612,-0.218628,1.829268,0.975610,8.048780
1548456997283,-0.711731,0.675598,-0.214600,3.292683,-0.182927,7.134147
1548456997295,-0.721191,0.702026,-0.217957,3.475610,-0.365854,6.158537
1548456997303,-0.715515,0.679688,-0.225342,2.256098,0.243902,4.207317
1548456997310,-0.709656,0.651733,-0.218628,2.134146,1.341463,1.890244
1548456997325,-0.706116,0.666748,-0.217163,3.841464,1.890244,1.036585
1548456997333,-0.706238,0.662659,-0.212097,4.268293,2.195122,0.182927
1548456997340,-0.709656,0.672852,-0.216309,2.560976,2.804878,-0.731707
1548456997355,-0.709656,0.674927,-0.218567,0.975610,2.865854,-1.951220
1548456997363,-0.708496,0.664246,-0.218018,0.670732,2.926829,-3.597561
1548456997370,-0.701416,0.667786,-0.223145,1.097561,3.597561,-5.304878
1548456997386,-0.706116,0.658447,-0.230957,1.036585,3.475610,-6.951220
1548456997393,-0.712219,0.664185,-0.233826,0.548781,2.073171,-8.231708
1548456997401,-0.706726,0.666260,-0.232849,1.158537,0.975610,-9.451220
1548456997417,-0.682434,0.632202,-0.226318,1.829268,0.365854,-11.036586
1548456997425,-0.634583,0.591248,-0.224976,2.743902,-0.548781,-11.890244
1548456997431,-0.694458,0.643127,-0.211609,3.841464,-6.707317,-10.548780
1548456997445,-0.739075,0.643677,-0.201965,2.865854,-13.231708,-10.853659
1548456997453,-0.745300,0.680359,-0.212891,1.707317,-9.878049,-10.914635
1548456997461,-0.711121,0.695129,-0.240845,1.890244,-4.207317,-10.853659
1548456997475,-0.747437,0.692993,-0.233704,1.951220,-3.231707,-11.951220
1548456997483,-0.758972,0.694824,-0.236267,4.390244,-7.073171,-13.292684
1548456997490,-0.745605,0.674561,-0.237915,5.792683,-4.573171,-14.207317
1548456997505,-0.770935,0.670837,-0.231628,6.829268,-4.512195,-14.573171
1548456997513,-0.740845,0.679565,-0.240723,7.195122,-5.000000,-14.878049
1548456997520,-0.745911,0.649475,-0.241760,5.609756,-4.146341,-15.792684
1548456997535,-0.757385,0.649597,-0.237061,4.329268,-6.646342,-16.707317
1548456997543,-0.731079,0.638733,-0.238953,3.780488,-6.768293,-16.707317
1548456997551,-0.737732,0.628296,-0.228088,2.378049,-5.792683,-16.280489
1548456997566,-0.742859,0.635803,-0.223816,0.853659,-7.195122,-15.365854
1548456997573,-0.759521,0.639526,-0.228699,-1.463415,-7.621952,-14.573171
1548456997581,-0.770691,0.648193,-0.230530,-4.024390,-6.951220,-14.756098
1548456997595,-0.770264,0.659485,-0.226685,-5.060976,-5.792683,-15.121951
1548456997603,-0.780823,0.670898,-0.227051,-5.182927,-5.609756,-16.524391
1548456997610,-0.788757,0.662903,-0.226868,-4.756098,-6.158537,-17.682928
1548456997625,-0.783508,0.658875,-0.224487,-3.902439,-7.743903,-18.780489
1548456997633,-0.769409,0.632629,-0.224915,-1.890244,-7.256098,-19.878050
1548456997641,-0.779480,0.608154,-0.210144,-0.426829,-8.170732,-20.548780
1548456997655,-0.738281,0.597900,-0.210999,0.060976,-8.536586,-21.036587
1548456997663,-0.741760,0.583252,-0.210327,-0.548781,-5.670732,-21.036587
1548456997670,-0.760803,0.580383,-0.211182,-2.073171,-8.231708,-21.707317
1548456997693,-0.762878,0.581299,-0.211365,-3.475610,-8.170732,-23.048780
1548456997694,-0.785278,0.587463,-0.200256,-4.573171,-7.865854,-24.573172
1548456997700,-0.786987,0.590210,-0.198242,-5.487805,-7.926829,-26.951220
1548456997716,-0.791260,0.596985,-0.205017,-4.878049,-8.597561,-29.085367
1548456997723,-0.779907,0.578186,-0.195312,-3.536585,-9.512196,-31.158537
1548456997730,-0.791077,0.570496,-0.182983,-0.853659,-9.390244,-32.560978
1548456997745,-0.801697,0.573242,-0.181335,2.073171,-10.000000,-33.353661
1548456997753,-0.816284,0.594543,-0.184082,2.439024,-8.963415,-34.268295
1548456997760,-0.810730,0.571594,-0.214600,1.951220,-6.463415,-35.670734
1548456997775,-0.802124,0.557556,-0.220337,1.036585,-3.719512,-37.500000
1548456997783,-0.800598,0.543884,-0.228210,3.048780,-2.682927,-39.329269
1548456997790,-0.796204,0.515198,-0.230713,5.243903,-2.804878,-40.853661
1548456997805,-0.796204,0.519470,-0.217224,6.829268,-3.109756,-41.341465
1548456997813,-0.815918,0.528931,-0.208862,8.292683,-5.060976,-41.707317
1548456997820,-0.854858,0.540100,-0.199097,7.804878,-7.560976,-42.134148
1548456997835,-0.879211,0.553467,-0.204224,7.500000,-8.780488,-43.048782
1548456997843,-0.870422,0.549500,-0.216370,7.012195,-7.256098,-44.329269
1548456997850,-0.867676,0.541992,-0.215210,6.097561,-4.329268,-45.731709
1548456997865,-0.878357,0.546326,-0.218140,7.195122,-4.024390,-46.829269
1548456997873,-0.879700,0.536621,-0.221069,8.048780,-3.841464,-47.012196
1548456997880,-0.874695,0.518494,-0.228577,6.951220,-2.987805,-46.890244
1548456997895,-0.866089,0.487427,-0.232666,6.707317,-3.597561,-46.707317
1548456997903,-0.873474,0.470825,-0.224487,6.707317,-4.634146,-46.219513
1548456997910,-0.892639,0.459167,-0.212036,6.097561,-6.890244,-45.670734
1548456997925,-0.898499,0.467773,-0.205933,4.146341,-7.073171,-44.817074
1548456997933,-0.899658,0.473206,-0.209290,1.585366,-5.975610,-44.329269
1548456997940,-0.916382,0.484741,-0.210144,-1.097561,-5.426829,-44.512196
1548456997955,-0.941895,0.480347,-0.203979,-2.743902,-6.829268,-45.304878
1548456997963,-0.938782,0.476379,-0.196289,-4.085366,-7.256098,-46.097561
1548456997971,-0.928040,0.458374,-0.200256,-3.902439,-6.585366,-46.463417
1548456997985,-0.916870,0.441223,-0.195190,-4.268293,-6.524390,-46.585365
1548456997994,-0.910706,0.432739,-0.182190,-4.146341,-6.829268,-46.219513
1548456998008,-0.931580,0.435242,-0.171204,-3.353659,-7.378049,-45.304878
1548456998015,-0.931885,0.436340,-0.178650,-4.207317,-7.743903,-44.878048
1548456998025,-0.928528,0.418579,-0.186707,-5.975610,-6.036585,-45.121952
1548456998038,-0.929260,0.401917,-0.188049,-6.341464,-4.695122,-45.975613
1548456998046,-0.913818,0.396362,-0.183899,-5.548780,-3.658537,-46.951221
1548456998053,-0.906006,0.386475,-0.181580,-3.780488,-2.804878,-47.621952
1548456998061,-0.913879,0.382751,-0.179504,-2.743902,-3.475610,-47.804878
1548456998075,-0.906433,0.372864,-0.191711,-2.682927,-3.414634,-47.195122
1548456998086,-0.904541,0.355042,-0.199341,-3.658537,-2.134146,-46.341465
1548456998090,-0.910645,0.341431,-0.197815,-3.780488,-0.975610,-45.304878
1548456998105,-0.931885,0.339355,-0.196045,-3.048780,-0.731707,-44.207317
1548456998112,-0.955933,0.350281,-0.194336,-2.378049,-0.182927,-43.170734
1548456998120,-0.988892,0.379456,-0.193848,-1.646341,0.670732,-42.987804
1548456998136,-0.985535,0.370850,-0.217529,-1.341463,2.560976,-44.085365
1548456998142,-0.983032,0.365417,-0.215759,1.524390,4.939024,-45.365856
1548456998157,-1.000122,0.349426,-0.211487,5.000000,3.170732,-46.646343
1548456998165,-1.010193,0.333923,-0.195557,8.597561,0.731707,-47.378052
1548456998172,-0.992798,0.317749,-0.203613,11.707317,-0.060976,-47.560978
1548456998180,-1.002625,0.295105,-0.184692,12.743903,0.914634,-46.768295
1548456998195,-0.994263,0.284546,-0.183411,12.987805,-1.463415,-46.524391
1548456998202,-0.969116,0.287659,-0.218384,10.975610,1.585366,-44.573174
1548456998210,-0.977295,0.279175,-0.198608,8.780488,-0.670732,-44.817074
1548456998225,-0.970825,0.251038,-0.183167,8.231708,-3.048780,-44.634148
1548456998232,-0.974426,0.189453,-0.201782,7.195122,-3.292683,-44.329269
1548456998240,-0.897278,0.074585,-0.218933,6.158537,-3.475610,-43.597561
1548456998255,-1.019287,0.301514,-0.164185,5.243903,-9.146341,-37.012196
1548456998262,-1.084351,0.279114,-0.157959,-0.792683,-17.743902,-37.621952
1548456998270,-1.023315,0.253052,-0.169250,-6.524390,-11.097561,-40.731709
1548456998286,-0.998230,0.252747,-0.175720,-5.426829,-2.134146,-40.426830
1548456998293,-1.004333,0.244141,-0.168335,-4.512195,-2.073171,-40.609756
1548456998301,-1.001648,0.232056,-0.158081,-2.987805,-3.780488,-40.487804
1548456998315,-1.002502,0.221008,-0.155884,-1.280488,-3.902439,-39.756100
1548456998322,-1.006042,0.215881,-0.155334,-0.792683,-3.658537,-38.841465
1548456998330,-1.006104,0.208130,-0.165100,-1.097561,-3.109756,-37.500000
1548456998345,-1.002502,0.197754,-0.175293,-1.768293,-2.560976,-36.341465
1548456998352,-1.005249,0.189697,-0.177917,-2.317073,-2.439024,-35.792683
1548456998360,-1.009705,0.186462,-0.178894,-1.829268,-2.926829,-35.731709
1548456998375,-1.012695,0.182251,-0.180420,-0.914634,-3.597561,-35.731709
1548456998382,-1.016602,0.183350,-0.184937,0.243902,-3.963415,-35.487804
1548456998390,-1.022949,0.180115,-0.188538,1.890244,-4.268293,-34.878048
1548456998405,-1.026184,0.175964,-0.189392,2.926829,-4.695122,-33.963417
1548456998412,-1.026733,0.167664,-0.187195,4.146341,-4.695122,-32.987804
1548456998420,-1.029785,0.157288,-0.185791,5.609756,-4.695122,-31.890245
1548456998435,-1.031677,0.157166,-0.184875,6.646342,-4.512195,-30.975611
1548456998442,-1.028442,0.147400,-0.186157,6.646342,-3.902439,-30.121952
1548456998450,-1.026978,0.138733,-0.188232,6.158537,-3.414634,-29.390245
1548456998465,-1.023743,0.131104,-0.192139,5.731708,-3.048780,-28.536587
1548456998473,-1.024109,0.128113,-0.189697,5.426829,-2.987805,-27.743902
1548456998480,-1.026489,0.123779,-0.189270,5.121951,-3.292683,-26.890245
1548456998495,-1.023560,0.113647,-0.187500,4.817073,-3.780488,-26.097561
1548456998503,-1.020752,0.107788,-0.189880,5.182927,-4.024390,-25.243902
1548456998510,-1.020020,0.098816,-0.184631,5.670732,-3.780488,-24.512196
1548456998525,-1.016541,0.101196,-0.181580,5.731708,-3.658537,-23.902439
1548456998533,-1.014526,0.094116,-0.180542,5.365854,-3.414634,-23.231709
1548456998540,-1.014343,0.090149,-0.181763,4.329268,-3.109756,-22.621952
1548456998555,-1.017456,0.086609,-0.181396,3.597561,-2.865854,-21.951220
1548456998563,-1.017273,0.079590,-0.181946,3.170732,-2.560976,-21.036587
1548456998570,-1.019043,0.077759,-0.178955,2.621951,-2.439024,-20.548780
1548456998585,-1.023865,0.080505,-0.179504,2.073171,-2.560976,-20.121952
1548456998593,-1.025452,0.080933,-0.182434,1.768293,-2.682927,-19.817074
1548456998600,-1.024658,0.075989,-0.185791,1.280488,-2.865854,-19.390244
1548456998615,-1.021667,0.067383,-0.185852,1.158537,-2.743902,-18.780489
1548456998622,-1.022278,0.062134,-0.184143,1.585366,-2.682927,-18.231709
1548456998630,-1.020203,0.057556,-0.181641,1.585366,-2.560976,-17.743902
1548456998645,-1.023438,0.056763,-0.179443,1.280488,-2.317073,-17.195122
1548456998652,-1.024902,0.059082,-0.179077,1.097561,-2.134146,-16.585365
1548456998660,-1.026428,0.063538,-0.178894,0.853659,-2.012195,-15.853659
1548456998675,-1.028564,0.065552,-0.180969,0.670732,-1.951220,-15.182927
1548456998683,-1.029968,0.064514,-0.179993,1.158537,-2.012195,-14.573171
1548456998690,-1.031250,0.063843,-0.179626,1.646341,-2.012195,-13.963415
1548456998705,-1.031799,0.059204,-0.178345,2.378049,-1.951220,-13.292684
1548456998713,-1.032532,0.053162,-0.179749,3.170732,-1.707317,-12.621951
1548456998720,-1.029907,0.049377,-0.174683,3.719512,-1.463415,-11.890244
1548456998735,-1.026306,0.046021,-0.172180,4.146341,-1.097561,-11.036586
1548456998743,-1.023926,0.040833,-0.173523,4.329268,-0.731707,-10.121951
1548456998750,-1.025208,0.040222,-0.170349,4.268293,-0.670732,-9.146341
1548456998765,-1.023987,0.040405,-0.171326,4.512195,-0.548781,-8.353659
1548456998772,-1.025513,0.038208,-0.172485,4.329268,-0.731707,-7.439024
1548456998780,-1.027283,0.036011,-0.172241,4.024390,-0.914634,-6.707317
1548456998795,-1.025940,0.033203,-0.171143,3.841464,-1.097561,-5.914634
1548456998802,-1.027954,0.032959,-0.171570,3.902439,-1.158537,-5.121951
1548456998810,-1.028748,0.028625,-0.168213,3.414634,-1.158537,-4.268293
1548456998832,-1.028931,0.026978,-0.166443,2.560976,-1.219512,-3.414634
1548456998833,-1.031067,0.025085,-0.168091,2.134146,-1.097561,-2.560976
1548456998840,-1.033386,0.024109,-0.164062,1.524390,-0.914634,-1.829268
1548456998855,-1.030273,0.025024,-0.167969,0.670732,-0.914634,-0.975610
1548456998862,-1.023743,0.025330,-0.172485,-0.121951,0.060976,-0.060976
1548456998870,-1.028809,0.026184,-0.169983,-0.975610,-0.060976,0.792683
1548456998885,-1.035828,0.019165,-0.164917,-1.707317,-0.853659,1.402439
1548456998893,-1.023804,0.016602,-0.166199,-2.134146,-0.243902,2.134146
1548456998900,-1.020447,0.033752,-0.181030,-2.073171,0.731707,3.048780
1548456998915,-1.030579,0.034058,-0.171082,-2.500000,-0.365854,3.414634
1548456998922,-1.037415,0.038147,-0.167236,-2.682927,-1.707317,3.353659
1548456998930,-1.008667,0.030273,-0.168091,-2.378049,-0.731707,3.536585
1548456998945,-1.022461,0.027771,-0.166809,-1.951220,-0.609756,3.597561
1548456998952,-1.020996,0.033569,-0.172546,-1.280488,-1.463415,3.963415
1548456998960,-1.027100,0.027649,-0.168396,-1.890244,-0.914634,4.024390
1548456998975,-1.013245,0.025574,-0.176880,-2.378049,-0.060976,4.146341
1548456998983,-1.003540,0.031311,-0.184265,-2.317073,1.280488,4.390244
1548456998990,-1.010742,0.022156,-0.180969,-2.804878,-0.487805,4.085366
1548456999005,-1.036316,0.030090,-0.176392,-2.500000,-1.585366,3.841464
1548456999012,-1.031677,0.018005,-0.173950,-2.073171,-2.195122,3.536585
1548456999020,-0.990540,0.025146,-0.192383,-2.195122,0.975610,3.170732
1548456999035,-1.032288,0.020386,-0.175659,-2.073171,0.731707,3.231707
1548456999043,-1.025940,0.042847,-0.203613,-2.621951,-2.073171,2.682927
1548456999057,-0.994080,0.032104,-0.204651,-2.987805,0.975610,1.890244
1548456999065,-1.020386,0.025452,-0.132935,-0.060976,-4.451220,0.000000
1548456999072,-1.029236,0.004272,-0.165527,0.853659,-5.487805,0.609756
1548456999080,-1.024048,0.010803,-0.178772,0.365854,-2.682927,0.731707
1548456999095,-1.022095,0.010986,-0.165222,-0.426829,-1.707317,0.914634
1548456999102,-1.019043,0.032043,-0.169312,-1.341463,-0.609756,0.853659
1548456999110,-1.047058,0.039368,-0.179871,-3.475610,-0.548781,0.243902
1548456999125,-0.997559,0.038025,-0.203186,-4.268293,1.158537,-1.097561
1548456999132,-1.018005,0.040649,-0.178955,-1.707317,1.219512,-2.256098
1548456999140,-1.004700,0.025940,-0.176086,0.060976,-2.439024,-3.231707
1548456999155,-1.028748,0.016479,-0.165283,1.951220,-2.621951,-3.536585
1548456999163,-1.033325,0.014221,-0.161438,3.048780,-4.024390,-3.475610
1548456999170,-1.025452,0.015930,-0.164612,3.048780,-2.378049,-3.048780
1548456999185,-1.032471,0.014465,-0.163574,2.500000,-1.524390,-2.743902
1548456999193,-1.023987,0.028015,-0.164551,1.646341,-1.463415,-2.621951
1548456999200,-1.030884,0.022156,-0.170471,0.853659,-0.975610,-2.987805
1548456999215,-1.033508,0.029907,-0.168152,0.975610,-2.012195,-3.475610
1548456999223,-1.037354,0.029968,-0.167908,1.829268,-2.317073,-4.207317
1548456999230,-1.025757,0.030579,-0.170593,2.439024,-2.317073,-4.756098
1548456999245,-1.049072,0.022583,-0.163330,3.292683,-2.378049,-4.939024
1548456999253,-1.037598,0.022400,-0.165283,3.292683,-2.439024,-4.939024
1548456999260,-1.035461,0.013855,-0.167908,2.743902,0.121951,-4.268293
1548456999275,-1.025574,0.021240,-0.165894,2.073171,0.853659,-3.658537
1548456999282,-1.027161,0.021729,-0.169312,1.463415,1.036585,-3.292683
1548456999290,-1.028931,0.014404,-0.169373,1.402439,-0.121951,-3.719512
1548456999305,-1.028381,0.023254,-0.164856,1.707317,-0.853659,-3.353659
1548456999312,-1.041260,0.018005,-0.166260,1.829268,-0.975610,-2.987805
1548456999320,-1.044067,0.014648,-0.163818,1.829268,-0.304878,-3.048780
1548456999335,-1.010376,0.016052,-0.170288,2.012195,2.134146,-2.865854
1548456999342,-0.973877,0.016724,-0.184326,1.097561,3.902439,-2.621951
1548456999350,-1.009521,0.021118,-0.166626,0.792683,0.609756,-1.585366
1548456999365,-1.039001,0.018372,-0.162476,0.975610,-5.182927,-1.341463
1548456999373,-1.024780,0.017456,-0.174561,1.219512,-4.207317,-0.853659
1548456999380,-1.033203,0.023621,-0.165588,0.670732,-1.280488,-0.548781
1548456999395,-1.027344,0.028259,-0.164490,0.365854,-1.402439,-0.121951
1548456999402,-1.014404,0.020569,-0.176758,-0.182927,-1.036585,-0.121951
1548456999410,-1.016541,0.025269,-0.174072,-0.487805,-0.182927,0.060976
1548456999425,-1.026306,0.021912,-0.171570,0.000000,-2.134146,0.121951
1548456999433,-1.026428,0.023987,-0.172791,-0.121951,-2.682927,0.487805
1548456999440,-1.022949,0.019653,-0.172363,-0.060976,-2.073171,0.792683
1548456999455,-1.031555,0.017883,-0.168945,0.000000,-2.500000,0.975610
1548456999462,-1.024658,0.018311,-0.170959,-0.060976,-1.829268,1.280488
1548456999470,-1.034485,0.015503,-0.163574,0.182927,-1.646341,1.158537
1548456999485,-1.022339,0.017639,-0.168152,0.121951,-1.341463,1.585366
1548456999492,-1.030334,0.010193,-0.165710,-0.121951,-0.792683,1.768293
1548456999500,-1.024597,0.018982,-0.168213,-0.121951,-1.158537,2.012195
1548456999515,-1.020813,0.020691,-0.169617,-0.365854,-0.853659,2.073171
1548456999522,-1.032715,0.018738,-0.164368,-0.426829,-1.219512,1.829268
1548456999530,-1.006714,0.019531,-0.174194,-0.426829,-1.524390,1.890244
1548456999545,-1.033752,0.013062,-0.165527,-0.670732,-1.890244,1.951220
1548456999552,-1.026794,0.020752,-0.164001,-0.365854,-3.353659,1.585366
1548456999560,-1.029114,0.017395,-0.165100,-0.121951,-2.439024,2.012195
1548456999575,-1.017700,0.016357,-0.166077,0.060976,-1.890244,2.012195
1548456999582,-1.031616,0.017761,-0.162415,0.121951,-2.256098,1.951220
1548456999590,-1.019287,0.022888,-0.166077,0.121951,-2.317073,2.012195
1548456999605,-1.000977,0.023743,-0.176697,-0.060976,-1.768293,1.707317
1548456999613,-1.010925,0.014832,-0.173462,0.060976,-3.475610,0.792683
1548456999620,-1.076233,-0.000854,-0.149414,0.487805,-7.682927,0.000000
1548456999635,-1.043091,0.013062,-0.153076,0.853659,-7.073171,0.853659
1548456999643,-1.014709,0.025208,-0.162354,0.243902,0.792683,2.134146
1548456999650,-1.011230,0.023499,-0.163818,-0.853659,0.548781,1.097561
1548456999665,-1.015564,0.015259,-0.168823,-0.792683,-0.670732,0.792683
1548456999673,-1.038696,0.015137,-0.161560,-0.853659,-3.414634,0.182927
1548456999680,-1.029907,0.018311,-0.158020,0.060976,-2.560976,0.304878
1548456999695,-1.023499,0.026611,-0.159424,0.304878,-0.853659,0.304878
1548456999703,-1.012756,0.020325,-0.169922,0.000000,0.365854,0.243902
1548456999710,-1.028992,0.017700,-0.168030,0.060976,-0.609756,-0.426829
1548456999725,-1.031311,0.015747,-0.163513,0.365854,-1.829268,-0.609756
1548456999732,-1.036743,0.020874,-0.160156,0.670732,-0.914634,-0.304878
1548456999740,-1.025208,0.017090,-0.165161,0.548781,0.487805,-0.060976
1548456999755,-1.007324,0.020020,-0.169128,0.365854,2.073171,0.121951
1548456999762,-1.014771,0.022461,-0.165405,0.182927,1.158537,-0.121951
1548456999770,-1.028442,0.015991,-0.162903,0.243902,-1.097561,-0.853659
1548456999785,-1.033875,0.016846,-0.162903,0.548781,-0.975610,-0.609756
1548456999792,-1.023621,0.023193,-0.169983,0.243902,-0.365854,-0.426829
1548456999800,-1.031555,0.014648,-0.171265,-0.182927,0.243902,-0.365854
1548456999815,-1.036072,0.005554,-0.167480,-0.609756,-0.914634,-0.853659
1548456999823,-1.013794,0.015076,-0.180054,-1.097561,-0.121951,-0.243902
1548456999830,-1.012573,0.022705,-0.179749,-1.829268,-0.487805,-0.182927
1548456999845,-1.036743,0.015259,-0.167908,-2.073171,-4.085366,-0.914634
1548456999853,-1.045349,0.019226,-0.165527,-1.768293,-6.097561,-1.158537
1548456999860,-1.053162,0.017578,-0.161682,-1.585366,-4.634146,-1.158537
1548456999875,-1.042114,0.012085,-0.161743,-1.585366,-2.560976,-1.280488
1548456999883,-1.023193,0.017883,-0.164185,-1.402439,0.853659,-0.365854
1548456999890,-0.987488,0.010132,-0.174622,-1.829268,1.890244,0.000000
1548456999906,-1.041382,0.027832,-0.162903,-2.134146,0.000000,-0.060976
1548456999913,-1.028442,0.034546,-0.173096,-2.500000,-3.475610,-0.182927
1548456999929,-1.039429,0.016479,-0.172852,-1.829268,-0.121951,-0.182927
1548456999940,-1.028320,0.008240,-0.168274,-1.341463,0.182927,-1.097561
1548456999947,-1.011536,0.010071,-0.171875,-0.792683,1.951220,0.182927
1548456999963,-1.019592,0.009033,-0.166626,-1.158537,1.341463,0.121951
1548456999969,-1.030701,0.009583,-0.163940,-0.975610,-0.426829,-0.060976
1548456999981,-1.026123,0.012939,-0.166321,-1.097561,-0.670732,0.060976
1548456999981,-1.028992,0.013123,-0.166931,-1.280488,0.426829,0.182927
1548456999995,-1.026672,0.012024,-0.166504,-1.524390,-0.487805,0.182927
1548457000003,-1.019165,0.015686,-0.168274,-1.585366,-0.060976,0.000000
1548457000010,-1.014160,0.018555,-0.167542,-1.707317,-0.853659,-0.487805
1548457000025,-1.034363,0.019653,-0.163025,-1.707317,-1.829268,-0.426829
1548457000033,-1.037476,0.021423,-0.160645,-1.829268,-2.500000,-0.670732
1548457000040,-1.020325,0.022278,-0.163818,-1.829268,-1.402439,-0.670732
1548457000055,-1.022949,0.023071,-0.158386,-2.134146,-0.853659,-0.609756
1548457000063,-1.026794,0.021912,-0.155762,-2.073171,-1.707317,-0.731707
1548457000070,-1.023193,0.024109,-0.153625,-1.402439,-1.646341,-0.792683
1548457000085,-1.023315,0.020813,-0.151001,-0.792683,-0.792683,-1.219512
1548457000092,-1.011108,0.027222,-0.149902,-0.060976,-0.487805,-1.280488
1548457000100,-1.011047,0.025330,-0.152039,0.243902,0.121951,-1.219512
1548457000115,-1.026978,0.021179,-0.148865,0.121951,-0.670732,-1.585366
1548457000123,-1.018494,0.020386,-0.152161,0.426829,-0.731707,-1.768293
1548457000130,-1.024780,0.018127,-0.150208,0.426829,0.365854,-1.890244
1548457000145,-1.028992,0.015442,-0.152161,0.487805,0.487805,-1.951220
1548457000152,-1.032349,0.017212,-0.142151,0.670732,0.548781,-2.378049
1548457000160,-1.018860,0.021606,-0.149719,1.219512,1.829268,-2.317073
1548457000175,-1.029358,0.019470,-0.148010,1.524390,2.256098,-2.317073
1548457000182,-1.025085,0.011169,-0.153992,1.829268,1.646341,-2.682927
1548457000190,-1.019836,0.007385,-0.156738,1.890244,2.621951,-2.743902
1548457000205,-1.025269,0.006226,-0.158936,1.341463,2.560976,-2.378049
1548457000212,-1.022827,0.001282,-0.158630,0.670732,1.951220,-2.378049
1548457000220,-1.012573,0.011414,-0.163513,0.060976,1.890244,-2.378049
1548457000236,-1.007874,0.012268,-0.170959,-0.548781,0.731707,-2.500000
1548457000242,-1.022766,0.010742,-0.167419,-0.731707,-2.682927,-3.231707
1548457000250,-1.035278,0.009338,-0.160950,-0.121951,-5.670732,-3.414634
1548457000265,-1.054565,0.005737,-0.152039,0.914634,-5.975610,-3.048780
1548457000272,-1.039612,0.006287,-0.158203,1.097561,-4.817073,-3.231707
1548457000280,-1.027039,0.003723,-0.161926,1.280488,-2.134146,-3.109756
1548457000295,-1.041809,0.003601,-0.155396,1.036585,-2.256098,-2.987805
1548457000302,-1.028015,0.007202,-0.163879,0.914634,-1.951220,-2.743902
1548457000310,-1.030823,0.008667,-0.162903,1.036585,-0.792683,-2.621951
1548457000325,-1.043457,0.008423,-0.156433,0.975610,-2.743902,-2.621951
1548457000332,-1.033630,0.008850,-0.158875,1.646341,-2.621951,-2.134146
1548457000340,-1.027710,0.011414,-0.164795,1.951220,-1.646341,-2.134146
1548457000355,-1.020996,0.014771,-0.164978,2.073171,-1.585366,-1.951220
1548457000362,-1.035217,0.010681,-0.161987,2.256098,-2.865854,-2.012195
1548457000370,-1.015137,0.011963,-0.167542,2.743902,-3.109756,-1.707317
1548457000385,-1.027039,0.006409,-0.161499,3.048780,-2.195122,-1.219512
1548457000392,-1.046021,-0.001770,-0.155579,3.170732,-4.329268,-1.341463
1548457000400,-1.011902,0.011902,-0.170593,3.353659,-1.890244,0.304878
1548457000415,-1.029358,0.005005,-0.163818,2.682927,-0.243902,0.487805
1548457000422,-1.005554,0.012329,-0.170715,2.378049,-2.012195,0.731707
1548457000430,-1.041748,-0.001526,-0.162476,2.073171,-2.987805,1.219512
1548457000445,-1.053284,0.000427,-0.157837,1.768293,-5.731708,1.402439
1548457000453,-1.067017,0.014893,-0.164673,1.341463,-3.475610,3.048780
1548457000460,-1.015198,0.016235,-0.172607,0.609756,0.426829,4.024390
1548457000475,-1.022278,0.013611,-0.169800,-0.121951,2.378049,4.207317
1548457000483,-1.030151,0.015076,-0.164551,-1.158537,-1.524390,4.268293
1548457000490,-1.039917,0.017090,-0.157959,-1.036585,-2.317073,4.817073
1548457000505,-1.040710,0.022156,-0.153748,-1.036585,-2.378049,5.426829
1548457000513,-1.030701,0.023193,-0.159241,-0.914634,-0.731707,6.585366
1548457000520,-1.027344,0.024902,-0.164490,-1.036585,-0.304878,7.317073
1548457000535,-1.031494,0.029480,-0.162903,-1.219512,-0.975610,8.109756
1548457000542,-1.032166,0.029602,-0.161865,-1.341463,-1.036585,8.658537
1548457000550,-1.028992,0.022949,-0.157410,-0.914634,0.000000,9.329268
1548457000565,-1.021729,0.026611,-0.159668,-0.548781,0.304878,10.121951
1548457000573,-1.030334,0.033325,-0.158997,-0.426829,0.487805,10.914635
1548457000580,-1.036865,0.033203,-0.155884,-0.487805,-0.975610,11.524390
1548457000595,-1.024780,0.042053,-0.161194,-0.426829,0.060976,12.134147
1548457000603,-1.034851,0.041687,-0.155457,-0.609756,0.121951,12.743903
1548457000610,-1.033936,0.040710,-0.154358,-0.853659,-0.609756,13.109756
1548457000625,-1.025757,0.043762,-0.156738,-0.670732,0.060976,13.963415
1548457000633,-1.027466,0.043518,-0.154541,-0.792683,0.000000,14.451220
1548457000640,-1.027100,0.046753,-0.151794,-1.036585,-0.548781,15.000000
1548457000655,-1.024170,0.054504,-0.154846,-0.975610,-0.060976,16.036585
1548457000663,-1.021790,0.053955,-0.155273,-1.097561,-0.548781,16.463415
1548457000670,-1.026917,0.057251,-0.153564,-0.853659,-0.853659,17.439024
1548457000685,-1.042603,0.056946,-0.149841,-0.975610,-2.439024,17.987804
1548457000693,-1.026611,0.066711,-0.158752,-1.219512,-1.280488,18.902439
1548457000700,-1.029175,0.068359,-0.159302,-1.707317,0.426829,19.512196
1548457000715,-1.025269,0.074158,-0.158875,-2.317073,-0.304878,20.000000
1548457000723,-1.026550,0.075562,-0.159485,-2.500000,-0.243902,20.609756
1548457000730,-1.029846,0.077576,-0.153992,-2.500000,-0.548781,21.158537
1548457000745,-1.032532,0.078674,-0.156494,-2.500000,-0.243902,22.134148
1548457000753,-1.026489,0.089417,-0.156616,-2.500000,0.426829,23.109756
1548457000760,-1.022034,0.095337,-0.162842,-2.865854,1.280488,24.085367
1548457000775,-1.030151,0.095276,-0.160828,-3.414634,1.097561,24.268293
1548457000783,-1.026611,0.098694,-0.164185,-3.536585,0.853659,24.756098
1548457000798,-1.027771,0.103271,-0.166626,-3.780488,1.341463,25.426830
1548457000805,-1.025146,0.106018,-0.168091,-3.780488,1.585366,26.036587
1548457000813,-1.022400,0.113220,-0.167114,-3.719512,1.707317,26.646341
1548457000820,-1.021484,0.117493,-0.169861,-3.536585,1.341463,27.256098
1548457000835,-1.035583,0.121033,-0.166748,-3.414634,0.548781,27.500000
1548457000843,-1.024841,0.124634,-0.169556,-3.231707,0.487805,28.231709
1548457000850,-1.020874,0.125854,-0.171265,-3.170732,2.073171,28.963415
1548457000865,-1.009033,0.133667,-0.173096,-3.170732,2.073171,29.207317
1548457000873,-1.017151,0.134460,-0.169617,-2.743902,1.829268,29.634148
1548457000880,-1.023132,0.143555,-0.170349,-2.195122,0.731707,29.878050
1548457000895,-1.021606,0.148682,-0.167358,-1.951220,0.731707,30.487806
1548457000903,-1.017822,0.149597,-0.166870,-2.012195,1.585366,30.853659
1548457000910,-1.028015,0.159546,-0.162842,-1.951220,2.012195,31.707317
1548457000925,-1.016174,0.155334,-0.166077,-2.134146,2.134146,31.646341
1548457000933,-1.001709,0.170776,-0.170349,-2.134146,3.353659,31.707317
1548457000940,-1.017090,0.173218,-0.163269,-2.256098,2.500000,32.073170
1548457000955,-1.017700,0.184204,-0.163574,-2.378049,1.036585,31.890245
1548457000963,-1.013062,0.180542,-0.166687,-2.256098,2.073171,32.439026
1548457000970,-1.011963,0.184082,-0.173401,-2.256098,2.865854,32.865856
1548457000985,-1.008667,0.190491,-0.175049,-2.378049,2.926829,33.536587
1548457000993,-1.013672,0.191772,-0.172119,-2.926829,2.560976,33.841465
1548457001000,-1.008667,0.198425,-0.174011,-3.170732,2.621951,33.963417
1548457001015,-0.999329,0.199402,-0.172424,-3.292683,2.865854,33.780487
1548457001023,-0.996582,0.221497,-0.169983,-2.865854,2.804878,34.085365
1548457001030,-1.011047,0.224487,-0.160950,-2.439024,1.036585,34.085365
1548457001045,-1.001526,0.234497,-0.163696,-2.012195,0.365854,33.780487
1548457001053,-1.006958,0.230713,-0.160461,-1.219512,1.524390,33.841465
1548457001060,-1.001587,0.244873,-0.161865,-0.670732,1.341463,34.268295
1548457001075,-0.989075,0.238464,-0.166565,-0.670732,2.439024,34.512196
1548457001083,-0.996094,0.239441,-0.164307,-0.914634,2.195122,34.329269
1548457001090,-0.986267,0.253784,-0.166748,-1.341463,1.951220,34.390244
1548457001105,-0.987915,0.259033,-0.171387,-2.073171,2.743902,34.329269
1548457001113,-1.000488,0.257690,-0.169312,-2.621951,1.707317,34.329269
1548457001120,-0.980042,0.263000,-0.173462,-2.926829,2.317073,34.207317
1548457001135,-0.981934,0.267273,-0.173279,-2.804878,2.987805,34.024391
1548457001143,-0.972046,0.276672,-0.177246,-2.804878,1.890244,33.780487
1548457001150,-0.975830,0.284668,-0.168945,-2.682927,0.731707,33.719513
1548457001165,-0.996582,0.296509,-0.163452,-2.256098,-0.914634,33.597561
1548457001173,-0.971985,0.302368,-0.170532,-2.073171,-0.182927,33.475609
1548457001180,-0.972839,0.300720,-0.168518,-2.073171,1.402439,33.353661
1548457001195,-0.965881,0.308472,-0.169922,-1.524390,0.609756,33.231709
1548457001203,-0.980469,0.314697,-0.167725,-1.402439,0.670732,33.170731
1548457001210,-0.966064,0.329224,-0.171570,-1.768293,0.060976,32.804878
1548457001225,-0.956360,0.324585,-0.170105,-1.646341,1.585366,32.256100
1548457001232,-0.964111,0.331238,-0.169434,-1.036585,0.609756,31.951220
1548457001240,-0.958313,0.335754,-0.179077,-0.792683,0.182927,31.768293
1548457001255,-0.950806,0.341492,-0.177979,-0.182927,0.670732,31.463415
1548457001263,-0.958740,0.336304,-0.169556,0.487805,0.182927,31.097561
1548457001270,-0.949707,0.349060,-0.171265,0.731707,-0.121951,30.670732
1548457001285,-0.955811,0.348145,-0.171814,0.792683,0.182927,30.670732
1548457001293,-0.950317,0.350708,-0.169617,0.426829,0.243902,30.182928
1548457001300,-0.947937,0.353821,-0.173645,0.365854,1.707317,29.817074
1548457001315,-0.948914,0.361572,-0.170776,0.060976,2.012195,29.512196
1548457001323,-0.943848,0.366394,-0.173584,0.060976,2.439024,29.268293
1548457001330,-0.936829,0.375549,-0.181946,-0.121951,2.134146,28.902439
1548457001346,-0.941345,0.383606,-0.179626,0.243902,2.195122,28.475611
1548457001353,-0.932617,0.383240,-0.182678,0.365854,1.280488,27.926830
1548457001360,-0.943970,0.387817,-0.173157,0.365854,0.670732,27.500000
1548457001375,-0.940369,0.393250,-0.177002,0.792683,0.060976,26.890245
1548457001383,-0.938293,0.396729,-0.174622,1.158537,1.280488,26.463415
1548457001390,-0.926270,0.409912,-0.174927,1.341463,1.585366,25.914635
1548457001412,-0.926758,0.408569,-0.174561,1.524390,1.524390,25.731709
1548457001413,-0.927429,0.408691,-0.175659,1.463415,0.975610,25.304878
1548457001420,-0.915833,0.406555,-0.178711,1.768293,1.585366,25.426830
1548457001435,-0.913269,0.410339,-0.172913,1.585366,2.439024,25.365854
1548457001443,-0.917725,0.415588,-0.171265,1.890244,2.743902,25.548780
1548457001450,-0.920044,0.425171,-0.174744,1.707317,3.109756,25.792683
1548457001465,-0.919373,0.441345,-0.184387,1.463415,3.475610,26.036587
1548457001473,-0.905090,0.437805,-0.193176,0.914634,4.512195,26.036587
1548457001480,-0.918945,0.449036,-0.191040,0.731707,3.536585,25.792683
1548457001495,-0.929199,0.452576,-0.188110,1.707317,1.829268,25.670732
1548457001503,-0.914856,0.455566,-0.190735,2.621951,2.500000,25.792683
1548457001510,-0.908264,0.461182,-0.183777,3.109756,3.658537,26.219513
1548457001525,-0.908997,0.461426,-0.182434,3.536585,3.475610,26.524391
1548457001533,-0.917175,0.468689,-0.186035,3.841464,3.048780,27.073172
1548457001540,-0.898682,0.468506,-0.192200,3.170732,3.536585,27.560976
1548457001555,-0.919495,0.471191,-0.190430,2.500000,3.658537,27.865854
1548457001562,-0.907471,0.472290,-0.190918,1.768293,3.109756,28.109756
1548457001570,-0.887207,0.475586,-0.196716,1.219512,5.182927,28.536587
1548457001585,-0.899414,0.484802,-0.190613,1.463415,4.817073,29.024391
1548457001593,-0.895447,0.491028,-0.186707,2.012195,3.475610,29.268293
1548457001600,-0.889954,0.504089,-0.189636,2.012195,4.207317,29.695122
1548457001615,-0.903381,0.500793,-0.182678,2.012195,3.597561,29.634148
1548457001622,-0.872681,0.501831,-0.193420,2.073171,4.024390,29.451220
1548457001630,-0.878845,0.505310,-0.192200,2.134146,5.609756,29.695122
1548457001645,-0.884460,0.499146,-0.185486,1.707317,4.146341,29.817074
1548457001653,-0.860107,0.502747,-0.186462,1.829268,4.512195,30.121952
1548457001660,-0.857300,0.496094,-0.189087,2.012195,6.036585,30.365854
1548457001675,-0.856445,0.498169,-0.192200,0.914634,5.731708,29.085367
1548457001683,-0.843811,0.527771,-0.187012,0.426829,5.365854,27.926830
1548457001690,-0.861450,0.536560,-0.191406,-0.060976,3.902439,27.865854
1548457001705,-0.870544,0.541443,-0.192200,-0.487805,1.585366,28.170732
1548457001712,-0.874695,0.547607,-0.191406,0.548781,1.646341,28.414635
1548457001720,-0.861389,0.544312,-0.191528,1.158537,3.414634,27.865854
1548457001735,-0.847839,0.538635,-0.191589,1.707317,4.512195,27.195122
1548457001743,-0.851074,0.540771,-0.189758,1.768293,3.963415,26.585367
1548457001750,-0.835327,0.535095,-0.197876,1.768293,4.024390,26.036587
1548457001765,-0.833435,0.545349,-0.202515,1.707317,4.634146,25.487806
1548457001773,-0.842407,0.546631,-0.199524,2.073171,3.353659,25.304878
1548457001780,-0.834595,0.549988,-0.207642,2.560976,3.780488,24.573172
1548457001795,-0.811951,0.551147,-0.209167,3.048780,5.121951,24.146341
1548457001803,-0.824341,0.551392,-0.203064,3.170732,4.390244,23.658537
1548457001810,-0.823120,0.547668,-0.200134,3.414634,3.292683,22.865854
1548457001825,-0.832520,0.570862,-0.203857,3.963415,4.085366,22.804878
1548457001840,-0.829956,0.574829,-0.212952,3.231707,4.451220,22.012196
1548457001841,-0.818970,0.585693,-0.227112,2.134146,5.182927,20.975611
1548457001855,-0.807190,0.610962,-0.238708,2.195122,4.939024,19.695122
1548457001862,-0.795715,0.503052,-0.206787,3.963415,0.121951,17.012196
1548457001870,-0.846191,0.557739,-0.195923,4.573171,0.731707,18.841463
1548457001885,-0.782654,0.551636,-0.216553,4.939024,1.707317,18.536585
1548457001893,-0.790161,0.576233,-0.212708,1.829268,6.463415,18.963415
1548457001900,-0.796021,0.581299,-0.218323,0.853659,3.963415,18.353659
1548457001915,-0.799255,0.591003,-0.227478,-0.792683,3.597561,17.621952
1548457001923,-0.797363,0.592407,-0.223816,-0.731707,3.780488,16.463415
1548457001930,-0.787964,0.578430,-0.217163,-0.060976,3.597561,15.304878
1548457001945,-0.796814,0.594604,-0.224121,-0.243902,3.597561,14.756098
1548457001952,-0.798828,0.594666,-0.226990,-0.182927,2.987805,14.085366
1548457001960,-0.800049,0.598145,-0.219177,0.000000,2.682927,13.353659
1548457001975,-0.793518,0.596985,-0.221497,-0.060976,2.804878,12.195122
1548457001983,-0.791687,0.603577,-0.222717,-0.670732,2.804878,11.219512
1548457001990,-0.782104,0.587036,-0.218750,-0.792683,2.500000,10.121951
1548457002005,-0.787170,0.585083,-0.213379,-0.487805,2.743902,9.756098
1548457002013,-0.786072,0.592957,-0.216125,0.060976,3.475610,10.000000
1548457002020,-0.768799,0.582581,-0.216003,0.000000,5.487805,9.573171
1548457002035,-0.782776,0.599915,-0.214050,0.304878,6.158537,9.268292
1548457002042,-0.789551,0.608704,-0.216492,0.304878,5.426829,8.841464
1548457002050,-0.772156,0.609253,-0.219788,0.548781,6.158537,7.865854
1548457002065,-0.783508,0.627930,-0.226440,1.158537,6.158537,7.500000
1548457002073,-0.783264,0.625000,-0.222900,1.646341,4.024390,6.219512
1548457002080,-0.789001,0.618896,-0.221130,2.317073,1.829268,4.756098
1548457002095,-0.792786,0.625366,-0.219727,2.378049,-0.243902,3.536585
1548457002103,-0.785950,0.602722,-0.213623,1.829268,-1.524390,2.012195
1548457002110,-0.778198,0.601501,-0.208069,1.402439,-1.951220,1.280488
1548457002125,-0.765564,0.600708,-0.206665,1.219512,-1.219512,1.158537
1548457002133,-0.763977,0.603210,-0.205811,0.670732,0.365854,1.402439
1548457002140,-0.766907,0.597473,-0.204834,0.304878,2.256098,1.219512
1548457002155,-0.769836,0.606140,-0.209290,0.243902,4.390244,1.097561
1548457002163,-0.778259,0.615234,-0.223877,-0.060976,4.878049,1.036585
1548457002170,-0.778564,0.616333,-0.231323,-0.121951,3.719512,0.487805
1548457002185,-0.784119,0.618713,-0.230347,0.365854,1.585366,-0.365854
1548457002193,-0.789124,0.615479,-0.228699,1.768293,-0.670732,-1.280488
1548457002200,-0.792725,0.625061,-0.221313,2.500000,-3.048780,-1.951220
1548457002215,-0.791809,0.622620,-0.210754,2.682927,-4.512195,-2.621951
1548457002223,-0.784058,0.615112,-0.214844,2.743902,-4.634146,-3.597561
1548457002230,-0.769714,0.607483,-0.222290,2.682927,-3.109756,-3.963415
1548457002245,-0.767029,0.587097,-0.219360,2.134146,-1.280488,-3.780488
1548457002253,-0.767151,0.586243,-0.221069,1.646341,-0.243902,-3.292683
1548457002260,-0.763489,0.613770,-0.236877,1.097561,0.060976,-2.378049
1548457002275,-0.792480,0.585327,-0.231934,0.304878,-1.829268,-2.865854
1548457002283,-0.783508,0.611145,-0.236633,0.670732,-6.036585,-3.963415
1548457002290,-0.814758,0.629639,-0.227295,1.158537,-6.585366,-4.024390
1548457002305,-0.831360,0.594666,-0.209717,0.365854,-9.817074,-5.548780
1548457002313,-0.751465,0.625916,-0.229797,1.341463,-3.109756,-4.634146
1548457002320,-0.815491,0.612610,-0.206909,0.731707,-2.987805,-3.658537
1548457002335,-0.770813,0.614746,-0.226746,0.000000,-3.780488,-3.963415
1548457002343,-0.793152,0.611328,-0.228455,0.121951,-0.304878,-3.231707
1548457002350,-0.790100,0.616455,-0.223022,0.792683,-1.524390,-4.024390
1548457002373,-0.768616,0.610901,-0.231323,1.951220,0.365854,-3.780488
1548457002373,-0.786194,0.600342,-0.226440,1.890244,0.548781,-3.658537
1548457002380,-0.785217,0.612549,-0.237000,2.256098,-1.158537,-3.231707
1548457002395,-0.809509,0.618347,-0.231628,1.829268,-2.195122,-3.048780
1548457002403,-0.839661,0.609436,-0.222290,1.097561,-3.109756,-3.719512
1548457002410,-0.768982,0.610718,-0.246155,0.914634,-0.182927,-3.963415
1548457002425,-0.784546,0.610291,-0.236572,0.975610,2.195122,-3.719512
1548457002433,-0.817078,0.605530,-0.222229,1.402439,-2.560976,-3.841464
1548457002440,-0.801270,0.598511,-0.232361,1.463415,-2.439024,-3.353659
1548457002455,-0.783325,0.598206,-0.236084,0.914634,1.402439,-2.621951
1548457002463,-0.814392,0.598572,-0.224182,0.914634,0.060976,-2.134146
1548457002470,-0.836060,0.599182,-0.225830,0.670732,-1.646341,-2.682927
1548457002485,-0.787903,0.620239,-0.238159,0.304878,2.439024,-2.378049
1548457002493,-0.820251,0.604919,-0.234985,-0.243902,1.890244,-2.987805
1548457002500,-0.807983,0.584595,-0.233154,0.487805,-1.402439,-3.353659
1548457002515,-0.799927,0.586426,-0.222839,1.158537,-1.036585,-3.414634
1548457002523,-0.797852,0.582764,-0.222656,1.219512,-1.829268,-3.353659
1548457002530,-0.787231,0.585754,-0.228577,0.487805,-1.768293,-2.865854
1548457002545,-0.788940,0.585999,-0.224243,-0.304878,-1.341463,-2.378049
1548457002553,-0.796448,0.590332,-0.217590,-0.853659,-1.524390,-2.134146
1548457002560,-0.796997,0.592346,-0.221924,-1.890244,-1.097561,-2.073171
1548457002575,-0.790588,0.592712,-0.220276,-2.926829,-0.243902,-2.195122
1548457002583,-0.784729,0.600098,-0.217346,-2.865854,0.487805,-2.134146
1548457002590,-0.791382,0.603455,-0.212524,-2.560976,1.158537,-1.829268
1548457002605,-0.793640,0.613708,-0.215393,-2.743902,1.463415,-1.646341
1548457002613,-0.798889,0.616882,-0.218201,-2.926829,1.463415,-2.073171
1548457002620,-0.794373,0.624939,-0.224915,-2.804878,0.487805,-3.048780
1548457002642,-0.792969,0.598816,-0.214478,-1.524390,0.000000,-3.902439
1548457002643,-0.794861,0.593628,-0.209412,0.243902,-0.853659,-4.268293
1548457002650,-0.789368,0.612366,-0.218201,1.341463,0.000000,-3.658537
1548457002665,-0.788147,0.593994,-0.213989,1.158537,1.036585,-3.414634
1548457002674,-0.795715,0.595642,-0.219910,0.609756,0.792683,-3.536585
1548457002680,-0.801575,0.584778,-0.224304,0.121951,-0.243902,-3.963415
1548457002695,-0.807495,0.590698,-0.219910,0.060976,-1.036585,-4.268293
1548457002703,-0.811096,0.589844,-0.221863,0.121951,-0.975610,-4.146341
1548457002710,-0.807312,0.593262,-0.225769,-0.853659,-1.219512,-4.634146
1548457002725,-0.808350,0.583374,-0.219910,-0.914634,-1.402439,-5.182927
1548457002733,-0.805481,0.579651,-0.209106,-0.792683,-2.134146,-6.341464
1548457002740,-0.806580,0.587402,-0.218140,-1.341463,-2.195122,-6.463415
1548457002755,-0.808655,0.581055,-0.225098,-3.231707,-2.621951,-7.073171
1548457002763,-0.807007,0.576538,-0.226685,-3.902439,-2.560976,-7.256098
1548457002770,-0.814453,0.570312,-0.220642,-3.292683,-2.378049,-7.804878
1548457002785,-0.809204,0.584412,-0.218201,-2.865854,-2.073171,-8.292683
1548457002793,-0.803650,0.585754,-0.219360,-2.804878,-0.975610,-8.841464
1548457002800,-0.811218,0.574585,-0.216003,-2.560976,-0.975610,-9.878049
1548457002815,-0.812073,0.571777,-0.216858,-0.914634,-1.036585,-10.609756
1548457002823,-0.812378,0.568542,-0.218811,0.426829,-0.548781,-11.219512
1548457002830,-0.806824,0.569946,-0.221191,1.341463,-1.219512,-12.012196
1548457002845,-0.810181,0.569153,-0.219604,2.134146,-2.560976,-12.987805
1548457002853,-0.820251,0.563293,-0.216919,2.804878,-4.268293,-13.902439
1548457002860,-0.819580,0.563171,-0.220276,3.292683,-5.243903,-14.329268
1548457002875,-0.814209,0.552551,-0.222900,3.353659,-5.182927,-15.000000
1548457002883,-0.806458,0.548645,-0.221191,3.536585,-4.451220,-15.426829
1548457002890,-0.816406,0.541504,-0.213623,4.207317,-3.719512,-15.548780
1548457002905,-0.829102,0.551270,-0.208252,4.085366,-3.902439,-15.914635
1548457002913,-0.840759,0.559631,-0.218262,3.231707,-3.231707,-16.341463
1548457002920,-0.811340,0.544556,-0.233521,1.951220,-2.865854,-17.134148
1548457002935,-0.836548,0.521729,-0.215698,1.707317,-4.268293,-17.865854
1548457002943,-0.871887,0.548096,-0.205322,2.439024,-7.865854,-18.292683
1548457002950,-0.836304,0.540771,-0.206543,1.890244,-6.585366,-18.780489
1548457002965,-0.828918,0.555298,-0.206543,0.853659,-3.353659,-19.146341
1548457002973,-0.838074,0.560547,-0.217224,-0.243902,-4.695122,-19.268293
1548457002980,-0.870667,0.588013,-0.218445,-0.365854,-6.280488,-20.426830
1548457002995,-0.841797,0.534607,-0.212097,1.158537,-4.817073,-22.378050
1548457003003,-0.831543,0.519958,-0.214478,2.073171,-1.036585,-22.621952
1548457003010,-0.826233,0.485535,-0.209473,3.902439,-0.609756,-21.524391
1548457003025,-0.852356,0.539795,-0.221680,4.207317,-0.487805,-20.182928
1548457003033,-0.858093,0.540771,-0.212585,3.841464,0.121951,-20.365854
1548457003040,-0.862793,0.532532,-0.220093,2.865854,0.000000,-20.792683
1548457003055,-0.852539,0.518738,-0.237976,2.743902,-0.609756,-21.768293
1548457003063,-0.854248,0.515198,-0.220337,5.060976,-2.865854,-20.426830
1548457003070,-0.857483,0.513123,-0.238525,4.817073,-2.621951,-21.341463
1548457003085,-0.906677,0.526855,-0.209961,4.878049,-7.317073,-20.304878
1548457003093,-0.880859,0.514893,-0.217957,4.939024,-8.109756,-21.951220
1548457003100,-0.867615,0.499146,-0.216736,4.573171,-3.780488,-20.792683
1548457003116,-0.921936,0.531616,-0.195068,4.207317,-5.121951,-20.304878
1548457003123,-0.872314,0.500427,-0.210083,4.085366,-4.634146,-20.853659
1548457003130,-0.815613,0.450195,-0.232849,1.158537,-0.914634,-19.756098
1548457003145,-0.877319,0.476135,-0.210022,2.865854,-2.804878,-19.329269
1548457003153,-0.839050,0.335754,-0.164856,6.097561,-8.414635,-18.780489
1548457003160,-0.884827,0.411377,-0.194031,2.560976,-5.243903,-15.182927
1548457003175,-0.918884,0.551941,-0.238831,-1.951220,-5.548780,-9.451220
1548457003183,-0.913513,0.507996,-0.220520,-10.121951,-5.914634,-15.182927
1548457003190,-0.893372,0.528992,-0.215820,-10.243902,-2.073171,-17.926830
1548457003205,-0.890503,0.511597,-0.207031,-7.682927,-2.743902,-20.121952
1548457003213,-0.879211,0.497620,-0.207214,-5.609756,-3.353659,-21.524391
1548457003220,-0.893066,0.464172,-0.193481,-2.682927,-3.597561,-21.463415
1548457003235,-0.885437,0.464172,-0.203613,-0.487805,-5.731708,-20.975611
1548457003243,-0.917542,0.450134,-0.183838,0.548781,-5.487805,-20.426830
1548457003250,-0.889038,0.448120,-0.195251,-0.060976,-5.182927,-20.792683
1548457003265,-0.876526,0.444641,-0.212830,-1.280488,-2.256098,-21.219513
1548457003273,-0.908997,0.447449,-0.204346,-1.890244,-4.451220,-22.500000
1548457003281,-0.903442,0.443604,-0.212097,-2.012195,-5.731708,-23.536587
1548457003295,-0.890320,0.419983,-0.195435,-1.158537,-3.902439,-24.329269
1548457003303,-0.894958,0.431458,-0.202942,-0.243902,-2.134146,-24.207317
1548457003313,-0.922607,0.413269,-0.195557,0.121951,-4.451220,-24.817074
1548457003325,-0.886536,0.416992,-0.201294,0.975610,-4.207317,-25.365854
1548457003333,-0.931641,0.420776,-0.197205,1.219512,-4.451220,-25.548780
1548457003340,-0.914185,0.416443,-0.191406,0.792683,-7.500000,-26.890245
1548457003355,-0.931580,0.422119,-0.198425,0.975610,-5.487805,-27.682928
1548457003363,-0.939819,0.419800,-0.189209,1.097561,-6.890244,-28.597561
1548457003370,-0.894531,0.404053,-0.194641,1.341463,-4.512195,-29.573172
1548457003385,-0.946289,0.395142,-0.193359,1.402439,-4.756098,-30.000000
1548457003393,-0.911987,0.388428,-0.200745,1.219512,-6.646342,-30.731709
1548457003400,-0.908752,0.369263,-0.197693,1.158537,-3.231707,-30.670732
1548457003415,-0.916809,0.365540,-0.198853,0.975610,-3.963415,-30.731709
1548457003423,-0.924866,0.390503,-0.200195,0.121951,-4.207317,-30.365854
1548457003430,-0.953796,0.364258,-0.197571,-1.219512,-5.000000,-30.548780
1548457003445,-0.931396,0.372314,-0.211243,-1.829268,-4.085366,-30.975611
1548457003453,-0.928894,0.392090,-0.208679,-1.036585,-3.048780,-30.670732
1548457003460,-0.978882,0.377869,-0.192078,-0.914634,-4.634146,-31.646341
1548457003475,-0.939331,0.388367,-0.204041,0.000000,-5.426829,-31.829269
1548457003483,-0.959595,0.372925,-0.206787,1.463415,-3.658537,-31.829269
1548457003490,-0.974426,0.365845,-0.199768,2.256098,-5.731708,-31.951220
1548457003505,-0.956909,0.344666,-0.191406,3.780488,-5.060976,-31.707317
1548457003513,-0.957764,0.352966,-0.193787,4.634146,-3.414634,-31.219513
1548457003520,-0.971680,0.343872,-0.190186,4.207317,-3.658537,-30.609756
1548457003535,-0.978027,0.341614,-0.190613,2.621951,-4.329268,-30.975611
1548457003542,-0.966736,0.344299,-0.198730,1.707317,-2.621951,-30.731709
1548457003550,-0.955444,0.314331,-0.204773,1.402439,-0.914634,-31.341465
1548457003565,-0.985901,0.306274,-0.188904,1.707317,-2.621951,-31.097561
1548457003573,-0.973816,0.309814,-0.190247,2.439024,-3.963415,-30.365854
1548457003580,-0.961365,0.308777,-0.190613,2.500000,-2.012195,-29.634148
1548457003595,-0.970947,0.300720,-0.186951,1.768293,-2.865854,-29.573172
1548457003603,-0.941101,0.297974,-0.191895,1.585366,-1.707317,-29.024391
1548457003610,-0.978821,0.301758,-0.181702,1.463415,-3.597561,-28.719513
1548457003625,-1.009155,0.278748,-0.163879,1.524390,-7.073171,-28.902439
1548457003633,-0.978088,0.284912,-0.177795,2.073171,-5.243903,-28.780489
1548457003640,-0.976868,0.297180,-0.174744,2.682927,-2.134146,-27.743902
1548457003655,-0.996094,0.280457,-0.174866,2.256098,-2.926829,-28.170732
1548457003663,-0.980896,0.276428,-0.185425,1.463415,-2.500000,-27.804878
1548457003670,-0.989502,0.275757,-0.187622,1.280488,-2.256098,-27.621952
1548457003685,-0.989136,0.263733,-0.181702,2.073171,-3.536585,-27.317074
1548457003693,-0.990540,0.253723,-0.175659,2.987805,-2.439024,-27.439026
1548457003700,-1.012207,0.256409,-0.174194,3.475610,-3.048780,-26.829269
1548457003715,-0.987244,0.261414,-0.184937,2.926829,-3.292683,-26.585367
1548457003723,-0.967346,0.252625,-0.197571,2.621951,-2.256098,-26.402439
1548457003730,-0.983154,0.238342,-0.188660,2.743902,-4.695122,-26.585367
1548457003745,-1.037476,0.228088,-0.165894,4.024390,-8.231708,-25.975611
1548457003753,-0.994385,0.225403,-0.177307,4.390244,-7.926829,-25.792683
1548457003760,-0.997253,0.230774,-0.177490,3.963415,-2.560976,-24.939026
1548457003775,-1.022888,0.230103,-0.168274,3.231707,-4.756098,-25.000000
1548457003783,-0.991150,0.216309,-0.182129,2.500000,-3.780488,-24.695122
1548457003790,-1.007263,0.216187,-0.175842,2.012195,-1.463415,-24.573172
1548457003805,-0.999695,0.214233,-0.183411,2.317073,-2.743902,-23.780489
1548457003813,-0.992615,0.206726,-0.184143,2.134146,-1.463415,-23.780489
1548457003820,-1.004272,0.197815,-0.181091,2.621951,-1.829268,-23.292683
1548457003835,-0.998718,0.212036,-0.184753,2.682927,-2.865854,-23.048780
1548457003843,-1.006470,0.196106,-0.188293,2.256098,-1.951220,-23.109756
1548457003850,-1.000183,0.193848,-0.187012,2.682927,-2.743902,-22.743902
1548457003865,-1.006836,0.181458,-0.186096,3.231707,-2.500000,-22.439024
1548457003873,-1.011963,0.176697,-0.182983,3.536585,-3.353659,-22.317074
1548457003880,-1.010864,0.168396,-0.184753,4.024390,-3.170732,-21.768293
1548457003895,-0.993286,0.185608,-0.189636,3.658537,-2.682927,-21.463415
1548457003903,-1.018616,0.168579,-0.183838,3.109756,-3.353659,-20.853659
1548457003910,-1.035217,0.183167,-0.182800,2.378049,-5.060976,-20.914635
1548457003925,-1.004639,0.162170,-0.195190,2.134146,-1.890244,-20.182928
1548457003933,-0.996582,0.154541,-0.192688,1.768293,-0.975610,-20.731709
1548457003940,-1.040100,0.171265,-0.172241,2.621951,-2.987805,-18.780489
1548457003955,-1.004395,0.151489,-0.189819,2.256098,-3.780488,-19.329269
1548457003963,-1.003967,0.153625,-0.190369,2.134146,1.158537,-19.024391
1548457003970,-1.027649,0.143372,-0.175598,2.621951,-1.951220,-18.414635
1548457003985,-0.999939,0.152039,-0.190674,2.195122,-2.256098,-17.804878
1548457003993,-1.027893,0.147339,-0.185669,1.646341,-0.426829,-17.134148
1548457004000,-1.009644,0.130981,-0.181580,1.524390,-1.341463,-17.439024
1548457004015,-1.005249,0.143555,-0.187012,1.585366,0.304878,-16.524391
1548457004023,-1.022095,0.135071,-0.188049,0.548781,-0.060976,-16.585365
1548457004030,-1.004456,0.132324,-0.184021,0.975610,-1.280488,-16.524391
1548457004045,-1.022339,0.124207,-0.181641,1.097561,-1.768293,-16.768293
1548457004053,-0.998169,0.123474,-0.178894,0.914634,-1.585366,-16.341463
1548457004060,-1.008301,0.133118,-0.177612,2.012195,-2.073171,-16.036585
1548457004075,-1.041138,0.123230,-0.166077,2.500000,-4.146341,-15.975610
1548457004083,-1.031616,0.103882,-0.172302,1.707317,-4.085366,-16.585365
1548457004090,-1.002380,0.105835,-0.174072,2.134146,-0.060976,-16.890244
1548457004105,-1.016968,0.101501,-0.176208,1.402439,0.548781,-16.951220
1548457004113,-1.019348,0.109802,-0.172791,0.487805,-1.524390,-17.317074
1548457004120,-1.024719,0.102173,-0.168579,1.036585,-1.768293,-17.256098
1548457004135,-1.020325,0.098511,-0.172241,0.914634,-0.975610,-17.743902
1548457004143,-1.007385,0.092529,-0.177490,1.036585,-0.365854,-18.048780
1548457004150,-1.004639,0.102661,-0.177673,1.768293,-0.487805,-17.134148
1548457004165,-1.025330,0.100159,-0.172607,2.012195,-3.231707,-16.585365
1548457004173,-1.029846,0.092224,-0.167786,2.317073,-5.060976,-16.890244
1548457004180,-1.037109,0.086853,-0.163818,3.536585,-4.756098,-16.890244
1548457004195,-1.051208,0.082886,-0.150635,3.902439,-3.658537,-16.951220
1548457004203,-1.024780,0.058655,-0.164978,4.146341,-1.646341,-17.317074
1548457004210,-1.004333,0.076416,-0.170959,4.207317,1.097561,-16.585365
1548457004225,-1.018738,0.082581,-0.169800,4.146341,0.487805,-14.817074
1548457004233,-1.015198,0.060059,-0.177673,3.902439,-1.768293,-14.451220
1548457004240,-1.016479,0.098206,-0.137939,4.451220,-1.463415,-13.780488
1548457004256,-1.018433,0.079102,-0.184326,5.426829,-2.439024,-12.682927
1548457004263,-1.033325,0.088684,-0.170471,0.975610,-3.231707,-13.292684
1548457004270,-1.038025,0.083618,-0.151855,5.731708,-4.329268,-12.439025
1548457004286,-1.035522,0.072327,-0.172668,4.024390,-3.719512,-12.804878
1548457004293,-1.030823,0.065430,-0.179199,4.756098,-2.743902,-11.829268
1548457004300,-1.037354,0.065552,-0.163269,5.365854,-3.658537,-11.036586
1548457004316,-1.029785,0.025269,-0.171265,5.365854,-3.536585,-10.487805
1548457004323,-1.004822,0.074158,-0.168579,5.243903,-3.658537,-8.841464
1548457004330,-1.051208,0.063782,-0.159607,0.243902,-3.353659,-8.475610
1548457004345,-1.005249,0.048767,-0.181458,2.804878,-5.487805,-7.317073
1548457004352,-1.023132,0.085144,-0.151489,-1.524390,-3.048780,-6.768293
1548457004361,-1.028870,0.051819,-0.178772,0.548781,-3.597561,-5.975610
1548457004375,-1.020264,0.057007,-0.172852,-0.609756,-3.597561,-5.304878
1548457004383,-1.036011,0.056641,-0.172485,-0.731707,-2.378049,-4.756098
1548457004390,-1.012634,0.061523,-0.170532,-0.548781,-1.585366,-3.658537
1548457004406,-1.017395,0.057373,-0.174866,-0.914634,-0.304878,-2.317073
1548457004413,-1.029663,0.059814,-0.176514,-2.073171,-2.195122,-1.768293
1548457004420,-1.029846,0.060364,-0.173950,-2.134146,-1.829268,-0.731707
1548457004435,-1.030457,0.057678,-0.173279,-2.073171,-1.280488,-0.060976
1548457004443,-1.034119,0.054077,-0.178467,-2.134146,-0.365854,0.365854
1548457004450,-1.027954,0.057190,-0.170959,-1.341463,-0.304878,1.280488
1548457004465,-1.036438,0.049805,-0.178894,-1.280488,-0.243902,1.890244
1548457004473,-1.037720,0.049927,-0.172485,-1.646341,-0.121951,2.439024
1548457004480,-1.029236,0.054077,-0.172241,-1.585366,0.060976,3.292683
1548457004495,-1.025208,0.059937,-0.171570,-1.585366,0.609756,4.024390
1548457004503,-1.038513,0.051025,-0.161804,-1.158537,-0.304878,4.024390
1548457004510,-1.029602,0.050415,-0.164490,-0.670732,-0.121951,4.268293
1548457004525,-1.018921,0.054199,-0.167419,-0.487805,0.975610,4.817073
1548457004533,-1.010498,0.053345,-0.166260,-0.365854,1.524390,4.939024
1548457004540,-1.018738,0.048828,-0.163208,-0.609756,0.609756,4.817073
1548457004555,-1.023071,0.050415,-0.160339,-0.792683,-0.365854,4.817073
1548457004563,-1.026306,0.046997,-0.160583,-0.975610,-0.487805,5.000000
1548457004570,-1.022827,0.048279,-0.165466,-1.524390,0.060976,4.756098
1548457004585,-1.018738,0.046997,-0.164673,-1.707317,0.731707,4.695122
1548457004593,-1.019897,0.047302,-0.166321,-2.012195,0.487805,4.512195
1548457004600,-1.026428,0.051636,-0.163696,-2.073171,-0.243902,4.268293
1548457004615,-1.029724,0.054810,-0.161499,-1.707317,-0.609756,3.963415
1548457004623,-1.027649,0.053162,-0.164856,-1.646341,-0.487805,3.780488
1548457004631,-1.029053,0.053650,-0.164612,-1.585366,-0.365854,3.658537
1548457004645,-1.021423,0.056091,-0.167297,-1.768293,-0.182927,3.475610
1548457004653,-1.016418,0.058716,-0.168823,-1.890244,0.121951,3.414634
1548457004660,-1.035950,0.042480,-0.163635,-1.768293,-0.792683,2.865854
1548457004675,-1.024170,0.054932,-0.166748,-1.585366,-0.975610,2.804878
1548457004683,-1.021606,0.057373,-0.165161,-1.585366,0.853659,2.987805
1548457004690,-1.018494,0.060608,-0.166443,-1.219512,0.548781,2.317073
1548457004705,-1.014221,0.061401,-0.168762,-0.487805,0.060976,2.073171
1548457004713,-1.018311,0.063293,-0.171753,0.000000,-0.670732,1.768293
1548457004720,-1.018677,0.060242,-0.171265,0.365854,-0.975610,1.524390
1548457004735,-1.018372,0.057556,-0.173401,0.792683,-0.670732,1.341463
1548457004743,-1.021484,0.056641,-0.172119,1.036585,-0.548781,1.158537
1548457004750,-1.020874,0.055786,-0.171997,1.158537,-0.731707,0.975610
1548457004765,-1.023926,0.054443,-0.171692,1.280488,-0.731707,0.731707
1548457004773,-1.025513,0.056824,-0.171326,1.097561,-0.914634,0.609756
1548457004780,-1.024841,0.058960,-0.169678,0.853659,-0.731707,0.487805
1548457004795,-1.025208,0.060364,-0.170715,0.731707,-0.487805,0.182927
1548457004803,-1.022095,0.061707,-0.171692,0.670732,0.060976,0.060976
1548457004810,-1.015137,0.064636,-0.171448,0.670732,0.548781,-0.243902
1548457004825,-1.018311,0.061951,-0.172913,0.609756,0.426829,-0.548781
1548457004833,-1.016541,0.060486,-0.175598,0.548781,-0.243902,-0.670732
1548457004840,-1.019165,0.063782,-0.173584,0.426829,-0.487805,-0.426829
1548457004862,-1.018738,0.065735,-0.174866,0.243902,-1.097561,-0.243902
1548457004863,-1.014648,0.068237,-0.176636,0.243902,-1.524390,-0.243902
1548457004870,-1.022339,0.064270,-0.171692,0.182927,-2.134146,-0.243902
1548457004885,-1.034729,0.059265,-0.164612,0.426829,-3.353659,-0.426829
1548457004893,-1.028381,0.060608,-0.163879,1.097561,-2.500000,-0.121951
1548457004900,-1.027527,0.061951,-0.162109,1.341463,-1.036585,0.121951
1548457004915,-1.023438,0.063293,-0.164429,1.280488,0.060976,0.426829
1548457004923,-1.023987,0.063538,-0.166016,1.219512,0.792683,0.670732
1548457004930,-1.022095,0.064514,-0.169739,0.914634,0.792683,0.548781
1548457004945,-1.021790,0.066345,-0.170471,0.792683,0.548781,0.487805
1548457004953,-1.024231,0.064758,-0.165649,0.853659,-0.060976,0.487805
1548457004960,-1.028198,0.062195,-0.165405,0.792683,-0.670732,0.426829
1548457004975,-1.027466,0.059875,-0.165161,0.670732,-0.670732,0.365854
1548457004983,-1.020264,0.061096,-0.169067,0.548781,-0.243902,0.487805
1548457004998,-1.026855,0.058594,-0.169678,0.609756,-0.609756,0.853659
1548457005005,-1.026550,0.056274,-0.166077,0.670732,-1.158537,1.341463
1548457005013,-1.021545,0.057495,-0.167236,0.426829,-1.219512,1.524390
1548457005020,-1.020325,0.059814,-0.167358,0.000000,-1.402439,1.158537
1548457005042,-1.018005,0.061096,-0.166443,0.000000,-1.829268,0.853659
1548457005043,-1.019897,0.060364,-0.163818,0.060976,-2.743902,0.914634
1548457005050,-1.021729,0.062439,-0.166809,-0.060976,-3.536585,1.097561
1548457005065,-1.021606,0.062622,-0.166199,-0.060976,-3.475610,1.280488
1548457005073,-1.024170,0.062866,-0.166931,-0.304878,-3.048780,1.280488
1548457005080,-1.023254,0.063904,-0.165833,-0.487805,-2.865854,1.280488
1548457005095,-1.024292,0.063782,-0.166870,-0.670732,-2.682927,1.036585
1548457005103,-1.022217,0.063232,-0.165588,-0.792683,-2.256098,0.914634
1548457005110,-1.019531,0.063110,-0.166382,-0.609756,-1.768293,0.853659
1548457005125,-1.019409,0.064697,-0.165527,-0.243902,-1.158537,0.914634
1548457005133,-1.023193,0.064819,-0.169189,0.000000,-0.853659,0.914634
1548457005140,-1.026001,0.060242,-0.166687,0.304878,-0.853659,0.731707
1548457005155,-1.026794,0.062744,-0.170471,0.548781,-0.304878,0.792683
1548457005163,-1.020630,0.064880,-0.173157,0.670732,0.426829,0.792683
1548457005170,-1.020264,0.060608,-0.171814,0.548781,0.243902,0.548781
1548457005185,-1.025513,0.060791,-0.171692,0.487805,-0.609756,0.365854
1548457005193,-1.025574,0.060974,-0.170044,0.548781,-1.036585,0.182927
1548457005200,-1.026733,0.064880,-0.170471,0.304878,-0.792683,0.060976
1548457005215,-1.024109,0.064087,-0.171082,0.182927,-0.548781,0.000000
1548457005223,-1.017944,0.065674,-0.170593,0.121951,-0.487805,-0.060976
1548457005230,-1.018555,0.062744,-0.171021,0.121951,-0.670732,-0.182927
1548457005245,-1.019775,0.060120,-0.169556,0.365854,-1.280488,-0.121951
1548457005253,-1.023499,0.061096,-0.168396,0.670732,-1.890244,-0.060976
1548457005260,-1.025085,0.060730,-0.166260,1.036585,-2.439024,0.182927
1548457005275,-1.031982,0.061646,-0.166626,1.402439,-2.317073,0.304878
1548457005283,-1.034668,0.062134,-0.163635,1.463415,-2.073171,0.304878
1548457005290,-1.030151,0.063904,-0.165222,1.219512,-1.097561,0.304878
1548457005305,-1.026306,0.061401,-0.165955,0.853659,-0.365854,0.182927
1548457005313,-1.025146,0.063293,-0.169678,0.426829,-0.365854,0.182927
1548457005320,-1.022827,0.066589,-0.170044,0.121951,-0.670732,0.182927
1548457005335,-1.025208,0.066223,-0.164001,0.121951,-1.402439,0.121951
1548457005343,-1.027893,0.065979,-0.160461,0.365854,-2.256098,0.121951
1548457005350,-1.028198,0.066956,-0.157471,0.792683,-2.987805,0.426829
1548457005365,-1.033875,0.066589,-0.153564,1.219512,-3.109756,0.487805
1548457005373,-1.033630,0.070557,-0.155334,1.585366,-1.768293,1.219512
1548457005380,-1.003479,0.072144,-0.162537,1.341463,-0.060976,1.585366
1548457005395,-1.026062,0.064636,-0.156494,0.975610,0.365854,1.097561
1548457005403,-1.018066,0.064270,-0.160522,0.853659,-1.280488,1.036585
1548457005410,-1.006226,0.063782,-0.164917,0.792683,0.182927,1.524390
1548457005425,-1.025940,0.058960,-0.158569,0.426829,-1.402439,1.829268
1548457005433,-1.021667,0.061584,-0.157898,0.365854,-2.865854,2.134146
1548457005440,-1.017090,0.069397,-0.157837,0.853659,-2.378049,2.500000
1548457005462,-1.051758,0.066956,-0.144470,0.975610,-3.170732,2.439024
1548457005463,-1.065857,0.062805,-0.143188,0.548781,-3.780488,2.195122
1548457005470,-0.983704,0.080688,-0.172974,0.060976,2.926829,2.621951
1548457005493,-1.011719,0.078125,-0.164490,-0.487805,3.719512,3.048780
1548457005493,-1.029663,0.079895,-0.159546,-0.609756,-2.743902,3.048780
1548457005500,-1.046814,0.074951,-0.157288,-0.243902,-3.719512,3.292683
1548457005515,-1.035706,0.081726,-0.162170,0.060976,-1.768293,3.414634
1548457005523,-1.014282,0.080872,-0.169250,0.426829,0.304878,4.146341
1548457005530,-1.029541,0.071167,-0.160461,0.487805,-0.487805,4.024390
1548457005545,-1.019531,0.083801,-0.168457,0.914634,-1.219512,4.756098
1548457005553,-1.026306,0.082214,-0.171997,0.914634,-0.853659,5.426829
1548457005561,-1.011047,0.083313,-0.170898,0.670732,-0.914634,5.548780
1548457005575,-1.037476,0.082458,-0.164490,0.670732,-1.768293,6.524390
1548457005583,-1.026184,0.086487,-0.169983,0.731707,-1.707317,6.951220
1548457005590,-1.016724,0.090942,-0.170166,0.731707,0.487805,7.317073
1548457005606,-1.031189,0.082642,-0.162842,0.670732,-0.609756,7.987805
1548457005613,-1.015747,0.078613,-0.166809,0.426829,0.121951,8.536586
1548457005620,-1.015137,0.083618,-0.164795,0.304878,1.341463,9.695122
1548457005635,-1.028564,0.087646,-0.163635,-0.487805,0.609756,10.548780
1548457005643,-1.031677,0.096008,-0.165344,-1.219512,0.426829,11.219512
1548457005650,-1.028076,0.095886,-0.165894,-1.524390,2.073171,11.341464
1548457005665,-1.022156,0.097839,-0.173462,-1.524390,3.109756,11.280488
1548457005673,-1.018738,0.101196,-0.176086,-1.707317,3.048780,11.768293
1548457005680,-1.009949,0.098816,-0.178345,-2.500000,2.500000,12.317074
1548457005695,-1.030640,0.098145,-0.171387,-2.439024,1.097561,12.621951
1548457005703,-1.031128,0.090149,-0.172607,-2.743902,-0.060976,13.353659
1548457005718,-1.032349,0.097717,-0.168213,-3.292683,0.914634,13.841464
1548457005725,-1.001160,0.115845,-0.179626,-3.902439,2.012195,15.000000
1548457005740,-1.032959,0.112000,-0.166931,-4.512195,1.219512,14.939025
1548457005741,-1.026001,0.110229,-0.171387,-4.329268,-0.731707,14.695123
1548457005755,-1.004211,0.106506,-0.177795,-3.902439,1.524390,15.304878
1548457005763,-1.027100,0.119141,-0.166687,-4.085366,1.463415,15.792684
1548457005770,-1.016052,0.113953,-0.170898,-3.902439,0.243902,16.158537
1548457005785,-1.022034,0.123840,-0.165649,-3.414634,1.463415,16.219513
1548457005792,-1.011475,0.127563,-0.170471,-3.536585,1.158537,16.524391
1548457005808,-1.023682,0.136780,-0.162109,-3.353659,0.914634,16.768293
1548457005815,-1.018921,0.137939,-0.165222,-2.500000,0.060976,16.951220
1548457005823,-1.029358,0.134277,-0.162659,-1.829268,0.060976,16.585365
1548457005830,-1.025940,0.148926,-0.161499,-1.280488,0.426829,17.134148
1548457005845,-1.014526,0.145691,-0.171143,-1.524390,1.219512,17.317074
1548457005852,-1.015808,0.149170,-0.169739,-1.097561,1.402439,17.256098
1548457005860,-1.016357,0.148132,-0.169495,-0.487805,0.670732,17.621952
1548457005875,-1.019470,0.148376,-0.166382,-0.121951,0.304878,18.231709
1548457005882,-1.008423,0.152283,-0.169189,0.426829,0.365854,18.780489
1548457005890,-1.007874,0.153809,-0.169434,0.548781,1.036585,19.085367
1548457005905,-1.026978,0.165894,-0.161560,1.341463,-0.121951,19.817074
1548457005912,-1.013367,0.150269,-0.170105,0.731707,0.243902,20.548780
1548457005920,-1.006531,0.179932,-0.172363,0.731707,2.134146,21.219513
1548457005935,-1.007751,0.171997,-0.177307,0.304878,1.951220,22.073172
1548457005943,-1.027222,0.177063,-0.166382,0.121951,0.426829,22.317074
1548457005950,-1.003174,0.187012,-0.178833,0.304878,0.304878,22.926830
1548457005965,-1.017029,0.195251,-0.175476,-0.060976,0.853659,23.841463
1548457005973,-1.031982,0.188293,-0.167725,-0.609756,-0.792683,24.329269
1548457005980,-0.993958,0.191467,-0.178345,-1.280488,0.609756,25.060976
1548457005995,-1.033508,0.202881,-0.167908,-1.585366,0.487805,25.487806
1548457006003,-1.000916,0.226379,-0.176941,-1.951220,0.182927,26.402439
1548457006017,-1.020569,0.203491,-0.170776,-2.926829,1.585366,26.707317
1548457006025,-1.004761,0.207397,-0.175110,-3.048780,0.548781,27.378050
1548457006040,-1.003357,0.226929,-0.177124,-2.621951,2.134146,28.719513
1548457006041,-0.980469,0.219971,-0.177917,-3.048780,3.048780,29.085367
1548457006063,-1.008728,0.224670,-0.168884,-2.926829,0.975610,29.817074
1548457006063,-0.987183,0.228333,-0.176758,-2.865854,-0.243902,30.365854
1548457006070,-0.987854,0.248962,-0.181091,-3.048780,2.439024,31.585367
1548457006085,-1.013062,0.244446,-0.164307,-3.353659,0.243902,31.890245
1548457006093,-0.990173,0.259094,-0.184143,-3.048780,1.463415,32.317074
1548457006100,-0.969910,0.260315,-0.193848,-2.804878,4.207317,33.353661
1548457006115,-0.994629,0.254150,-0.180969,-2.621951,2.256098,33.841465
1548457006123,-0.989502,0.266296,-0.182739,-1.524390,0.853659,34.695122
1548457006130,-1.016602,0.275940,-0.177856,-1.158537,1.280488,35.670734
1548457006145,-0.984924,0.289429,-0.192566,-1.646341,2.073171,36.341465
1548457006153,-1.000610,0.289673,-0.189941,-2.378049,4.085366,36.890244
1548457006160,-0.991699,0.310181,-0.191345,-2.560976,1.951220,37.560978
1548457006175,-0.980713,0.301636,-0.195618,-2.378049,3.170732,37.621952
1548457006183,-0.974243,0.302795,-0.196777,-1.890244,2.682927,38.292683
1548457006190,-1.001709,0.301025,-0.183044,-1.524390,1.463415,39.207317
1548457006205,-0.968140,0.319092,-0.194519,-1.280488,2.073171,40.243904
1548457006213,-0.980347,0.318176,-0.188904,-1.463415,4.573171,41.158539
1548457006220,-0.976379,0.331787,-0.191711,-2.012195,3.719512,41.646343
1548457006235,-0.962708,0.341858,-0.192993,-2.621951,3.597561,42.073174
1548457006243,-0.975464,0.331604,-0.177246,-2.926829,2.926829,42.134148
1548457006250,-0.964050,0.355835,-0.171875,-2.439024,2.560976,42.195122
1548457006265,-0.953247,0.346680,-0.176208,-2.195122,4.756098,42.804878
1548457006273,-0.949585,0.353333,-0.189636,-2.378049,5.731708,43.536587
1548457006281,-0.942810,0.377747,-0.191162,-2.012195,5.304878,44.634148
1548457006295,-0.976624,0.375793,-0.182983,-2.195122,4.329268,45.487804
1548457006303,-0.918274,0.395691,-0.198059,-3.109756,6.280488,45.365856
1548457006318,-0.959778,0.395142,-0.187317,-2.926829,6.768293,45.670734
1548457006325,-0.949585,0.389587,-0.180115,-2.134146,3.170732,45.000000
1548457006340,-0.943787,0.403320,-0.181702,-0.792683,4.390244,45.121952
1548457006341,-0.913452,0.413696,-0.199829,-0.060976,5.243903,45.243904
1548457006355,-0.956909,0.415771,-0.171143,0.243902,4.024390,45.792683
1548457006363,-0.913452,0.417847,-0.190125,0.000000,2.865854,46.219513
1548457006370,-0.894653,0.426392,-0.188904,-0.365854,7.621952,47.012196
1548457006385,-0.945557,0.440796,-0.179871,-0.426829,3.536585,46.829269
1548457006393,-0.917725,0.444336,-0.199158,0.487805,3.414634,46.219513
1548457006400,-0.918884,0.441650,-0.174255,0.304878,5.365854,46.341465
1548457006415,-0.900330,0.458252,-0.179321,-0.792683,5.000000,46.097561
1548457006430,-0.888794,0.476929,-0.191711,-0.121951,6.646342,46.585365
1548457006431,-0.908447,0.471191,-0.193420,-0.914634,5.975610,46.219513
1548457006445,-0.902039,0.468506,-0.192444,-1.585366,5.670732,46.219513
1548457006453,-0.898804,0.471985,-0.200073,-0.975610,6.463415,46.158539
1548457006460,-0.894287,0.495117,-0.197510,-0.304878,7.256098,45.914635
1548457006475,-0.868713,0.507629,-0.200439,0.914634,5.914634,44.573174
1548457006483,-0.899414,0.484436,-0.190247,1.341463,4.390244,43.109756
1548457006490,-0.902466,0.510132,-0.190735,1.524390,2.621951,42.378048
1548457006505,-0.841980,0.494568,-0.201782,1.585366,5.731708,41.707317
1548457006513,-0.847290,0.492493,-0.199707,1.341463,8.231708,40.731709
1548457006520,-0.824829,0.510620,-0.202209,1.341463,4.268293,40.365856
1548457006535,-0.861389,0.518250,-0.188904,0.487805,2.621951,39.817074
1548457006542,-0.838745,0.518921,-0.192932,-0.792683,2.073171,38.597561
1548457006550,-0.837524,0.514404,-0.194397,-1.158537,3.780488,37.317074
1548457006565,-0.857422,0.536865,-0.190308,-0.609756,4.268293,36.341465
1548457006573,-0.831787,0.538879,-0.199585,-0.426829,4.878049,35.000000
1548457006580,-0.800293,0.548096,-0.209595,-0.060976,8.719512,34.268295
1548457006596,-0.794373,0.554077,-0.211914,0.304878,8.109756,33.353661
1548457006603,-0.852905,0.567810,-0.188232,1.341463,2.439024,31.829269
1548457006610,-0.803101,0.553345,-0.210327,2.560976,2.682927,30.426830
1548457006625,-0.818359,0.551514,-0.204773,2.987805,5.975610,29.756098
1548457006633,-0.794983,0.534607,-0.203308,3.597561,4.390244,27.743902
1548457006640,-0.779602,0.568176,-0.218628,4.024390,5.304878,27.439026
1548457006655,-0.817200,0.559082,-0.204346,3.231707,4.939024,27.073172
1548457006663,-0.825439,0.597900,-0.209045,2.987805,3.597561,27.134148
1548457006670,-0.804871,0.611145,-0.222961,3.475610,6.585366,26.097561
1548457006685,-0.795471,0.579895,-0.219360,3.658537,7.682927,24.451220
1548457006700,-0.803284,0.592163,-0.217712,4.634146,5.304878,23.292683
1548457006701,-0.824707,0.614014,-0.214355,5.548780,3.780488,23.658537
1548457006715,-0.777527,0.574158,-0.219910,4.817073,4.390244,22.682928
1548457006723,-0.780762,0.605530,-0.218384,5.243903,7.378049,22.682928
1548457006730,-0.800659,0.597229,-0.216248,5.182927,5.060976,23.414635
1548457006745,-0.799194,0.627563,-0.230286,3.414634,5.426829,22.743902
1548457006753,-0.772705,0.647888,-0.245972,3.902439,7.012195,22.743902
1548457006760,-0.783264,0.685669,-0.262085,3.658537,6.951220,22.134148
1548457006775,-0.807068,0.490967,-0.176331,5.060976,1.646341,20.000000
1548457006783,-0.780273,0.638977,-0.230347,7.378049,2.560976,22.682928
1548457006790,-0.789856,0.654724,-0.243774,4.939024,6.402439,25.792683
1548457006805,-0.776123,0.627686,-0.228943,-0.060976,3.170732,23.109756
1548457006813,-0.761536,0.627136,-0.249390,-0.182927,5.365854,23.109756
1548457006820,-0.787292,0.649353,-0.234009,-0.121951,4.268293,23.597561
1548457006835,-0.759705,0.652405,-0.227600,1.036585,3.536585,23.597561
1548457006843,-0.753723,0.632690,-0.233704,0.304878,5.182927,22.682928
1548457006850,-0.767944,0.668213,-0.235168,-0.670732,3.719512,22.621952
1548457006865,-0.762695,0.675293,-0.254028,-1.219512,1.158537,21.707317
1548457006873,-0.730591,0.562073,-0.209412,-2.256098,-0.548781,19.024391
1548457006880,-0.762451,0.668213,-0.234192,-2.073171,-3.719512,20.487804
1548457006895,-0.761902,0.639404,-0.214600,-2.987805,-5.548780,19.817074
1548457006903,-0.723694,0.628662,-0.221985,-5.365854,-2.378049,17.804878
1548457006910,-0.727844,0.644958,-0.224426,-6.341464,-0.609756,17.134148
1548457006925,-0.729919,0.626648,-0.202637,-6.036585,-3.048780,15.853659
1548457006933,-0.709473,0.627258,-0.211853,-5.060976,-2.256098,14.146341
1548457006940,-0.731934,0.634827,-0.213257,-5.243903,-1.951220,13.109756
1548457006955,-0.718628,0.627686,-0.214600,-5.365854,-3.109756,11.585366
1548457006963,-0.704407,0.622192,-0.216614,-5.243903,-0.975610,10.365854
1548457006970,-0.700867,0.628967,-0.210266,-3.841464,0.000000,9.146341
1548457006985,-0.710449,0.644409,-0.213928,-2.865854,-0.060976,8.353659
1548457006993,-0.721130,0.654175,-0.219910,-2.987805,0.182927,7.317073
1548457007000,-0.732056,0.650452,-0.219666,-2.195122,-0.243902,5.731708
1548457007015,-0.730164,0.654419,-0.216797,0.304878,0.304878,4.451220
1548457007023,-0.726013,0.660767,-0.218994,2.987805,2.378049,3.475610
1548457007030,-0.727051,0.668884,-0.226746,4.634146,4.451220,2.865854
1548457007045,-0.734375,0.667542,-0.237915,5.060976,6.097561,2.560976
1548457007053,-0.728088,0.670166,-0.239136,5.487805,6.768293,1.768293
1548457007060,-0.735718,0.667847,-0.238953,6.219512,6.585366,0.243902
1548457007075,-0.744446,0.672546,-0.238525,5.975610,5.487805,-1.463415
1548457007083,-0.736694,0.663025,-0.238770,5.670732,4.085366,-2.621951
1548457007090,-0.721252,0.651306,-0.230896,5.792683,3.536585,-2.987805
1548457007105,-0.707703,0.636108,-0.228821,5.609756,3.902439,-2.621951
1548457007113,-0.675049,0.640198,-0.236755,4.451220,4.634146,-1.219512
1548457007120,-0.714905,0.666199,-0.239014,3.048780,4.207317,0.609756
1548457007135,-0.747131,0.694946,-0.243835,0.670732,1.158537,1.402439
1548457007143,-0.760132,0.696533,-0.251831,-1.158537,1.463415,0.670732
1548457007150,-0.748901,0.690063,-0.254456,-1.280488,2.926829,-0.365854
1548457007165,-0.747253,0.691833,-0.243591,0.121951,1.890244,-0.731707
1548457007173,-0.749817,0.690247,-0.236084,1.463415,-0.914634,-0.975610
1548457007180,-0.751343,0.685974,-0.228271,1.219512,-2.743902,-1.280488
1548457007195,-0.744507,0.684204,-0.225708,0.121951,-3.109756,-1.524390
1548457007203,-0.737793,0.675232,-0.229492,-0.609756,-2.804878,-1.890244
1548457007210,-0.725769,0.643311,-0.227356,-1.158537,-2.560976,-2.439024
1548457007226,-0.711365,0.639465,-0.217102,-0.609756,-1.341463,-2.012195
1548457007233,-0.709534,0.650635,-0.216431,-0.365854,0.243902,-0.975610
1548457007240,-0.719177,0.662842,-0.222412,-2.012195,1.524390,-0.243902
1548457007255,-0.733459,0.668213,-0.230164,-3.841464,1.768293,-0.060976
1548457007263,-0.744812,0.669861,-0.239197,-4.207317,0.914634,-0.426829
1548457007270,-0.745667,0.667603,-0.233643,-3.475610,-0.426829,-1.463415
1548457007285,-0.748535,0.677734,-0.233643,-1.707317,-2.378049,-2.134146
1548457007293,-0.746216,0.684570,-0.228149,-0.853659,-3.841464,-2.195122
1548457007300,-0.738770,0.674194,-0.223999,-0.426829,-3.902439,-2.317073
1548457007315,-0.731262,0.656311,-0.217896,0.670732,-2.743902,-2.682927
1548457007323,-0.710022,0.651245,-0.220642,1.707317,-0.182927,-2.621951
1548457007330,-0.693604,0.645020,-0.232788,1.829268,2.682927,-2.439024
1548457007345,-0.713867,0.647339,-0.236511,1.463415,2.195122,-1.829268
1548457007353,-0.736084,0.664001,-0.241638,0.731707,0.304878,-1.280488
1548457007360,-0.753296,0.672180,-0.241028,0.426829,-1.402439,-1.463415
1548457007375,-0.752319,0.674011,-0.236877,0.487805,-2.073171,-2.378049
1548457007383,-0.753967,0.675415,-0.237732,1.097561,-2.134146,-2.682927
1548457007390,-0.747070,0.681824,-0.239319,1.463415,-2.256098,-2.134146
1548457007405,-0.747986,0.683838,-0.236694,1.219512,-2.743902,-1.585366
1548457007413,-0.746765,0.682800,-0.236450,0.914634,-3.109756,-1.707317
1548457007420,-0.745239,0.664978,-0.232300,1.158537,-2.378049,-2.134146
1548457007435,-0.728882,0.649719,-0.230957,1.524390,-0.853659,-2.134146
1548457007443,-0.720032,0.648376,-0.229309,1.951220,1.585366,-1.158537
1548457007450,-0.715088,0.644348,-0.237488,1.646341,3.048780,-0.060976
1548457007465,-0.732117,0.675293,-0.237854,0.243902,2.621951,0.975610
1548457007473,-0.755188,0.679321,-0.240112,-0.670732,-0.121951,1.402439
1548457007480,-0.754700,0.673218,-0.254639,-1.951220,-0.914634,1.036585
1548457007495,-0.756592,0.690979,-0.248901,-1.646341,-1.768293,1.219512
1548457007503,-0.753174,0.695129,-0.239990,-0.548781,-3.902439,0.853659
1548457007510,-0.752808,0.674500,-0.222534,0.609756,-5.243903,-0.365854
1548457007525,-0.729675,0.647888,-0.221558,1.890244,-4.207317,-0.243902
1548457007533,-0.723999,0.635559,-0.211792,1.951220,-2.378049,0.670732
1548457007540,-0.721741,0.651001,-0.221436,0.670732,-0.365854,1.951220
1548457007555,-0.717224,0.655334,-0.243225,-1.646341,2.987805,3.109756
1548457007563,-0.732117,0.665100,-0.246155,-3.109756,4.024390,3.597561
1548457007570,-0.737732,0.683411,-0.253906,-3.109756,2.682927,3.536585
1548457007585,-0.752258,0.688171,-0.251587,-1.951220,-0.609756,2.804878
1548457007593,-0.759521,0.682983,-0.243774,-0.182927,-4.817073,1.585366
1548457007600,-0.751709,0.684998,-0.232910,1.097561,-7.439024,1.097561
1548457007615,-0.748779,0.673950,-0.225281,2.012195,-7.865854,0.853659
1548457007623,-0.734802,0.653748,-0.215698,2.378049,-6.585366,0.365854
1548457007630,-0.733276,0.640015,-0.221130,1.707317,-3.353659,0.487805
1548457007645,-0.721802,0.638306,-0.224304,-0.121951,-0.487805,0.548781
1548457007668,-0.723877,0.645935,-0.222839,-0.914634,1.951220,0.426829
1548457007668,-0.720459,0.656738,-0.228516,-1.707317,2.682927,0.182927
1548457007669,-0.718018,0.659363,-0.229736,-2.378049,2.743902,-0.121951
1548457007683,-0.728882,0.656433,-0.232361,-2.012195,1.280488,-0.670732
1548457007690,-0.732605,0.672729,-0.237000,-1.524390,-0.304878,-0.975610
1548457007705,-0.744751,0.680542,-0.235962,-0.731707,-1.646341,-1.280488
1548457007713,-0.743591,0.677979,-0.237793,0.182927,-2.987805,-2.256098
1548457007720,-0.740784,0.672852,-0.233154,1.707317,-2.865854,-2.804878
1548457007735,-0.742859,0.659119,-0.225220,2.865854,-2.743902,-3.597561
1548457007743,-0.737732,0.652161,-0.221924,3.414634,-1.707317,-3.780488
1548457007750,-0.729309,0.654480,-0.223267,2.804878,0.487805,-3.719512
1548457007765,-0.712036,0.643616,-0.228638,1.951220,2.926829,-3.902439
1548457007773,-0.712952,0.647949,-0.233215,1.036585,3.475610,-4.024390
1548457007780,-0.749878,0.665222,-0.228027,0.914634,-0.121951,-3.719512
1548457007795,-0.752380,0.670044,-0.232971,0.792683,-2.317073,-4.085366
1548457007803,-0.753784,0.665344,-0.232300,1.341463,-1.646341,-4.634146
1548457007810,-0.745239,0.659363,-0.231567,2.560976,-2.195122,-5.121951
1548457007825,-0.741150,0.663391,-0.232727,3.292683,-2.500000,-5.060976
1548457007833,-0.743042,0.663025,-0.232788,2.804878,-3.414634,-5.426829
1548457007840,-0.749084,0.655762,-0.231445,1.280488,-4.268293,-6.280488
1548457007855,-0.749023,0.650146,-0.226501,0.060976,-4.756098,-7.256098
1548457007863,-0.736267,0.629639,-0.224854,-0.548781,-4.390244,-8.414635
1548457007870,-0.723328,0.620789,-0.217529,-1.097561,-3.719512,-9.085366
1548457007877,-0.746033,0.643738,-0.214355,-1.463415,-5.426829,-8.841464
1548457007893,-0.739746,0.631348,-0.213257,-2.256098,-6.707317,-9.512196
1548457007900,-0.724060,0.621826,-0.214050,-2.621951,-5.365854,-10.121951
1548457007908,-0.749023,0.648865,-0.210999,-2.012195,-6.280488,-10.853659
1548457007923,-0.766418,0.669128,-0.214966,-1.280488,-7.621952,-12.256098
1548457007930,-0.751587,0.637085,-0.212280,-0.853659,-5.609756,-14.939025
1548457007938,-0.768188,0.641479,-0.212341,1.097561,-4.512195,-16.463415
1548457007953,-0.760132,0.624390,-0.208252,2.865854,-5.670732,-18.170732
1548457007960,-0.760925,0.593323,-0.197632,4.451220,-4.878049,-20.609756
1548457007968,-0.713867,0.588135,-0.197449,5.670732,-4.512195,-22.500000
1548457007983,-0.733093,0.612000,-0.213379,5.365854,-5.060976,-22.743902
1548457007990,-0.803040,0.625305,-0.184814,5.304878,-11.280488,-23.963415
1548457007998,-0.752258,0.592773,-0.204224,4.939024,-9.878049,-26.646341
1548457008013,-0.726135,0.537048,-0.197815,3.719512,-3.353659,-27.926830
1548457008020,-0.658203,0.345032,-0.173462,4.817073,-4.878049,-28.414635
1548457008028,-0.877197,0.811218,-0.273254,6.463415,-8.658537,-20.060976
1548457008043,-0.802002,0.623718,-0.205811,1.890244,-14.085366,-25.121952
1548457008050,-0.787231,0.573486,-0.199646,0.487805,-2.804878,-31.219513
1548457008058,-0.845886,0.641479,-0.242432,5.609756,-3.170732,-28.841465
1548457008073,-0.818909,0.658142,-0.250793,3.719512,-6.707317,-31.402439
1548457008080,-0.823792,0.598877,-0.244263,5.548780,-5.609756,-33.658539
1548457008088,-0.840820,0.577271,-0.215027,9.634147,-7.378049,-34.634148
1548457008103,-0.767517,0.560608,-0.240845,12.743903,-6.158537,-33.170731
1548457008110,-0.818481,0.576416,-0.221191,11.890244,-5.792683,-31.219513
1548457008118,-0.857544,0.585693,-0.199646,13.048780,-13.048780,-30.000000
1548457008133,-0.830078,0.572937,-0.228760,10.426829,-8.475610,-29.939026
1548457008140,-0.825073,0.581299,-0.239136,9.329268,-2.378049,-28.536587
1548457008148,-0.882690,0.576111,-0.211060,8.536586,-1.219512,-27.012196
1548457008163,-0.832581,0.567078,-0.244385,7.865854,2.256098,-26.158537
1548457008171,-0.845825,0.554626,-0.277588,5.731708,8.902439,-24.329269
1548457008178,-0.853516,0.575806,-0.282593,4.573171,6.036585,-24.146341
1548457008193,-0.834351,0.568604,-0.282227,5.000000,1.280488,-24.146341
1548457008200,-0.879944,0.577393,-0.260315,5.121951,-3.963415,-24.451220
1548457008208,-0.850342,0.530640,-0.235168,5.609756,-10.304878,-24.756098
1548457008223,-0.741394,0.314636,-0.180664,5.121951,-6.646342,-23.963415
1548457008230,-0.917847,0.491150,-0.230286,1.585366,-10.000000,-16.890244
1548457008238,-0.865845,0.564392,-0.279236,-5.365854,-11.463415,-13.231708
1548457008253,-0.844360,0.544128,-0.222839,-12.804878,-4.390244,-15.487805
1548457008260,-0.845947,0.577942,-0.211792,-12.743903,-4.573171,-16.158537
1548457008268,-0.888733,0.620972,-0.196289,-12.317074,-5.731708,-17.987804
1548457008283,-0.875977,0.567810,-0.211975,-12.439025,-4.207317,-20.792683
1548457008290,-0.867432,0.528076,-0.236694,-11.402439,1.036585,-22.439024
1548457008298,-0.867554,0.509338,-0.225403,-7.134147,1.280488,-22.500000
1548457008313,-0.845764,0.484680,-0.213806,-2.073171,-0.243902,-21.280489
1548457008320,-0.840698,0.499573,-0.199280,0.182927,-0.609756,-20.853659
1548457008328,-0.851929,0.501404,-0.204224,0.853659,-2.317073,-21.341463
1548457008343,-0.871399,0.492798,-0.215271,0.731707,-3.170732,-22.682928
1548457008350,-0.851929,0.497864,-0.220581,0.731707,-1.524390,-24.085367
1548457008358,-0.880066,0.493408,-0.207886,2.500000,-2.256098,-25.000000
1548457008373,-0.855286,0.463196,-0.214172,3.780488,-3.963415,-26.463415
1548457008380,-0.874756,0.463867,-0.205322,5.182927,-3.902439,-26.585367
1548457008388,-0.869873,0.445496,-0.200378,6.036585,-5.792683,-26.524391
1548457008403,-0.875488,0.453674,-0.195618,4.817073,-4.634146,-26.768293
1548457008410,-0.896484,0.468567,-0.189941,3.719512,-5.731708,-26.585367
1548457008418,-0.900208,0.473633,-0.199402,1.463415,-6.097561,-27.804878
1548457008433,-0.919617,0.463867,-0.192810,0.182927,-5.304878,-28.597561
1548457008440,-0.902710,0.464539,-0.199646,0.670732,-5.121951,-29.939026
1548457008448,-0.876953,0.444458,-0.202454,1.707317,-1.951220,-30.975611
1548457008463,-0.891479,0.451233,-0.196838,2.743902,-4.329268,-31.463415
1548457008470,-0.908142,0.445312,-0.192566,3.353659,-6.707317,-32.317074
1548457008478,-0.900696,0.438232,-0.197571,2.560976,-7.012195,-32.621952
1548457008492,-0.929321,0.430359,-0.190613,1.158537,-6.341464,-33.353661
1548457008500,-0.886841,0.413086,-0.211731,0.365854,-5.304878,-33.597561
1548457008508,-0.891724,0.418091,-0.210266,0.182927,-4.146341,-33.536587
1548457008523,-0.931885,0.412415,-0.193359,0.182927,-7.073171,-33.231709
1548457008530,-0.931702,0.418335,-0.202026,-0.060976,-8.292683,-32.743904
1548457008538,-0.919739,0.413574,-0.213745,-0.060976,-4.695122,-31.890245
1548457008553,-0.936951,0.416748,-0.205078,0.365854,-4.634146,-31.463415
1548457008560,-0.939575,0.413086,-0.204956,1.036585,-5.792683,-31.463415
1548457008568,-0.947144,0.416016,-0.208923,1.646341,-5.243903,-31.341465
1548457008583,-0.950684,0.397827,-0.211365,1.524390,-4.634146,-31.280489
1548457008590,-0.933044,0.410217,-0.216187,1.402439,-4.390244,-30.975611
1548457008598,-0.974060,0.382324,-0.203186,2.378049,-4.390244,-30.731709
1548457008613,-0.969727,0.382080,-0.201782,3.048780,-5.670732,-30.670732
1548457008620,-0.945923,0.383606,-0.214844,2.743902,-2.560976,-30.426830
1548457008628,-0.965881,0.371216,-0.201294,1.707317,-3.597561,-30.853659
1548457008643,-0.947388,0.367981,-0.206421,1.280488,-4.817073,-31.402439
1548457008650,-0.933411,0.361267,-0.211914,1.646341,-3.292683,-31.280489
1548457008658,-0.943298,0.346191,-0.205811,0.975610,-4.512195,-31.036587
1548457008673,-0.938599,0.327271,-0.202026,0.609756,-5.000000,-30.548780
1548457008680,-0.949951,0.316772,-0.196838,0.731707,-4.146341,-29.878050
1548457008688,-0.944885,0.331177,-0.193909,0.121951,-3.048780,-29.207317
1548457008703,-0.954956,0.332031,-0.194153,-1.402439,-2.500000,-28.902439
1548457008710,-0.954407,0.333679,-0.199036,-2.317073,-3.048780,-29.390245
1548457008718,-0.970825,0.328003,-0.197388,-2.256098,-3.048780,-29.573172
1548457008733,-0.949341,0.321533,-0.202515,-1.524390,-3.414634,-30.060976
1548457008740,-0.981445,0.294312,-0.190308,0.670732,-2.865854,-29.939026
1548457008748,-0.965820,0.307739,-0.190613,2.195122,-3.475610,-29.451220
1548457008763,-0.960876,0.311890,-0.192078,2.621951,-2.317073,-28.719513
1548457008770,-0.977295,0.306213,-0.193115,2.439024,-3.658537,-29.268293
1548457008778,-1.016357,0.294617,-0.181763,2.987805,-5.000000,-29.756098
1548457008793,-0.993225,0.293152,-0.186768,3.170732,-4.268293,-30.426830
1548457008800,-0.970581,0.282410,-0.196045,3.414634,0.000000,-31.402439
1548457008808,-0.990173,0.278198,-0.186523,3.963415,-1.585366,-32.500000
1548457008823,-0.972961,0.259094,-0.196350,4.268293,-3.475610,-33.231709
1548457008830,-0.978699,0.246216,-0.187683,4.634146,-3.414634,-33.353661
1548457008838,-0.983704,0.231567,-0.182800,4.878049,-4.573171,-33.475609
1548457008853,-0.969910,0.227722,-0.183838,4.085366,-2.926829,-33.719513
1548457008860,-0.975769,0.230713,-0.179077,2.926829,-2.926829,-33.902439
1548457008868,-0.972412,0.221741,-0.181213,1.280488,-4.207317,-34.573170
1548457008883,-0.988586,0.234680,-0.184143,0.731707,-4.085366,-35.000000
1548457008890,-0.999695,0.217896,-0.182861,0.426829,-5.365854,-35.914635
1548457008898,-0.978577,0.218018,-0.189575,-0.060976,-4.329268,-36.219513
1548457008913,-0.980103,0.216125,-0.193542,0.731707,-2.682927,-36.219513
1548457008920,-1.000854,0.214722,-0.182983,1.402439,-4.512195,-36.280487
1548457008928,-0.996704,0.215149,-0.188782,1.890244,-4.756098,-35.853661
1548457008943,-1.010620,0.219788,-0.189697,2.378049,-3.719512,-35.304878
1548457008950,-1.016907,0.213684,-0.195496,2.560976,-3.902439,-34.756100
1548457008958,-1.019897,0.207397,-0.194275,3.353659,-3.109756,-34.329269
1548457008973,-1.020935,0.209045,-0.193542,5.182927,-2.134146,-33.658539
1548457008980,-1.025757,0.209961,-0.192688,6.585366,-1.768293,-33.048782
1548457008988,-1.022400,0.200989,-0.202271,7.743903,-2.134146,-32.317074
1548457009003,-1.023804,0.191101,-0.203369,8.658537,-2.256098,-31.402439
1548457009010,-1.025818,0.193115,-0.194580,10.670732,-3.292683,-29.878050
1548457009018,-1.015625,0.173645,-0.206665,11.158537,-2.317073,-28.414635
1548457009033,-1.032715,0.182617,-0.186523,12.073171,-2.804878,-26.951220
1548457009040,-1.012451,0.163086,-0.203003,11.524390,-2.926829,-25.365854
1548457009048,-1.019348,0.173340,-0.191040,11.097561,-1.951220,-23.658537
1548457009063,-1.024658,0.157227,-0.200012,10.426829,-3.414634,-22.134148
1548457009070,-1.025757,0.153931,-0.186035,8.963415,-3.536585,-20.182928
1548457009078,-1.025330,0.136963,-0.188904,8.292683,-3.170732,-18.780489
1548457009093,-1.014282,0.154907,-0.181946,6.463415,-2.256098,-17.317074
1548457009100,-1.014465,0.141785,-0.196472,4.024390,-1.707317,-15.548780
1548457009108,-1.033142,0.135620,-0.180542,1.463415,-2.743902,-14.085366
1548457009123,-1.009033,0.145874,-0.181580,0.914634,-2.439024,-12.682927
1548457009130,-1.023132,0.132019,-0.189575,-1.036585,-0.426829,-11.341464
1548457009138,-1.023804,0.132568,-0.178711,-2.317073,-2.073171,-10.121951
1548457009153,-1.010864,0.128296,-0.186646,-2.987805,-0.426829,-8.475610
1548457009160,-1.017090,0.127747,-0.187805,-4.512195,0.121951,-7.621952
1548457009168,-1.012634,0.129822,-0.182007,-5.000000,-0.060976,-6.341464
1548457009183,-1.015259,0.128967,-0.185364,-5.609756,-0.121951,-5.487805
