timestamp, accel_x, accel_y, accel_z, gyro_x, gyro_y, gyro_z
1548436000634,-0.210022,-0.980774,-0.191101,5.609756,-1.463415,-0.487805
1548436000649,-0.210571,-0.984741,-0.190552,5.426829,-1.158537,-0.731707
1548436000656,-0.206177,-0.984680,-0.187256,5.304878,-0.914634,-0.548781
1548436000664,-0.206604,-0.988525,-0.184753,5.000000,-0.914634,-0.060976
1548436000679,-0.207703,-0.995667,-0.179260,4.512195,-0.975610,0.243902
1548436000686,-0.210815,-0.994019,-0.177124,3.231707,-0.853659,0.853659
1548436000694,-0.213562,-0.986633,-0.179504,1.341463,-0.487805,1.524390
1548436000709,-0.214172,-0.983765,-0.189087,-0.365854,0.243902,2.073171
1548436000716,-0.213989,-0.984558,-0.196777,-1.768293,0.182927,1.829268
1548436000724,-0.211670,-0.975891,-0.203308,-2.378049,-0.426829,1.463415
1548436000739,-0.209656,-0.964172,-0.207031,-2.073171,-0.609756,1.219512
1548436000746,-0.212158,-0.970825,-0.194397,-0.182927,-1.402439,0.975610
1548436000754,-0.214172,-0.981445,-0.188843,2.621951,-1.829268,1.158537
1548436000769,-0.216919,-0.971313,-0.180237,2.926829,-2.378049,0.914634
1548436000776,-0.216553,-0.979492,-0.173218,3.048780,-2.317073,0.487805
1548436000784,-0.219177,-0.985474,-0.181152,3.414634,-1.463415,0.670732
1548436000799,-0.214661,-0.976013,-0.198486,3.048780,-0.853659,0.670732
1548436000806,-0.208374,-0.971436,-0.207336,3.170732,-0.426829,0.182927
1548436000814,-0.205627,-0.975830,-0.192932,5.121951,-0.609756,-0.365854
1548436000829,-0.210510,-0.984924,-0.163757,7.621952,-0.975610,0.121951
1548436000836,-0.219360,-0.993469,-0.156677,8.048780,-1.097561,1.036585
1548436000844,-0.220398,-0.998901,-0.163818,5.670732,-1.219512,1.097561
1548436000859,-0.215454,-0.989685,-0.189514,1.707317,-0.670732,0.548781
1548436000866,-0.219238,-0.968628,-0.193237,-1.646341,-0.243902,0.182927
1548436000874,-0.210022,-0.974976,-0.182190,-1.280488,0.182927,0.182927
1548436000889,-0.211304,-0.994324,-0.174438,0.609756,0.670732,0.060976
1548436000896,-0.211670,-0.994202,-0.176514,0.365854,0.182927,-0.121951
1548436000904,-0.212097,-0.980713,-0.178894,-1.341463,0.792683,0.243902
1548436000919,-0.214111,-0.979248,-0.184814,-2.804878,1.036585,0.487805
1548436000926,-0.212769,-0.981201,-0.193176,-3.292683,0.731707,0.365854
1548436000934,-0.209412,-0.981628,-0.192810,-2.987805,0.548781,0.365854
1548436000949,-0.213440,-0.982361,-0.196594,-2.378049,0.304878,0.609756
1548436000956,-0.213379,-0.978638,-0.197205,-1.768293,-0.121951,0.548781
1548436000964,-0.207520,-0.976501,-0.193726,-0.914634,-0.548781,0.487805
1548436000979,-0.211609,-0.973755,-0.193054,0.000000,-0.914634,0.487805
1548436000986,-0.215515,-0.976746,-0.184570,0.914634,-1.524390,0.670732
1548436000994,-0.215576,-0.986572,-0.184387,2.012195,-1.524390,0.670732
1548436001009,-0.215088,-0.986572,-0.184875,2.134146,-1.280488,0.609756
1548436001016,-0.215088,-0.985535,-0.186829,1.768293,-1.158537,0.426829
1548436001024,-0.213379,-0.985779,-0.189331,1.402439,-0.914634,0.548781
1548436001039,-0.213806,-0.978760,-0.186768,1.036585,-0.731707,0.853659
1548436001046,-0.214233,-0.982056,-0.180542,1.097561,-0.792683,1.036585
1548436001054,-0.216187,-0.983765,-0.174011,1.219512,-0.609756,1.097561
1548436001069,-0.218384,-0.984863,-0.177185,0.609756,-0.426829,1.219512
1548436001076,-0.214172,-0.983704,-0.185364,-0.670732,-0.121951,0.975610
1548436001084,-0.213501,-0.982178,-0.188477,-1.829268,0.121951,0.548781
1548436001099,-0.216309,-0.980713,-0.190491,-2.378049,-0.060976,0.426829
1548436001106,-0.217407,-0.976929,-0.189880,-2.195122,-0.426829,0.426829
1548436001114,-0.210876,-0.973022,-0.189758,-1.707317,-0.121951,0.304878
1548436001129,-0.211792,-0.973938,-0.192017,-1.341463,-0.182927,-0.121951
1548436001136,-0.213684,-0.980530,-0.191223,-0.609756,-0.609756,-0.182927
1548436001144,-0.213135,-0.979675,-0.192017,-0.121951,-0.548781,-0.060976
1548436001159,-0.211670,-0.978943,-0.189453,0.243902,-0.670732,-0.121951
1548436001166,-0.212708,-0.982605,-0.189941,0.609756,-0.914634,-0.121951
1548436001174,-0.213440,-0.984802,-0.187012,1.219512,-0.975610,0.182927
1548436001189,-0.213806,-0.982971,-0.188538,1.524390,-1.036585,0.304878
1548436001196,-0.212585,-0.981873,-0.189270,1.280488,-1.097561,0.365854
1548436001204,-0.213074,-0.983093,-0.186401,0.975610,-1.219512,0.487805
1548436001219,-0.211060,-0.981934,-0.184326,0.975610,-1.341463,0.670732
1548436001226,-0.216614,-0.982788,-0.182434,0.792683,-1.036585,1.036585
1548436001234,-0.221741,-0.984436,-0.184692,0.365854,-1.097561,1.402439
1548436001249,-0.217224,-0.976135,-0.188477,-0.243902,-0.670732,1.463415
1548436001256,-0.214600,-0.973999,-0.192810,-0.609756,-0.182927,1.158537
1548436001264,-0.216431,-0.977600,-0.192078,0.060976,-0.304878,0.975610
1548436001279,-0.212280,-0.977234,-0.190735,1.036585,-0.609756,0.792683
1548436001286,-0.211365,-0.973328,-0.194458,1.463415,-0.975610,0.426829
1548436001294,-0.213989,-0.979919,-0.196228,2.073171,-1.707317,0.000000
1548436001309,-0.216309,-0.981812,-0.186584,3.048780,-2.195122,0.243902
1548436001316,-0.215942,-0.980164,-0.183105,4.024390,-2.012195,0.365854
1548436001324,-0.217224,-0.985352,-0.183105,4.207317,-1.951220,0.304878
1548436001339,-0.215332,-0.985046,-0.182312,4.085366,-1.829268,0.182927
1548436001346,-0.211914,-0.983276,-0.178040,3.963415,-1.341463,0.243902
1548436001354,-0.215637,-0.981812,-0.172668,3.658537,-1.280488,0.304878
1548436001369,-0.213135,-0.996643,-0.173523,3.048780,-1.036585,0.670732
1548436001376,-0.215088,-0.998718,-0.181152,1.646341,-0.609756,0.853659
1548436001384,-0.214233,-0.983215,-0.182922,-0.487805,-0.304878,1.036585
1548436001399,-0.212952,-0.977722,-0.184082,-1.463415,0.060976,1.402439
1548436001406,-0.212524,-0.975220,-0.186279,-1.402439,-0.121951,1.646341
1548436001414,-0.212891,-0.978699,-0.178650,-0.060976,-0.304878,1.158537
1548436001429,-0.217346,-0.986023,-0.176086,1.951220,-0.609756,0.121951
1548436001436,-0.220215,-0.981018,-0.177612,1.524390,-0.914634,0.060976
1548436001444,-0.226379,-0.972534,-0.182678,-0.243902,-0.731707,0.426829
1548436001459,-0.224304,-0.975464,-0.192200,-1.158537,-0.609756,0.426829
1548436001466,-0.218933,-0.977173,-0.196411,-0.548781,-0.426829,-0.609756
1548436001474,-0.215393,-0.973694,-0.192322,0.365854,-0.243902,-1.280488
1548436001489,-0.213501,-0.979248,-0.186462,1.707317,-0.304878,-1.341463
1548436001496,-0.211670,-0.987183,-0.177917,2.560976,-0.609756,-1.341463
1548436001504,-0.210632,-0.990906,-0.175964,2.682927,-0.792683,-1.280488
1548436001519,-0.209534,-0.987793,-0.179016,1.768293,-0.792683,-1.036585
1548436001526,-0.209534,-0.983276,-0.182739,0.731707,-0.731707,-0.731707
1548436001534,-0.210938,-0.976013,-0.192993,0.182927,-1.036585,-0.548781
1548436001549,-0.214172,-0.970276,-0.189941,0.243902,-1.707317,-0.609756
1548436001556,-0.213196,-0.975403,-0.192078,1.646341,-2.317073,-0.792683
1548436001564,-0.220398,-0.987976,-0.183105,3.414634,-2.682927,-0.792683
1548436001579,-0.208191,-1.000122,-0.167847,4.329268,-3.048780,-0.853659
1548436001586,-0.216919,-1.000610,-0.170349,3.353659,-2.621951,-0.731707
1548436001594,-0.213562,-0.983582,-0.180908,0.548781,-2.865854,-0.426829
1548436001609,-0.218506,-0.968872,-0.183228,-1.768293,-2.378049,0.060976
1548436001616,-0.215576,-0.965515,-0.178894,-1.585366,-2.073171,0.304878
1548436001624,-0.223022,-0.973022,-0.166443,0.000000,-1.463415,0.304878
1548436001639,-0.220886,-0.982117,-0.164368,1.280488,-1.158537,0.060976
1548436001646,-0.218811,-0.989807,-0.166321,0.853659,-0.182927,-0.243902
1548436001654,-0.206482,-0.994385,-0.181091,-0.487805,0.670732,-0.792683
1548436001669,-0.211182,-1.000488,-0.190979,-2.012195,0.914634,-1.036585
1548436001676,-0.200684,-0.973145,-0.200012,-3.292683,0.609756,-0.792683
1548436001684,-0.201660,-0.969849,-0.197144,-3.597561,0.487805,-0.304878
1548436001699,-0.211304,-0.988831,-0.184143,-1.768293,-0.853659,0.121951
1548436001706,-0.216553,-0.984619,-0.176208,-0.060976,-1.585366,1.097561
1548436001714,-0.218567,-0.972778,-0.177612,-0.853659,-1.707317,1.097561
1548436001729,-0.216003,-0.975525,-0.183044,-1.219512,-1.585366,0.670732
1548436001736,-0.215210,-0.975891,-0.183716,-0.792683,-1.402439,0.182927
1548436001744,-0.215698,-0.977356,-0.178528,-0.060976,-1.158537,-0.304878
1548436001759,-0.217957,-0.973267,-0.177734,0.182927,-0.975610,-0.487805
1548436001766,-0.214417,-0.973999,-0.187744,0.365854,-0.670732,-0.792683
1548436001774,-0.214783,-0.977356,-0.195129,0.609756,-0.670732,-1.280488
1548436001789,-0.212036,-0.970947,-0.203064,1.097561,-1.402439,-1.890244
1548436001796,-0.212402,-0.967163,-0.208008,2.378049,-2.012195,-2.317073
1548436001804,-0.210693,-0.971252,-0.203613,5.182927,-2.804878,-2.926829
1548436001819,-0.212402,-0.980835,-0.183716,8.658537,-3.353659,-3.414634
1548436001826,-0.196777,-0.991882,-0.183228,11.768293,-3.353659,-3.536585
1548436001834,-0.209106,-0.994202,-0.170593,12.804878,-3.048780,-3.475610
1548436001849,-0.196899,-0.987915,-0.165894,12.378049,-3.597561,-3.048780
1548436001856,-0.203369,-1.011536,-0.155884,11.890244,-2.500000,-1.280488
1548436001864,-0.205444,-1.019165,-0.154724,11.158537,-2.195122,0.426829
1548436001879,-0.209106,-1.002441,-0.156372,7.865854,-1.280488,2.256098
1548436001886,-0.204285,-0.998779,-0.158630,4.268293,-0.426829,3.292683
1548436001894,-0.203918,-0.990845,-0.165710,1.707317,0.365854,3.963415
1548436001909,-0.206665,-0.982910,-0.170471,-0.853659,-0.182927,4.207317
1548436001916,-0.198792,-0.977661,-0.169373,-1.951220,-0.975610,4.634146
1548436001924,-0.181030,-0.957947,-0.169861,-1.402439,-1.280488,4.451220
1548436001939,-0.216248,-0.994385,-0.156128,4.085366,-1.402439,-2.195122
1548436001946,-0.236572,-1.010071,-0.151489,9.085366,-1.646341,-6.463415
1548436001954,-0.223877,-0.982300,-0.158447,5.914634,-0.792683,-3.231707
1548436001969,-0.205994,-0.968811,-0.160095,0.426829,0.060976,-2.256098
1548436001976,-0.194641,-0.974243,-0.158813,-1.585366,0.853659,-2.073171
1548436001984,-0.207397,-0.984009,-0.152466,-0.426829,1.280488,-1.280488
1548436001999,-0.220520,-0.987549,-0.156311,-0.060976,1.341463,-0.182927
1548436002006,-0.210815,-0.985229,-0.165039,-1.158537,1.768293,0.975610
1548436002014,-0.207092,-0.979126,-0.169006,-1.036585,2.439024,0.792683
1548436002029,-0.218079,-0.981628,-0.172668,1.158537,2.378049,0.121951
1548436002036,-0.222595,-0.980225,-0.169189,2.743902,1.890244,0.243902
1548436002044,-0.222412,-0.981750,-0.172668,2.621951,1.768293,0.243902
1548436002059,-0.228333,-0.980591,-0.170959,1.036585,1.341463,-0.182927
1548436002066,-0.218323,-0.986755,-0.178894,-1.646341,0.975610,-0.365854
1548436002074,-0.205933,-0.977234,-0.183533,-3.841464,0.792683,0.243902
1548436002089,-0.205811,-0.975769,-0.185974,-2.743902,0.548781,-0.975610
1548436002096,-0.203613,-0.979614,-0.177368,-0.792683,-0.365854,-1.463415
1548436002104,-0.201782,-0.977722,-0.173096,1.219512,-0.975610,-1.219512
1548436002119,-0.205261,-0.979858,-0.170410,2.317073,-1.646341,-1.646341
1548436002126,-0.204468,-0.985046,-0.168030,3.658537,-2.256098,-1.707317
1548436002134,-0.202820,-0.990967,-0.167114,4.634146,-2.317073,-1.524390
1548436002149,-0.201416,-0.993530,-0.163818,5.182927,-2.012195,-1.219512
1548436002156,-0.203125,-0.984741,-0.166016,5.182927,-1.280488,-0.304878
1548436002164,-0.209167,-0.983032,-0.162720,4.756098,-0.975610,0.731707
1548436002179,-0.208252,-1.000305,-0.160583,5.304878,-0.426829,1.280488
1548436002186,-0.210632,-1.001343,-0.160461,5.609756,0.000000,1.646341
1548436002194,-0.206604,-0.987183,-0.167236,3.658537,0.243902,1.463415
1548436002209,-0.204346,-0.977722,-0.167786,1.524390,0.060976,0.975610
1548436002224,-0.206299,-0.976074,-0.166565,0.914634,-1.036585,0.487805
1548436002224,-0.213928,-0.984375,-0.160583,1.768293,-1.707317,0.426829
1548436002239,-0.212280,-0.988525,-0.155579,2.926829,-2.134146,0.365854
1548436002246,-0.210510,-0.988586,-0.155945,2.804878,-1.768293,-0.121951
1548436002254,-0.206421,-0.988525,-0.157104,2.378049,-1.341463,-0.426829
1548436002269,-0.203003,-0.988647,-0.163269,2.195122,-0.731707,-0.243902
1548436002276,-0.203186,-0.984924,-0.163513,1.951220,-0.670732,-0.121951
1548436002284,-0.204895,-0.988525,-0.162170,2.378049,-0.670732,0.304878
1548436002299,-0.208313,-0.997009,-0.156860,3.231707,-0.792683,0.853659
1548436002306,-0.206421,-0.995056,-0.154968,2.987805,-1.036585,1.219512
1548436002314,-0.204468,-0.995972,-0.158752,1.646341,-0.914634,1.463415
1548436002329,-0.204529,-0.995605,-0.159058,0.487805,-0.853659,1.768293
1548436002336,-0.204041,-0.989380,-0.160828,-0.304878,-0.548781,2.378049
1548436002344,-0.205627,-0.984802,-0.164978,-0.914634,-0.365854,2.865854
1548436002359,-0.193604,-0.984375,-0.160461,-1.097561,-0.487805,3.048780
1548436002366,-0.216187,-1.014099,-0.167419,-3.902439,0.243902,0.548781
1548436002374,-0.224365,-0.937805,-0.167603,-12.560976,2.195122,-6.158537
1548436002389,-0.215576,-0.973877,-0.176697,-4.512195,-1.341463,2.865854
1548436002396,-0.216187,-0.979614,-0.163940,-0.426829,-2.926829,-0.243902
1548436002404,-0.203247,-0.974487,-0.165649,-3.170732,-2.256098,-3.048780
1548436002419,-0.203613,-0.985596,-0.158020,-3.170732,-1.890244,0.426829
1548436002426,-0.209473,-1.005005,-0.174316,6.158537,-3.841464,-0.121951
1548436002434,-0.208862,-0.970764,-0.179321,5.121951,-3.963415,-0.853659
1548436002449,-0.205261,-0.979919,-0.176880,2.621951,-3.109756,-0.182927
1548436002456,-0.205322,-0.986633,-0.169250,2.012195,-3.292683,-0.060976
1548436002464,-0.213013,-0.991516,-0.163391,3.170732,-4.268293,-0.121951
1548436002479,-0.209778,-0.985229,-0.160828,3.170732,-4.329268,-0.304878
1548436002486,-0.204956,-0.987000,-0.157593,3.902439,-4.024390,-0.731707
1548436002494,-0.201050,-0.991272,-0.153198,5.000000,-4.329268,-0.731707
1548436002509,-0.204529,-0.990601,-0.153320,5.243903,-4.329268,-0.243902
1548436002516,-0.207581,-0.992065,-0.150146,5.487805,-4.207317,0.365854
1548436002524,-0.208435,-0.989685,-0.145386,5.121951,-4.024390,0.548781
1548436002539,-0.210876,-0.989685,-0.142395,4.939024,-3.597561,0.548781
1548436002546,-0.214355,-0.996460,-0.143860,5.548780,-3.231707,0.304878
1548436002554,-0.212769,-0.993713,-0.146301,4.573171,-2.987805,0.121951
1548436002569,-0.205627,-0.989441,-0.151184,3.170732,-2.439024,-0.060976
1548436002576,-0.206909,-0.988220,-0.156433,1.951220,-2.012195,-0.243902
1548436002584,-0.205994,-0.990784,-0.158875,0.914634,-2.134146,-0.731707
1548436002599,-0.198853,-0.989929,-0.169067,0.975610,-2.500000,-0.243902
1548436002606,-0.195435,-0.991882,-0.164124,1.829268,-3.780488,0.975610
1548436002614,-0.205322,-0.995239,-0.153442,1.158537,-4.329268,0.243902
1548436002629,-0.214050,-0.991150,-0.153015,0.548781,-3.780488,-0.365854
1548436002636,-0.212280,-0.992737,-0.150391,1.463415,-4.268293,0.365854
1548436002644,-0.206116,-0.988892,-0.155640,1.524390,-4.817073,0.426829
1548436002659,-0.209106,-0.984131,-0.155029,1.524390,-4.573171,0.548781
1548436002666,-0.211487,-0.985657,-0.149048,2.560976,-4.573171,0.853659
1548436002674,-0.212524,-0.986145,-0.143921,3.658537,-4.512195,0.853659
1548436002689,-0.210571,-0.986206,-0.144043,4.146341,-4.390244,0.975610
1548436002696,-0.213745,-0.987305,-0.144775,4.756098,-4.146341,1.036585
1548436002704,-0.210510,-0.982117,-0.142273,5.365854,-4.024390,0.731707
1548436002719,-0.214905,-0.983154,-0.138123,6.280488,-3.658537,0.609756
1548436002726,-0.215820,-0.987488,-0.128235,6.829268,-3.170732,0.731707
1548436002734,-0.211914,-0.992310,-0.126770,7.012195,-2.317073,0.487805
1548436002749,-0.214111,-0.991211,-0.129150,7.378049,-1.707317,0.426829
1548436002757,-0.215027,-0.987488,-0.131531,8.048780,-1.402439,0.548781
1548436002764,-0.211731,-0.990906,-0.134888,8.719512,-1.036585,0.609756
1548436002779,-0.209290,-0.996643,-0.138367,9.878049,-0.670732,0.670732
1548436002787,-0.209412,-1.000427,-0.143005,10.731708,-0.975610,0.975610
1548436002794,-0.208252,-0.996277,-0.142578,10.670732,-1.158537,1.341463
1548436002809,-0.207458,-0.994446,-0.139404,9.634147,-1.280488,1.341463
1548436002817,-0.206421,-0.995483,-0.135071,8.292683,-1.463415,1.280488
1548436002824,-0.204163,-0.995544,-0.132019,7.439024,-1.585366,1.524390
1548436002839,-0.211853,-0.991089,-0.126587,6.646342,-1.829268,1.707317
1548436002847,-0.213623,-0.988831,-0.128418,5.792683,-2.134146,1.585366
1548436002854,-0.215210,-0.989807,-0.126404,5.000000,-2.317073,1.341463
1548436002869,-0.214172,-0.987610,-0.125854,4.817073,-2.560976,1.341463
1548436002877,-0.216187,-0.993347,-0.119507,5.670732,-2.743902,1.524390
1548436002884,-0.215576,-0.997192,-0.119019,6.585366,-2.987805,1.524390
1548436002899,-0.217651,-0.995789,-0.120239,7.012195,-2.804878,1.646341
1548436002907,-0.212952,-0.992554,-0.120483,6.341464,-2.500000,1.768293
1548436002914,-0.207275,-0.986145,-0.117676,5.487805,-1.951220,1.768293
1548436002929,-0.211609,-0.987732,-0.113464,5.121951,-1.585366,1.951220
1548436002937,-0.214111,-0.994446,-0.110657,4.756098,-1.280488,2.012195
1548436002944,-0.217590,-0.992859,-0.115967,3.353659,-0.853659,1.646341
1548436002959,-0.220093,-0.982727,-0.125488,1.219512,-0.609756,1.646341
1548436002967,-0.218811,-0.979492,-0.130920,0.243902,-0.304878,2.012195
1548436002974,-0.217346,-0.982849,-0.133789,1.524390,-0.182927,2.012195
1548436002990,-0.216919,-0.989807,-0.131165,3.231707,-0.243902,1.341463
1548436002997,-0.217468,-0.988220,-0.133179,3.719512,-0.304878,0.853659
1548436003004,-0.215332,-0.983582,-0.132446,3.963415,-0.426829,1.158537
1548436003019,-0.215454,-0.988220,-0.122253,4.512195,-0.792683,1.036585
1548436003027,-0.218201,-0.993835,-0.111145,5.000000,-1.280488,0.487805
1548436003034,-0.216614,-1.002380,-0.107178,4.878049,-1.402439,0.243902
1548436003050,-0.214722,-1.003479,-0.108704,3.963415,-1.097561,0.060976
1548436003057,-0.212402,-1.004578,-0.111328,3.048780,-1.158537,0.304878
1548436003064,-0.212158,-1.003723,-0.116455,3.536585,-1.097561,1.036585
1548436003079,-0.218628,-1.000183,-0.113098,5.304878,-1.341463,1.951220
1548436003087,-0.219116,-0.999573,-0.107849,5.914634,-1.463415,2.317073
1548436003094,-0.222717,-0.987915,-0.105591,5.121951,-0.975610,2.560976
1548436003109,-0.225403,-0.982605,-0.098572,4.512195,-0.670732,2.926829
1548436003116,-0.224731,-0.974487,-0.092163,4.329268,-0.731707,3.048780
1548436003124,-0.224915,-0.967529,-0.088989,4.207317,-0.304878,2.621951
1548436003139,-0.227417,-0.969177,-0.089478,3.414634,0.182927,1.829268
1548436003147,-0.229919,-0.974609,-0.095337,1.707317,0.365854,0.975610
1548436003154,-0.230774,-0.985352,-0.096741,0.121951,1.280488,0.121951
1548436003169,-0.227844,-0.991577,-0.097107,-0.365854,2.439024,-0.365854
1548436003176,-0.220337,-0.998047,-0.088074,1.219512,3.353659,-0.487805
1548436003184,-0.217712,-1.009216,-0.084839,3.841464,4.390244,-0.121951
1548436003199,-0.213257,-1.015625,-0.077576,6.402439,5.609756,0.548781
1548436003207,-0.203674,-1.021545,-0.079895,8.536586,6.890244,1.219512
1548436003214,-0.190491,-1.025879,-0.080200,9.390244,8.292683,2.073171
1548436003230,-0.181763,-1.036682,-0.083679,10.121951,9.878049,2.926829
1548436003237,-0.182007,-1.038818,-0.097656,11.036586,10.792684,3.963415
1548436003244,-0.189758,-1.023010,-0.111877,10.975610,11.280488,5.365854
1548436003259,-0.214722,-1.006653,-0.118835,8.780488,10.853659,6.280488
1548436003267,-0.229797,-1.004150,-0.127747,4.695122,10.487805,6.646342
1548436003274,-0.237122,-0.992859,-0.137512,0.304878,10.304878,7.195122
1548436003289,-0.238831,-0.995056,-0.147156,-4.146341,9.085366,7.804878
1548436003297,-0.237488,-0.987000,-0.151367,-8.292683,7.682927,8.048780
1548436003304,-0.234436,-0.970215,-0.155640,-11.585366,6.341464,8.109756
1548436003319,-0.234619,-0.968384,-0.149475,-14.512196,4.817073,7.682927
1548436003327,-0.232178,-0.976990,-0.139099,-16.158537,3.170732,6.646342
1548436003334,-0.228699,-0.970642,-0.126221,-17.073172,1.463415,5.975610
1548436003349,-0.227295,-0.969055,-0.115845,-18.109756,0.487805,5.243903
1548436003357,-0.228333,-0.970886,-0.111389,-18.353659,-0.243902,3.719512
1548436003365,-0.233643,-0.966919,-0.119873,-17.195122,-0.914634,2.865854
1548436003379,-0.237000,-0.962891,-0.129883,-15.731708,-1.768293,2.621951
1548436003387,-0.238647,-0.968567,-0.127869,-13.597561,-2.073171,2.134146
1548436003394,-0.242126,-0.965637,-0.133728,-11.036586,-2.317073,1.463415
1548436003409,-0.239746,-0.962280,-0.137207,-7.987805,-2.256098,0.792683
1548436003417,-0.231140,-0.968567,-0.135254,-5.060976,-2.378049,0.000000
1548436003424,-0.227539,-0.973206,-0.131104,-2.012195,-2.439024,-0.853659
1548436003439,-0.231384,-0.976868,-0.128418,-0.365854,-2.378049,-1.341463
1548436003447,-0.230835,-0.980347,-0.125916,-0.914634,-2.256098,-1.890244
1548436003454,-0.229675,-0.993530,-0.125000,-1.219512,-1.463415,-2.073171
1548436003469,-0.233459,-1.003784,-0.128601,-0.487805,-1.463415,-1.951220
1548436003477,-0.232605,-1.006409,-0.127197,0.365854,-1.768293,-1.707317
1548436003485,-0.236023,-1.004883,-0.129028,-0.060976,-1.524390,-1.402439
1548436003499,-0.232239,-0.998840,-0.130005,-2.378049,-1.341463,-0.792683
1548436003507,-0.228577,-0.994202,-0.131775,-4.634146,-0.914634,-0.121951
1548436003522,-0.225769,-0.992310,-0.127991,-6.036585,-0.792683,0.365854
1548436003530,-0.230347,-0.991699,-0.129211,-6.036585,-0.609756,0.426829
1548436003537,-0.236206,-0.993530,-0.128967,-5.853659,-0.792683,0.182927
1548436003544,-0.234131,-1.001709,-0.130554,-6.219512,-1.280488,0.243902
1548436003559,-0.230469,-0.991699,-0.138672,-6.890244,-0.975610,0.487805
1548436003567,-0.225952,-0.973938,-0.144836,-6.524390,-0.670732,0.853659
1548436003574,-0.223755,-0.968262,-0.149780,-5.548780,-0.792683,1.097561
1548436003590,-0.225525,-0.966187,-0.155823,-3.658537,-0.670732,0.914634
1548436003597,-0.231384,-0.977112,-0.159546,-1.341463,-1.341463,0.853659
1548436003604,-0.232361,-0.988647,-0.159180,0.426829,-1.951220,0.365854
1548436003619,-0.234497,-0.987976,-0.162781,1.402439,-2.378049,0.060976
1548436003627,-0.230286,-0.990417,-0.162109,1.585366,-2.926829,0.304878
1548436003634,-0.227234,-0.992676,-0.155823,2.012195,-3.048780,0.304878
1548436003650,-0.229736,-0.994934,-0.152161,2.012195,-3.475610,0.670732
1548436003657,-0.226013,-0.988586,-0.148682,1.585366,-3.963415,1.036585
1548436003664,-0.225586,-0.982300,-0.147339,1.646341,-3.719512,1.341463
1548436003679,-0.227356,-0.983032,-0.148010,2.743902,-3.902439,1.829268
1548436003694,-0.230591,-0.988647,-0.144836,4.512195,-4.268293,2.073171
1548436003695,-0.231873,-0.984497,-0.148621,5.609756,-4.146341,2.134146
1548436003709,-0.228271,-0.979858,-0.142639,6.402439,-3.963415,1.890244
1548436003717,-0.229675,-0.986023,-0.133606,8.048780,-3.902439,1.646341
1548436003724,-0.234436,-0.987549,-0.127319,10.243902,-3.902439,1.768293
1548436003739,-0.235474,-0.983398,-0.120056,12.378049,-3.841464,2.073171
1548436003747,-0.230530,-0.979553,-0.116394,13.963415,-3.719512,2.012195
1548436003754,-0.225769,-0.976868,-0.110535,15.182927,-3.353659,2.073171
1548436003770,-0.236816,-0.981201,-0.104614,16.707317,-3.414634,2.134146
1548436003777,-0.241211,-0.990234,-0.100464,17.560976,-3.475610,1.646341
1548436003784,-0.238953,-0.987732,-0.096069,16.768293,-2.987805,1.219512
1548436003800,-0.230347,-0.987488,-0.089111,15.548780,-2.195122,1.524390
1548436003807,-0.227112,-0.987915,-0.080627,14.878049,-1.463415,1.707317
1548436003814,-0.237915,-0.986511,-0.083191,15.060976,-0.853659,1.524390
1548436003837,-0.254517,-0.998230,-0.091919,14.451220,-0.365854,1.158537
1548436003837,-0.260620,-1.002563,-0.104858,12.500000,-0.609756,0.792683
1548436003845,-0.251160,-0.998840,-0.115540,9.573171,-0.975610,1.097561
1548436003859,-0.243835,-0.992065,-0.121948,5.548780,-1.280488,1.402439
1548436003867,-0.239319,-0.984009,-0.126343,0.609756,-1.585366,1.158537
1548436003874,-0.239624,-0.982361,-0.127319,-3.292683,-1.768293,0.914634
1548436003889,-0.235229,-0.981262,-0.121582,-5.121951,-2.378049,0.670732
1548436003897,-0.230225,-0.983704,-0.125854,-6.219512,-2.682927,0.548781
1548436003904,-0.226135,-0.979858,-0.134949,-7.926829,-2.865854,0.304878
1548436003919,-0.222595,-0.977417,-0.139282,-8.353659,-2.743902,0.182927
1548436003927,-0.223511,-0.978577,-0.138550,-6.524390,-2.317073,0.243902
1548436003934,-0.230408,-0.984619,-0.131653,-3.475610,-2.195122,0.060976
1548436003950,-0.238342,-0.986816,-0.120972,-1.036585,-2.439024,-0.121951
1548436003957,-0.241333,-0.985840,-0.115967,0.548781,-2.378049,-0.121951
1548436003964,-0.234192,-0.982117,-0.116028,1.341463,-2.134146,-0.121951
1548436003987,-0.233093,-0.984497,-0.110168,3.292683,-2.073171,0.243902
1548436003987,-0.238892,-0.999878,-0.106689,6.097561,-2.256098,0.000000
1548436003995,-0.243286,-0.994751,-0.105103,7.682927,-2.378049,-0.487805
1548436004009,-0.244202,-0.986023,-0.100464,7.682927,-2.134146,-0.243902
1548436004017,-0.238037,-0.979370,-0.102478,7.012195,-1.890244,0.304878
1548436004024,-0.232239,-0.992310,-0.101868,7.439024,-1.829268,0.365854
1548436004040,-0.234436,-0.997803,-0.103088,7.500000,-2.317073,0.182927
1548436004047,-0.240662,-0.999695,-0.100403,6.036585,-1.890244,0.365854
1548436004054,-0.246704,-0.994995,-0.095947,4.085366,-1.280488,0.670732
1548436004069,-0.245605,-0.986633,-0.086182,2.804878,-0.365854,0.548781
1548436004077,-0.236267,-0.986328,-0.084229,1.646341,1.707317,0.548781
1548436004084,-0.234741,-0.984680,-0.093018,0.426829,3.048780,0.426829
1548436004100,-0.235718,-0.987488,-0.099731,0.243902,2.621951,0.426829
1548436004107,-0.232910,-0.988281,-0.106445,1.463415,2.195122,0.670732
1548436004114,-0.234436,-0.993347,-0.108582,3.719512,1.280488,0.914634
1548436004129,-0.238220,-0.990845,-0.110352,5.426829,0.000000,0.914634
1548436004137,-0.235413,-0.984985,-0.115295,5.487805,-0.548781,0.487805
1548436004144,-0.234192,-0.978882,-0.103149,4.878049,-0.609756,0.487805
1548436004167,-0.234558,-0.987915,-0.102417,4.451220,-0.853659,0.670732
1548436004167,-0.238159,-0.985840,-0.100952,3.231707,-0.975610,0.060976
1548436004174,-0.237122,-0.981323,-0.091797,2.500000,-1.524390,-0.121951
1548436004189,-0.237305,-0.988953,-0.091187,2.987805,-1.280488,-0.243902
1548436004197,-0.240479,-0.989014,-0.089172,4.146341,-1.280488,-0.243902
1548436004205,-0.237976,-0.990845,-0.091614,5.121951,-1.402439,-0.121951
1548436004220,-0.238586,-0.991516,-0.096680,4.695122,-0.975610,-0.243902
1548436004227,-0.239136,-0.989746,-0.095093,4.451220,-0.853659,-0.121951
1548436004234,-0.235413,-0.992737,-0.094299,5.060976,-0.975610,-0.060976
1548436004249,-0.237854,-1.001465,-0.089417,5.548780,-0.975610,-0.060976
1548436004257,-0.229858,-0.991943,-0.108032,5.304878,-0.975610,-0.182927
1548436004264,-0.226746,-0.975159,-0.094299,5.792683,-0.853659,0.000000
1548436004279,-0.231689,-1.002686,-0.088745,6.402439,-1.768293,0.304878
1548436004287,-0.238525,-0.993713,-0.101074,4.085366,-0.914634,-0.548781
1548436004295,-0.237793,-0.985596,-0.089233,3.292683,-0.426829,-0.426829
1548436004309,-0.231323,-0.998291,-0.084229,4.634146,-1.097561,0.121951
1548436004317,-0.239502,-0.989746,-0.085022,4.878049,-0.304878,-0.182927
1548436004324,-0.238464,-0.987915,-0.075928,4.451220,-0.121951,-0.182927
1548436004339,-0.233948,-0.995300,-0.077026,3.963415,0.243902,0.000000
1548436004347,-0.233643,-0.992371,-0.077942,3.597561,0.487805,0.121951
1548436004354,-0.234802,-0.987854,-0.080811,3.353659,0.365854,0.365854
1548436004369,-0.237610,-0.990295,-0.079163,3.780488,0.304878,0.243902
1548436004377,-0.238953,-0.983887,-0.078613,3.780488,0.487805,0.060976
1548436004385,-0.237427,-0.984131,-0.077332,3.414634,0.731707,-0.060976
1548436004399,-0.237549,-0.986694,-0.075745,3.109756,1.036585,-0.426829
1548436004407,-0.236755,-0.987000,-0.074890,2.926829,1.402439,-0.548781
1548436004414,-0.235718,-0.989929,-0.075684,2.560976,1.768293,-0.731707
1548436004429,-0.235657,-0.991821,-0.075867,2.439024,2.012195,-0.914634
1548436004437,-0.239197,-0.990234,-0.078491,2.865854,2.012195,-0.914634
1548436004444,-0.235352,-0.990051,-0.076782,3.597561,2.012195,-0.975610
1548436004459,-0.235718,-0.994080,-0.080688,3.841464,1.951220,-1.219512
1548436004467,-0.235352,-0.995789,-0.083252,2.987805,1.768293,-1.280488
1548436004474,-0.234314,-0.995422,-0.084656,1.890244,1.585366,-1.463415
1548436004489,-0.230042,-0.991272,-0.082886,0.914634,1.402439,-1.402439
1548436004497,-0.228516,-0.993103,-0.080811,0.792683,1.463415,-1.402439
1548436004505,-0.228821,-1.001892,-0.082581,1.158537,0.975610,-1.463415
1548436004519,-0.229797,-1.002014,-0.087097,0.243902,0.243902,-1.524390
1548436004527,-0.229126,-0.993286,-0.085693,-0.670732,0.243902,-1.280488
1548436004534,-0.231567,-0.997070,-0.086243,-0.365854,0.182927,-1.036585
1548436004550,-0.232422,-1.005432,-0.087891,-0.487805,-0.487805,-1.036585
1548436004557,-0.227722,-1.000000,-0.083557,-2.195122,-0.548781,-1.097561
1548436004564,-0.229187,-0.995300,-0.078186,-3.292683,-0.243902,-0.853659
1548436004579,-0.227905,-1.000183,-0.076233,-2.987805,-0.121951,-0.609756
1548436004587,-0.230835,-0.996338,-0.076355,-2.682927,-0.365854,-0.304878
1548436004595,-0.230957,-1.000916,-0.078857,-3.353659,0.060976,0.000000
1548436004610,-0.230408,-1.001770,-0.081970,-4.024390,0.304878,0.304878
1548436004617,-0.231018,-0.992493,-0.080322,-4.451220,0.243902,0.670732
1548436004624,-0.233154,-0.988586,-0.078918,-5.304878,0.975610,0.548781
1548436004639,-0.234497,-0.992554,-0.079834,-5.975610,1.463415,0.365854
1548436004647,-0.231445,-0.987671,-0.084839,-7.317073,1.463415,0.548781
1548436004654,-0.233459,-0.984680,-0.089417,-8.353659,1.585366,0.548781
1548436004670,-0.236755,-0.987244,-0.096680,-8.353659,1.524390,0.243902
1548436004677,-0.229980,-0.989563,-0.100708,-7.500000,1.524390,0.000000
1548436004685,-0.230408,-0.990234,-0.099365,-6.158537,1.463415,-0.060976
1548436004699,-0.231689,-0.990967,-0.096985,-4.817073,1.341463,0.182927
1548436004708,-0.229614,-0.996704,-0.097473,-2.987805,1.219512,0.304878
1548436004714,-0.230713,-0.998596,-0.101440,-1.829268,0.731707,0.243902
1548436004729,-0.223694,-0.998047,-0.104370,-2.682927,0.426829,0.426829
1548436004737,-0.223511,-0.999390,-0.104980,-4.573171,0.731707,0.609756
1548436004744,-0.225464,-1.005615,-0.104309,-6.402439,0.853659,0.731707
1548436004759,-0.230652,-1.007019,-0.095642,-7.743903,0.670732,0.914634
1548436004767,-0.232483,-1.000244,-0.094299,-8.048780,1.280488,1.219512
1548436004774,-0.233948,-0.998047,-0.094604,-7.621952,1.585366,1.646341
1548436004789,-0.233276,-0.995300,-0.097534,-7.500000,1.036585,1.890244
1548436004798,-0.230774,-0.991150,-0.102661,-7.987805,1.219512,2.073171
1548436004804,-0.229065,-0.994873,-0.109131,-8.719512,1.585366,2.621951
1548436004828,-0.226562,-0.995972,-0.114197,-9.268292,1.402439,2.926829
1548436004828,-0.228027,-0.994690,-0.125610,-10.182927,1.646341,2.987805
1548436004835,-0.229614,-0.993469,-0.130432,-11.707317,1.951220,3.109756
1548436004849,-0.232971,-0.993530,-0.132019,-13.109756,1.951220,3.231707
1548436004857,-0.236755,-0.985352,-0.133301,-14.512196,1.951220,3.170732
1548436004864,-0.238098,-0.981445,-0.136169,-16.463415,1.707317,2.987805
1548436004879,-0.235596,-0.979736,-0.140137,-18.841463,1.280488,2.865854
1548436004887,-0.231567,-0.986206,-0.140320,-21.402439,0.975610,2.621951
1548436004894,-0.231140,-0.989868,-0.138306,-23.963415,0.609756,2.134146
1548436004909,-0.232117,-0.988525,-0.144653,-25.975611,0.304878,1.829268
1548436004917,-0.234497,-0.992676,-0.154114,-26.951220,0.304878,1.707317
1548436004924,-0.234558,-0.994385,-0.159363,-26.036587,0.487805,2.012195
1548436004939,-0.234741,-0.990906,-0.164612,-22.865854,0.121951,2.926829
1548436004947,-0.240601,-0.983643,-0.166382,-18.536585,-0.609756,3.780488
1548436004954,-0.246277,-0.970032,-0.165588,-14.756098,-1.036585,4.390244
1548436004969,-0.241943,-0.966003,-0.163940,-11.951220,-1.097561,4.512195
1548436004976,-0.242249,-0.965759,-0.165588,-9.939025,-1.463415,4.451220
1548436004985,-0.242004,-0.962280,-0.167969,-9.634147,-1.829268,4.146341
1548436004999,-0.241455,-0.959961,-0.167419,-10.670732,-1.829268,3.719512
1548436005007,-0.245911,-0.952576,-0.167297,-11.524390,-2.073171,2.804878
1548436005014,-0.245056,-0.945251,-0.167725,-12.073171,-2.134146,1.768293
1548436005029,-0.245422,-0.956238,-0.168091,-11.890244,-2.195122,0.609756
1548436005036,-0.245544,-0.962219,-0.164246,-10.853659,-2.439024,-0.365854
1548436005044,-0.242493,-0.962158,-0.166992,-8.719512,-2.134146,-0.853659
1548436005059,-0.243958,-0.970947,-0.163940,-5.121951,-1.646341,-1.402439
1548436005066,-0.246155,-0.975281,-0.163940,-0.426829,-1.890244,-1.707317
1548436005074,-0.243408,-0.973633,-0.168518,3.170732,-1.829268,-1.707317
1548436005089,-0.238281,-0.977844,-0.170593,4.878049,-1.707317,-1.707317
1548436005097,-0.235168,-0.983215,-0.171082,4.756098,-1.646341,-1.768293
1548436005104,-0.238403,-0.981079,-0.175476,2.743902,-1.646341,-1.829268
1548436005119,-0.238647,-0.991577,-0.175964,0.060976,-1.341463,-1.890244
1548436005126,-0.239014,-0.986450,-0.175720,-1.341463,-0.975610,-1.768293
1548436005134,-0.238525,-0.993530,-0.171631,-0.426829,-0.975610,-1.280488
1548436005149,-0.238220,-0.990540,-0.169495,1.097561,-1.219512,-0.853659
1548436005157,-0.239929,-0.982910,-0.171509,2.256098,-1.524390,-0.365854
1548436005164,-0.236816,-0.975342,-0.171204,1.951220,-1.524390,-0.060976
1548436005179,-0.236145,-0.981262,-0.170349,1.890244,-1.341463,0.243902
1548436005186,-0.237427,-0.982666,-0.172546,1.646341,-1.463415,0.365854
1548436005194,-0.238403,-0.977173,-0.175598,1.158537,-1.280488,0.548781
1548436005209,-0.237915,-0.980469,-0.181519,0.548781,-1.036585,0.365854
1548436005217,-0.240723,-0.978455,-0.179565,0.609756,-1.341463,0.243902
1548436005224,-0.240356,-0.981567,-0.177612,1.341463,-1.524390,0.121951
1548436005239,-0.237427,-0.973145,-0.178345,1.951220,-1.768293,0.121951
1548436005246,-0.236694,-0.971558,-0.172852,2.743902,-1.829268,0.182927
1548436005254,-0.235229,-0.975403,-0.169617,3.414634,-1.829268,0.182927
1548436005269,-0.238892,-0.975403,-0.169861,3.536585,-1.707317,-0.182927
1548436005276,-0.241150,-0.979553,-0.172241,3.231707,-1.829268,-0.487805
1548436005284,-0.242004,-0.983276,-0.173828,3.048780,-1.890244,-0.426829
1548436005300,-0.239929,-0.986389,-0.171265,3.475610,-1.890244,-0.304878
1548436005307,-0.236084,-0.980591,-0.170471,3.475610,-1.951220,-0.365854
1548436005314,-0.234131,-0.984375,-0.165588,2.865854,-1.768293,-0.243902
1548436005329,-0.235901,-0.979431,-0.158752,2.256098,-1.524390,-0.121951
1548436005337,-0.243652,-0.986084,-0.155029,2.500000,-1.097561,0.121951
1548436005345,-0.241577,-0.990417,-0.152771,2.682927,-0.853659,0.060976
1548436005360,-0.237549,-0.986389,-0.158752,2.987805,-0.731707,0.304878
1548436005367,-0.236450,-0.990723,-0.161682,3.109756,-0.731707,0.853659
1548436005374,-0.237488,-0.995056,-0.165894,3.109756,-0.731707,1.219512
1548436005390,-0.240356,-0.981689,-0.167725,2.865854,-0.548781,1.646341
1548436005398,-0.242981,-0.972839,-0.165527,1.829268,-0.792683,1.585366
1548436005404,-0.240540,-0.980164,-0.161011,0.182927,-0.548781,1.219512
1548436005420,-0.237244,-0.974548,-0.158997,-0.365854,-0.121951,1.402439
1548436005427,-0.243530,-0.978088,-0.159302,0.426829,-0.548781,1.646341
1548436005434,-0.242981,-0.973816,-0.161621,0.487805,-0.853659,1.280488
1548436005450,-0.242432,-0.971924,-0.161682,1.097561,-0.304878,0.975610
1548436005457,-0.239685,-0.973938,-0.156921,2.378049,-0.243902,0.914634
1548436005465,-0.237793,-0.973755,-0.156860,3.109756,-0.121951,0.792683
1548436005480,-0.239685,-0.978271,-0.162415,2.317073,-0.182927,0.304878
1548436005487,-0.240112,-0.973450,-0.171265,0.243902,-0.365854,-0.304878
1548436005494,-0.241028,-0.979675,-0.170105,-0.853659,-0.182927,-0.426829
1548436005510,-0.243042,-0.980591,-0.165833,-0.609756,-0.487805,-0.487805
1548436005517,-0.239258,-0.978638,-0.160461,0.914634,-0.304878,-0.426829
1548436005524,-0.236450,-0.982849,-0.157532,1.951220,-0.243902,-0.426829
1548436005539,-0.235840,-0.984863,-0.158081,2.134146,-0.121951,-0.365854
1548436005548,-0.237244,-0.984497,-0.160645,1.646341,-0.121951,-0.182927
1548436005554,-0.240601,-0.988831,-0.161438,1.463415,0.121951,-0.243902
1548436005570,-0.240906,-0.986755,-0.164429,1.036585,0.182927,-0.121951
1548436005578,-0.238892,-0.980652,-0.167542,0.731707,0.121951,0.121951
1548436005585,-0.237427,-0.985291,-0.169922,1.036585,0.243902,0.426829
1548436005600,-0.238647,-0.984741,-0.170837,0.792683,-0.121951,0.548781
1548436005607,-0.238464,-0.979919,-0.170166,0.243902,0.000000,0.548781
1548436005614,-0.239075,-0.977539,-0.165710,-0.121951,-0.060976,0.548781
1548436005629,-0.235535,-0.979370,-0.160339,0.121951,-0.182927,0.670732
1548436005637,-0.238281,-0.980713,-0.158081,0.670732,-0.182927,0.548781
1548436005644,-0.240967,-0.978699,-0.157654,0.731707,-0.304878,0.426829
1548436005659,-0.240295,-0.982605,-0.159302,1.036585,-0.060976,0.548781
1548436005668,-0.239197,-0.990845,-0.163391,2.134146,-0.365854,0.609756
1548436005675,-0.238403,-0.997742,-0.166077,2.134146,-0.670732,0.853659
1548436005690,-0.238525,-0.986206,-0.169006,0.853659,-0.365854,1.097561
1548436005697,-0.235474,-0.986084,-0.162903,-0.182927,-0.182927,1.219512
1548436005704,-0.237671,-0.978394,-0.159546,-0.548781,-0.304878,1.890244
1548436005720,-0.244141,-0.971497,-0.164185,-0.243902,-0.426829,2.317073
1548436005727,-0.245422,-0.974854,-0.162781,-0.426829,-0.243902,1.463415
1548436005735,-0.234863,-0.971008,-0.165466,-0.548781,-0.060976,1.036585
1548436005749,-0.241699,-0.971008,-0.168152,1.158537,-0.121951,1.341463
1548436005757,-0.241638,-0.974548,-0.169739,1.768293,-0.792683,1.097561
1548436005764,-0.239380,-0.971802,-0.167419,1.890244,-0.731707,0.609756
1548436005780,-0.239136,-0.966980,-0.167175,1.951220,-0.914634,0.426829
1548436005787,-0.237732,-0.970886,-0.165283,1.280488,-1.097561,0.060976
1548436005794,-0.237366,-0.975586,-0.167114,0.853659,-0.792683,-0.487805
1548436005809,-0.238647,-0.980225,-0.168213,0.792683,-1.097561,-0.914634
1548436005817,-0.238892,-0.980652,-0.168640,0.731707,-1.341463,-1.036585
1548436005825,-0.243042,-0.981567,-0.165833,1.402439,-1.463415,-1.158537
1548436005840,-0.242249,-0.985840,-0.162476,2.317073,-1.585366,-1.158537
1548436005847,-0.238831,-0.989197,-0.156250,2.500000,-1.707317,-0.975610
1548436005854,-0.238525,-0.983337,-0.158569,1.890244,-1.585366,-0.548781
1548436005870,-0.240356,-0.984558,-0.160156,1.036585,-1.585366,-0.609756
1548436005877,-0.239868,-0.996948,-0.158203,0.121951,-1.646341,-0.731707
1548436005884,-0.240540,-0.991577,-0.161011,0.426829,-1.402439,-0.304878
1548436005899,-0.241455,-0.980591,-0.162903,0.121951,-1.707317,0.182927
1548436005907,-0.233154,-0.975403,-0.161255,-0.853659,-1.524390,0.243902
1548436005915,-0.233215,-0.975830,-0.155029,-0.914634,-1.402439,0.182927
1548436005929,-0.238831,-0.981323,-0.150391,-0.792683,-1.341463,0.060976
1548436005937,-0.241089,-0.977783,-0.155518,-1.402439,-1.158537,-0.060976
1548436005944,-0.236633,-0.975342,-0.161072,-1.280488,-0.914634,0.000000
1548436005960,-0.235596,-0.979065,-0.162231,-0.060976,-0.914634,-0.243902
1548436005967,-0.239563,-0.989624,-0.161743,1.219512,-1.219512,-0.426829
1548436005974,-0.241638,-0.965454,-0.169128,1.097561,-1.219512,-0.365854
1548436005989,-0.238281,-0.961975,-0.173584,0.609756,-0.975610,-0.548781
1548436005997,-0.239319,-0.999451,-0.161987,-0.304878,-1.524390,-1.402439
1548436006005,-0.241394,-0.985046,-0.162231,-0.975610,-1.097561,-1.036585
1548436006019,-0.245117,-0.969910,-0.150146,-0.853659,-0.731707,-0.426829
1548436006027,-0.231262,-0.989746,-0.140686,-1.402439,0.182927,-1.280488
1548436006034,-0.225769,-1.019836,-0.119629,-1.402439,0.914634,-2.317073
1548436006050,-0.216431,-1.033081,-0.145264,-6.585366,0.060976,-3.170732
1548436006057,-0.224304,-1.024048,-0.198120,-22.134148,-0.914634,-4.024390
1548436006064,-0.228821,-0.965698,-0.239319,-45.182926,-1.463415,-4.329268
1548436006080,-0.222839,-0.974365,-0.252991,-64.939026,0.914634,-5.121951
1548436006087,-0.228760,-1.020264,-0.227539,-76.463417,1.646341,-5.487805
1548436006096,-0.229309,-1.044128,-0.191284,-82.378052,1.646341,-5.060976
1548436006109,-0.225952,-1.060486,-0.155701,-90.426834,2.439024,-5.914634
1548436006117,-0.225830,-1.057373,-0.185059,-107.378052,2.865854,-8.231708
1548436006125,-0.223450,-1.004578,-0.233032,-133.841461,4.146341,-9.512196
1548436006140,-0.235291,-0.924438,-0.275635,-161.463425,6.646342,-8.231708
1548436006147,-0.247620,-0.883362,-0.315796,-181.707321,8.353659,-6.585366
1548436006155,-0.232117,-0.864197,-0.330139,-191.890244,10.304878,-6.829268
1548436006170,-0.219177,-0.882751,-0.341064,-191.585373,11.524390,-6.768293
1548436006177,-0.238159,-0.878723,-0.370605,-186.829269,11.219512,-6.585366
1548436006185,-0.231384,-0.874023,-0.402832,-188.597565,12.500000,-10.609756
1548436006199,-0.234314,-0.829529,-0.411316,-190.731705,15.792684,-7.012195
1548436006207,-0.227905,-0.756226,-0.427795,-184.390244,16.951220,-5.670732
1548436006214,-0.202881,-0.751404,-0.465576,-177.012192,19.390244,-9.207317
1548436006229,-0.242798,-0.800415,-0.494446,-160.609756,18.902439,-3.780488
1548436006237,-0.296631,-0.901489,-0.531677,-135.060974,15.609756,-0.975610
1548436006245,-0.266541,-0.851074,-0.595032,-124.390244,22.317074,-11.219512
1548436006259,-0.205505,-0.856689,-0.648254,-129.939026,32.317074,-18.963415
1548436006267,-0.180115,-0.857727,-0.661682,-123.048782,31.402439,-7.865854
1548436006274,-0.174438,-0.769836,-0.696106,-109.939026,31.341465,-8.475610
1548436006290,-0.163269,-0.646729,-0.708008,-112.804878,35.426830,-9.512196
1548436006297,-0.201721,-0.622009,-0.691528,-102.378052,33.841465,-0.487805
1548436006304,-0.181946,-0.647827,-0.690674,-78.170731,27.743902,1.036585
1548436006319,-0.171814,-0.655579,-0.739990,-70.548782,26.524391,-4.878049
1548436006327,-0.182861,-0.668701,-0.796082,-74.146339,29.817074,-6.829268
1548436006335,-0.154846,-0.670898,-0.827026,-73.780487,31.219513,-9.268292
1548436006350,-0.125977,-0.663086,-0.829407,-66.463417,28.536587,-15.487805
1548436006357,-0.106995,-0.670410,-0.800964,-52.804878,23.780489,-17.804878
1548436006364,-0.152588,-0.693237,-0.770935,-34.024391,17.865854,-9.268292
1548436006379,-0.174805,-0.706055,-0.752502,-21.768293,13.292684,0.304878
1548436006387,-0.170471,-0.696777,-0.742432,-20.000000,9.451220,3.963415
1548436006394,-0.192200,-0.718872,-0.737915,-22.195122,6.707317,6.097561
1548436006410,-0.214844,-0.728271,-0.727356,-24.817074,4.573171,10.914635
1548436006418,-0.232544,-0.720520,-0.729309,-30.121952,4.085366,14.817074
1548436006426,-0.211304,-0.693848,-0.737732,-37.865856,5.487805,15.853659
1548436006440,-0.178894,-0.686157,-0.750793,-44.451221,5.914634,20.792683
1548436006447,-0.180481,-0.671570,-0.765503,-50.975613,10.426829,19.146341
1548436006455,-0.208008,-0.581848,-0.763977,-55.000000,16.097561,13.658537
1548436006471,-0.193604,-0.528442,-0.749695,-51.463417,18.109756,18.231709
1548436006477,-0.172180,-0.540833,-0.753113,-42.439026,18.475611,19.207317
1548436006486,-0.160461,-0.570557,-0.773438,-32.804878,18.658537,13.780488
1548436006500,-0.157166,-0.580261,-0.807861,-26.097561,20.670732,8.170732
1548436006508,-0.179932,-0.606079,-0.833313,-21.280489,22.317074,6.158537
1548436006516,-0.230591,-0.641479,-0.836487,-16.036585,21.402439,7.378049
1548436006529,-0.235229,-0.632324,-0.815979,-16.158537,21.646341,10.365854
1548436006537,-0.223999,-0.618835,-0.808289,-24.024391,24.085367,13.597561
1548436006544,-0.234741,-0.607910,-0.819763,-31.646341,26.768293,13.658537
1548436006559,-0.273254,-0.607971,-0.821106,-34.146343,27.195122,15.670732
1548436006567,-0.264343,-0.568787,-0.815552,-35.914635,25.914635,21.707317
1548436006574,-0.199158,-0.530884,-0.835266,-38.536587,25.060976,28.536587
1548436006589,-0.141907,-0.581116,-0.874878,-38.536587,24.573172,32.439026
1548436006597,-0.163696,-0.650879,-0.909912,-35.365856,23.963415,33.658539
1548436006604,-0.205139,-0.685608,-0.900024,-33.536587,21.707317,39.024391
1548436006619,-0.123962,-0.640381,-0.857361,-39.878048,16.829269,50.609756
1548436006627,-0.055237,-0.614746,-0.817932,-54.573174,14.634147,55.914635
1548436006635,-0.112793,-0.527100,-0.820679,-66.219513,19.451220,43.902439
1548436006649,-0.108521,-0.485413,-0.821167,-69.146339,21.158537,38.780487
1548436006659,-0.104492,-0.458618,-0.823364,-67.378052,20.121952,36.890244
1548436006664,-0.117981,-0.436890,-0.856506,-63.170734,20.548780,33.597561
1548436006681,-0.117432,-0.425476,-0.879272,-59.939026,22.134148,30.670732
1548436006690,-0.126587,-0.458679,-0.900024,-55.853661,23.597561,28.902439
1548436006694,-0.148254,-0.479004,-0.897095,-50.121952,23.109756,27.256098
1548436006709,-0.151367,-0.451721,-0.874084,-46.463417,22.073172,27.134148
1548436006717,-0.135254,-0.417175,-0.852844,-43.719513,21.219513,27.134148
1548436006725,-0.113220,-0.390015,-0.837646,-40.365856,20.243902,27.256098
1548436006739,-0.097534,-0.388000,-0.837830,-34.939026,19.451220,27.378050
1548436006747,-0.096680,-0.409790,-0.854736,-25.000000,17.926830,27.195122
1548436006754,-0.084839,-0.430847,-0.882751,-14.146341,16.280489,25.792683
1548436006769,-0.067505,-0.457275,-0.903076,-6.646342,15.487805,24.695122
1548436006777,-0.054688,-0.471741,-0.899292,-0.731707,14.268293,23.658537
1548436006784,-0.044434,-0.486328,-0.893372,2.987805,13.292684,22.743902
1548436006799,-0.038025,-0.496948,-0.896851,3.536585,13.658537,22.134148
1548436006806,-0.011230,-0.477112,-0.896362,2.743902,13.902439,21.951220
1548436006814,-0.000122,-0.493103,-0.886902,1.768293,13.231708,21.402439
1548436006829,-0.039124,-0.496948,-0.877075,1.829268,14.024390,17.865854
1548436006842,-0.037048,-0.505127,-0.888550,5.975610,13.109756,18.780489
1548436006851,-0.020569,-0.520691,-0.899597,8.536586,11.646341,20.487804
1548436006859,-0.016724,-0.513489,-0.897034,9.512196,11.036586,19.451220
1548436006866,-0.006409,-0.498901,-0.898193,10.304878,10.914635,18.414635
1548436006874,0.009827,-0.489624,-0.890564,10.853659,10.060976,17.621952
1548436006889,0.010925,-0.508423,-0.880493,11.768293,8.780488,16.585365
1548436006896,0.009583,-0.528503,-0.869385,12.865854,7.804878,14.817074
1548436006904,-0.003296,-0.494141,-0.852417,11.768293,6.707317,13.414635
1548436006919,-0.032959,-0.456665,-0.866577,9.268292,5.914634,11.646341
1548436006926,-0.059204,-0.463928,-0.876404,9.390244,4.756098,8.658537
1548436006934,-0.080872,-0.482483,-0.879700,12.317074,2.378049,6.890244
1548436006949,-0.100708,-0.500183,-0.882080,13.902439,0.975610,5.792683
1548436006956,-0.114441,-0.498962,-0.885742,12.012196,0.670732,4.817073
1548436006964,-0.124207,-0.490723,-0.887939,8.231708,0.548781,4.451220
1548436006979,-0.127136,-0.489624,-0.890625,5.243903,0.609756,3.780488
1548436006986,-0.128174,-0.491455,-0.894592,3.780488,0.670732,3.719512
1548436006994,-0.129944,-0.492981,-0.894958,2.743902,0.365854,4.268293
1548436007016,-0.139099,-0.485291,-0.894836,1.341463,0.304878,4.329268
1548436007017,-0.132812,-0.478638,-0.894165,-0.243902,0.792683,5.000000
1548436007024,-0.120972,-0.469849,-0.901428,-0.975610,1.097561,5.121951
1548436007039,-0.114319,-0.464905,-0.898315,-0.975610,0.365854,4.817073
1548436007046,-0.111023,-0.467041,-0.894348,-0.609756,-0.548781,4.573171
1548436007054,-0.114319,-0.468933,-0.892273,-0.548781,-0.975610,4.512195
1548436007069,-0.117249,-0.474487,-0.887146,0.000000,-1.097561,4.146341
1548436007076,-0.121094,-0.482788,-0.887573,1.768293,-1.463415,3.780488
1548436007084,-0.127808,-0.490479,-0.886963,2.865854,-1.829268,3.475610
1548436007099,-0.126648,-0.488403,-0.884033,2.439024,-1.768293,3.841464
1548436007106,-0.133240,-0.484009,-0.882446,1.219512,-1.158537,3.841464
1548436007114,-0.138000,-0.483276,-0.881409,0.060976,-0.914634,4.024390
1548436007129,-0.132812,-0.492004,-0.881287,-0.426829,0.182927,3.963415
1548436007136,-0.129700,-0.483521,-0.885925,-0.975610,0.792683,4.085366
1548436007144,-0.130737,-0.473511,-0.890137,-1.097561,0.426829,4.085366
1548436007159,-0.130005,-0.471680,-0.890015,-1.036585,0.243902,3.902439
1548436007166,-0.132812,-0.480164,-0.890869,-0.853659,0.121951,3.475610
1548436007174,-0.140869,-0.484985,-0.892151,-0.548781,0.000000,3.292683
1548436007189,-0.135742,-0.479858,-0.890076,-0.487805,-0.487805,4.207317
1548436007196,-0.133423,-0.470947,-0.885986,-1.097561,-0.853659,4.634146
1548436007204,-0.135437,-0.470154,-0.892578,-1.768293,-0.792683,3.902439
1548436007219,-0.133118,-0.473999,-0.891174,-1.341463,-0.670732,3.780488
1548436007226,-0.134155,-0.478088,-0.893738,-0.548781,-0.731707,3.414634
1548436007234,-0.131775,-0.468933,-0.892944,-0.609756,-0.487805,2.865854
1548436007249,-0.129272,-0.467163,-0.889832,-0.853659,-0.487805,2.621951
1548436007256,-0.132629,-0.472839,-0.890503,-0.304878,-0.731707,2.073171
1548436007264,-0.138428,-0.483032,-0.886047,0.609756,-0.609756,1.707317
1548436007279,-0.138245,-0.494141,-0.883240,0.853659,0.060976,1.402439
1548436007286,-0.131470,-0.487305,-0.882690,-0.304878,0.731707,1.158537
1548436007294,-0.125549,-0.474731,-0.886963,-2.500000,0.914634,0.975610
1548436007309,-0.125732,-0.472656,-0.891602,-4.146341,0.609756,0.731707
1548436007316,-0.125732,-0.476440,-0.892883,-4.329268,0.365854,0.487805
1548436007324,-0.125916,-0.473511,-0.891174,-4.329268,0.304878,0.304878
1548436007339,-0.122681,-0.462463,-0.893921,-4.939024,0.365854,0.243902
1548436007347,-0.121155,-0.456360,-0.896362,-4.939024,0.182927,0.304878
1548436007354,-0.119812,-0.455811,-0.900024,-3.902439,-0.243902,0.060976
1548436007369,-0.122131,-0.464355,-0.896240,-2.256098,-0.914634,-0.182927
1548436007376,-0.127930,-0.476929,-0.887939,-0.914634,-1.402439,-0.243902
1548436007384,-0.125488,-0.479797,-0.888184,-0.609756,-1.280488,-0.121951
1548436007399,-0.126343,-0.471375,-0.891113,-1.524390,-0.853659,0.121951
1548436007407,-0.123840,-0.468384,-0.891418,-2.256098,-0.426829,0.243902
1548436007414,-0.121887,-0.468079,-0.896179,-2.317073,0.000000,0.182927
1548436007429,-0.122498,-0.457642,-0.895142,-2.317073,-0.060976,0.548781
1548436007436,-0.119141,-0.457581,-0.899475,-2.012195,-0.060976,0.365854
1548436007444,-0.121643,-0.456360,-0.898438,-1.097561,-0.548781,0.426829
1548436007459,-0.123169,-0.460327,-0.895081,0.243902,-0.975610,0.243902
1548436007466,-0.123352,-0.463562,-0.895447,1.463415,-1.280488,-0.060976
1548436007474,-0.123474,-0.465759,-0.895203,1.829268,-1.585366,-0.243902
1548436007481,-0.123840,-0.471375,-0.888306,2.195122,-1.585366,-0.426829
1548436007496,-0.122559,-0.471680,-0.889343,2.317073,-1.585366,-0.182927
1548436007504,-0.124695,-0.471741,-0.890442,1.951220,-1.707317,-0.182927
1548436007519,-0.123779,-0.468262,-0.891113,1.402439,-1.402439,-0.060976
1548436007526,-0.123962,-0.466248,-0.893860,1.097561,-1.219512,0.182927
1548436007534,-0.123169,-0.464783,-0.894043,1.219512,-1.097561,0.304878
1548436007541,-0.125793,-0.466553,-0.891235,1.402439,-1.158537,0.060976
1548436007556,-0.125549,-0.472290,-0.893555,1.768293,-1.219512,-0.182927
1548436007564,-0.125488,-0.473633,-0.893799,2.073171,-1.280488,0.000000
1548436007571,-0.126282,-0.470459,-0.892273,1.768293,-1.158537,0.182927
1548436007586,-0.125549,-0.472900,-0.890076,1.585366,-1.036585,0.182927
1548436007594,-0.125305,-0.474609,-0.892395,1.463415,-0.975610,0.304878
1548436007601,-0.124390,-0.468872,-0.893250,0.975610,-0.853659,0.426829
1548436007616,-0.125061,-0.470581,-0.888123,0.609756,-0.731707,0.426829
1548436007624,-0.120850,-0.471863,-0.890198,0.609756,-0.548781,0.548781
1548436007631,-0.123962,-0.467529,-0.892639,0.365854,-0.365854,0.975610
1548436007646,-0.123596,-0.466309,-0.891357,0.243902,-0.487805,0.853659
1548436007654,-0.122986,-0.470154,-0.889709,0.609756,-0.426829,0.792683
1548436007661,-0.123230,-0.468628,-0.891296,0.975610,-0.548781,0.731707
1548436007676,-0.121704,-0.464722,-0.894531,1.097561,-0.853659,0.426829
1548436007684,-0.121704,-0.468018,-0.893799,1.280488,-1.158537,0.121951
1548436007691,-0.125244,-0.471741,-0.893982,1.585366,-1.402439,0.060976
1548436007706,-0.125671,-0.467896,-0.890320,1.768293,-1.646341,0.121951
1548436007721,-0.125732,-0.470642,-0.890198,2.012195,-1.585366,0.304878
1548436007722,-0.125427,-0.471985,-0.891113,2.134146,-1.768293,0.304878
1548436007736,-0.124207,-0.473633,-0.890320,2.317073,-1.646341,0.365854
1548436007744,-0.127441,-0.474854,-0.891968,2.317073,-1.524390,0.487805
1548436007751,-0.126587,-0.471680,-0.892517,2.073171,-1.585366,0.304878
1548436007766,-0.125244,-0.470947,-0.890503,1.890244,-1.585366,0.182927
1548436007774,-0.125427,-0.470764,-0.887512,1.707317,-1.524390,0.243902
1548436007782,-0.127380,-0.473206,-0.887695,1.707317,-1.524390,0.121951
1548436007796,-0.127258,-0.474121,-0.887085,1.646341,-1.463415,-0.182927
1548436007804,-0.128906,-0.470642,-0.888062,1.463415,-1.158537,-0.304878
1548436007811,-0.129761,-0.471924,-0.889038,1.524390,-1.036585,-0.243902
1548436007828,-0.126526,-0.471619,-0.890320,1.890244,-0.914634,-0.426829
1548436007834,-0.126343,-0.474487,-0.890442,2.134146,-0.914634,-0.487805
1548436007841,-0.127502,-0.477905,-0.890381,2.073171,-0.731707,-0.487805
1548436007856,-0.123657,-0.475525,-0.889282,1.890244,-0.853659,-0.243902
1548436007864,-0.125793,-0.478638,-0.889587,1.585366,-0.792683,-0.060976
1548436007871,-0.125854,-0.476868,-0.889160,1.158537,-0.914634,0.182927
1548436007896,-0.126343,-0.472229,-0.887329,0.609756,-0.731707,0.487805
1548436007897,-0.123596,-0.474426,-0.891846,0.609756,-0.731707,0.304878
1548436007903,-0.126587,-0.480469,-0.888672,0.975610,-0.792683,0.060976
1548436007973,-0.126709,-0.476746,-0.886536,0.975610,-0.792683,0.304878
1548436007973,-0.125732,-0.473022,-0.886169,0.548781,-0.670732,0.243902
1548436007973,-0.124329,-0.474854,-0.890564,0.548781,-0.670732,0.121951
1548436007973,-0.123962,-0.479309,-0.891418,0.548781,-0.731707,0.182927
1548436007973,-0.125854,-0.475708,-0.889282,0.304878,-0.670732,0.426829
1548436007973,-0.126892,-0.471497,-0.886414,0.000000,-0.609756,0.548781
1548436007995,-0.128113,-0.471802,-0.889465,0.121951,-0.670732,0.487805
1548436007995,-0.125854,-0.472046,-0.889648,0.548781,-0.853659,0.304878
1548436007995,-0.126099,-0.473328,-0.887939,0.792683,-0.792683,0.182927
1548436008022,-0.126404,-0.473755,-0.888855,1.158537,-0.731707,0.121951
1548436008024,-0.125244,-0.475525,-0.890381,1.341463,-0.792683,0.000000
1548436008034,-0.125916,-0.475708,-0.888367,1.341463,-1.036585,-0.121951
1548436008046,-0.127258,-0.475342,-0.888428,1.280488,-1.097561,0.060976
1548436008047,-0.126648,-0.478210,-0.887390,1.158537,-1.036585,0.060976
1548436008052,-0.125427,-0.472839,-0.887939,1.036585,-1.097561,0.000000
1548436008071,-0.125549,-0.473633,-0.887146,1.341463,-1.097561,0.121951
1548436008074,-0.125488,-0.473877,-0.887939,1.585366,-1.219512,0.182927
1548436008084,-0.125671,-0.476196,-0.889343,1.829268,-1.097561,0.304878
1548436008104,-0.125305,-0.474731,-0.887634,2.134146,-0.914634,0.609756
1548436008104,-0.125610,-0.475281,-0.886658,2.439024,-1.036585,0.609756
1548436008136,-0.123657,-0.477844,-0.887817,2.500000,-1.097561,0.487805
1548436008136,-0.126892,-0.484863,-0.887573,2.500000,-1.158537,0.609756
1548436008136,-0.127563,-0.481140,-0.886597,2.317073,-1.097561,0.548781
1548436008141,-0.126160,-0.474670,-0.884033,2.012195,-0.975610,0.609756
1548436008164,-0.126038,-0.477173,-0.885193,1.890244,-0.853659,0.670732
1548436008164,-0.125793,-0.479248,-0.887817,2.073171,-0.914634,0.670732
1548436008196,-0.127563,-0.477295,-0.887085,2.256098,-0.914634,0.914634
1548436008200,-0.128113,-0.477356,-0.886108,2.256098,-0.914634,0.975610
1548436008201,-0.128784,-0.482361,-0.886475,2.195122,-0.792683,1.036585
1548436008202,-0.127075,-0.479553,-0.883362,2.073171,-0.792683,0.914634
1548436008216,-0.127563,-0.478394,-0.887817,1.646341,-0.792683,0.670732
1548436008224,-0.128479,-0.478943,-0.886902,1.768293,-0.731707,0.853659
1548436008237,-0.130127,-0.477661,-0.888062,1.768293,-0.670732,0.914634
1548436008247,-0.127991,-0.478882,-0.883240,1.768293,-0.731707,0.792683
1548436008254,-0.128235,-0.481934,-0.885132,2.134146,-0.792683,0.609756
1548436008262,-0.125854,-0.481934,-0.884949,2.012195,-0.609756,0.548781
1548436008277,-0.126282,-0.483032,-0.885986,1.768293,-0.548781,0.487805
1548436008284,-0.125671,-0.479431,-0.886963,1.402439,-0.487805,0.487805
1548436008292,-0.126892,-0.478638,-0.885681,1.036585,-0.487805,0.670732
1548436008306,-0.126038,-0.481995,-0.884338,1.707317,-0.609756,0.853659
1548436008321,-0.127014,-0.481628,-0.884949,2.012195,-0.609756,0.853659
1548436008322,-0.126953,-0.481018,-0.886902,1.890244,-0.548781,0.792683
1548436008338,-0.127930,-0.486145,-0.884949,1.951220,-0.731707,0.609756
1548436008350,-0.125732,-0.485535,-0.883240,1.829268,-0.853659,0.487805
1548436008354,-0.127136,-0.483643,-0.887268,1.341463,-0.792683,0.243902
1548436008366,-0.126648,-0.480469,-0.885254,0.670732,-0.914634,0.000000
1548436008374,-0.128418,-0.480347,-0.885925,0.670732,-0.853659,0.000000
1548436008382,-0.127869,-0.483032,-0.885071,1.036585,-0.853659,0.060976
1548436008397,-0.127136,-0.485413,-0.885681,1.036585,-0.975610,0.243902
1548436008404,-0.127197,-0.484253,-0.883484,0.914634,-1.036585,0.243902
1548436008412,-0.126953,-0.481018,-0.885071,0.670732,-0.975610,0.182927
1548436008429,-0.127808,-0.482544,-0.888367,0.365854,-0.914634,0.304878
1548436008434,-0.128418,-0.480713,-0.885925,0.304878,-0.975610,0.365854
1548436008441,-0.128174,-0.478882,-0.885925,0.487805,-1.097561,0.243902
1548436008456,-0.126953,-0.482971,-0.883545,0.731707,-1.158537,0.060976
1548436008464,-0.128845,-0.484070,-0.886353,1.036585,-1.219512,0.000000
1548436008471,-0.129700,-0.485535,-0.883911,0.975610,-1.097561,0.060976
1548436008486,-0.128662,-0.486755,-0.881042,0.792683,-0.914634,0.121951
1548436008494,-0.128296,-0.483459,-0.883545,0.426829,-0.853659,0.304878
1548436008501,-0.127808,-0.479797,-0.883972,0.121951,-0.609756,0.548781
1548436008516,-0.126221,-0.480530,-0.882324,-0.060976,-0.548781,0.426829
1548436008524,-0.128296,-0.480774,-0.885193,0.243902,-0.731707,0.365854
1548436008531,-0.127686,-0.479797,-0.885193,0.243902,-0.853659,0.365854
1548436008546,-0.129822,-0.481140,-0.883423,0.548781,-0.914634,0.060976
1548436008554,-0.130188,-0.487122,-0.883423,0.609756,-1.036585,0.060976
1548436008562,-0.130798,-0.487549,-0.883057,0.365854,-0.975610,0.182927
1548436008576,-0.128601,-0.482422,-0.883972,-0.243902,-0.853659,0.121951
1548436008584,-0.129700,-0.480591,-0.884399,-0.670732,-0.670732,0.304878
1548436008591,-0.128052,-0.480652,-0.882568,-0.670732,-0.609756,0.121951
1548436008606,-0.126160,-0.478088,-0.885742,-0.548781,-0.609756,0.121951
1548436008614,-0.126038,-0.476013,-0.885315,-0.304878,-0.670732,0.060976
1548436008621,-0.129272,-0.482300,-0.884583,0.121951,-0.731707,-0.060976
1548436008636,-0.127869,-0.485779,-0.885376,0.670732,-0.792683,-0.060976
1548436008644,-0.127258,-0.484985,-0.882080,0.670732,-0.914634,0.000000
1548436008651,-0.126526,-0.484070,-0.883484,0.365854,-0.975610,0.000000
1548436008668,-0.128662,-0.483887,-0.883972,0.000000,-0.914634,0.121951
1548436008674,-0.128357,-0.481262,-0.885132,-0.365854,-0.853659,0.182927
1548436008682,-0.128357,-0.479492,-0.884521,-0.609756,-0.731707,0.304878
1548436008697,-0.128235,-0.481201,-0.886353,-0.426829,-0.670732,0.243902
1548436008704,-0.125305,-0.482361,-0.885498,-0.487805,-0.609756,0.121951
1548436008712,-0.126404,-0.480286,-0.887146,-0.426829,-0.670732,0.060976
1548436008727,-0.127380,-0.479004,-0.885681,-0.426829,-0.670732,0.060976
1548436008734,-0.128052,-0.480713,-0.884033,-0.365854,-0.670732,0.060976
1548436008741,-0.130127,-0.482483,-0.884705,-0.182927,-0.731707,0.182927
1548436008756,-0.128418,-0.481873,-0.885620,-0.121951,-0.731707,0.365854
1548436008764,-0.127197,-0.480225,-0.886841,-0.060976,-0.670732,0.365854
1548436008771,-0.127197,-0.480530,-0.885986,-0.243902,-0.670732,0.243902
1548436008786,-0.127258,-0.478821,-0.885681,-0.304878,-0.792683,0.365854
1548436008794,-0.127869,-0.480286,-0.888245,-0.426829,-0.731707,0.365854
1548436008809,-0.127319,-0.480286,-0.887268,-0.670732,-0.609756,0.426829
1548436008816,-0.128113,-0.477783,-0.886169,-0.792683,-0.548781,0.487805
1548436008824,-0.129578,-0.478149,-0.887085,-0.731707,-0.609756,0.487805
1548436008831,-0.127930,-0.481628,-0.887207,-0.487805,-0.548781,0.426829
1548436008846,-0.128418,-0.481934,-0.884888,-0.670732,-0.670732,0.365854
1548436008854,-0.129456,-0.482483,-0.886963,-1.036585,-0.731707,0.426829
1548436008861,-0.128906,-0.481262,-0.888733,-1.219512,-0.731707,0.426829
1548436008876,-0.130127,-0.477722,-0.885193,-1.707317,-0.548781,0.609756
1548436008884,-0.128540,-0.476685,-0.887085,-1.829268,-0.548781,0.670732
1548436008891,-0.126953,-0.474976,-0.887817,-2.012195,-0.609756,0.731707
1548436008906,-0.125549,-0.475769,-0.889526,-1.951220,-0.548781,0.670732
1548436008914,-0.125916,-0.476318,-0.888367,-1.768293,-0.609756,0.426829
1548436008922,-0.127136,-0.475952,-0.889099,-1.707317,-0.670732,0.182927
1548436008956,-0.126160,-0.475952,-0.888306,-1.646341,-0.792683,0.000000
1548436008957,-0.128540,-0.475769,-0.889709,-1.768293,-0.792683,-0.060976
1548436008957,-0.130066,-0.474121,-0.889465,-1.768293,-0.792683,-0.060976
1548436009008,-0.130188,-0.473450,-0.893127,-1.097561,-0.548781,-0.121951
1548436009008,-0.131836,-0.475403,-0.898865,0.243902,0.426829,-0.426829
1548436009009,-0.129822,-0.482544,-0.895691,2.195122,2.865854,-0.792683
1548436009011,-0.119019,-0.476746,-0.884705,3.719512,4.756098,-0.670732
1548436009011,-0.113281,-0.476074,-0.879456,3.231707,5.426829,-0.121951
1548436009012,-0.113403,-0.478943,-0.887451,2.195122,5.121951,-0.609756
1548436009031,-0.118164,-0.470154,-0.881470,0.975610,4.207317,-0.426829
1548436009034,-0.117615,-0.472595,-0.886414,-0.243902,2.743902,0.121951
1548436009041,-0.116577,-0.475769,-0.887390,-0.853659,1.585366,0.304878
1548436009057,-0.122192,-0.478027,-0.883240,-1.097561,0.304878,0.548781
1548436009066,-0.125610,-0.486938,-0.879456,-1.280488,-0.121951,0.304878
1548436009072,-0.130432,-0.491028,-0.884216,-1.524390,-0.182927,0.975610
1548436009087,-0.129517,-0.476746,-0.889221,-2.804878,0.121951,1.341463
1548436009096,-0.128601,-0.473694,-0.887451,-4.207317,0.792683,1.341463
1548436009112,-0.123169,-0.472229,-0.886658,-3.841464,1.585366,1.402439
1548436009122,-0.118408,-0.471497,-0.893860,-3.353659,1.951220,1.158537
1548436009124,-0.118347,-0.467224,-0.894043,-3.902439,1.158537,0.914634
1548436009132,-0.121460,-0.467896,-0.893616,-4.268293,0.304878,0.609756
1548436009146,-0.125366,-0.475830,-0.890259,-3.658537,-0.121951,0.487805
1548436009154,-0.123962,-0.476257,-0.885742,-2.865854,0.182927,0.426829
1548436009162,-0.126160,-0.468140,-0.886353,-3.414634,0.670732,0.304878
1548436009177,-0.124573,-0.468445,-0.889771,-4.451220,0.975610,0.243902
1548436009184,-0.127014,-0.470825,-0.889832,-4.451220,0.853659,-0.060976
1548436009191,-0.125000,-0.470215,-0.890015,-4.451220,1.158537,-0.121951
1548436009206,-0.122620,-0.465637,-0.896484,-4.634146,1.768293,-0.182927
1548436009214,-0.121765,-0.465759,-0.896179,-4.939024,1.707317,-0.426829
1548436009221,-0.120422,-0.461243,-0.896729,-4.939024,2.073171,-0.731707
1548436009237,-0.120056,-0.462646,-0.896362,-4.695122,2.073171,-0.731707
1548436009245,-0.116699,-0.462646,-0.895813,-4.512195,1.524390,-1.280488
1548436009251,-0.115173,-0.461609,-0.897339,-4.390244,1.036585,-1.646341
1548436009268,-0.112549,-0.462585,-0.897827,-4.024390,0.426829,-1.646341
1548436009274,-0.104614,-0.458801,-0.896606,-3.902439,-0.365854,-1.280488
1548436009284,-0.099182,-0.450623,-0.901611,-3.841464,-1.219512,-0.731707
1548436009296,-0.100342,-0.449097,-0.903259,-3.048780,-1.768293,-0.304878
1548436009304,-0.103455,-0.441467,-0.900146,-1.829268,-2.560976,0.060976
1548436009314,-0.104980,-0.442505,-0.898010,-0.121951,-3.353659,0.609756
1548436009332,-0.110962,-0.462280,-0.897644,2.134146,-4.268293,1.158537
1548436009335,-0.118469,-0.474487,-0.891479,3.963415,-5.243903,1.646341
1548436009342,-0.124695,-0.453674,-0.891174,3.963415,-5.670732,2.865854
1548436009356,-0.123901,-0.452148,-0.895569,2.865854,-5.060976,3.231707
1548436009365,-0.126587,-0.475342,-0.895569,3.170732,-4.329268,2.804878
1548436009379,-0.131592,-0.481628,-0.889343,3.963415,-3.719512,2.865854
1548436009410,-0.133667,-0.470581,-0.891785,3.109756,-2.560976,3.414634
1548436009411,-0.131165,-0.466064,-0.896362,1.402439,-1.402439,3.292683
1548436009411,-0.122986,-0.453491,-0.895630,0.060976,-0.426829,2.439024
1548436009465,-0.129578,-0.460022,-0.899597,-0.243902,-0.182927,2.317073
1548436009479,-0.126709,-0.462830,-0.898438,0.914634,-0.304878,1.280488
1548436009479,-0.125244,-0.461487,-0.895935,1.036585,-0.121951,0.182927
1548436009480,-0.128723,-0.470886,-0.893677,1.707317,0.243902,0.365854
1548436009480,-0.126526,-0.481628,-0.888977,1.585366,0.060976,-0.243902
1548436009480,-0.127014,-0.481079,-0.889526,0.000000,0.243902,-0.670732
1548436009480,-0.128662,-0.481018,-0.889587,-2.012195,0.853659,-0.243902
1548436009487,-0.120789,-0.471985,-0.892456,-4.146341,1.524390,-0.487805
1548436009491,-0.120605,-0.462524,-0.896362,-6.158537,2.134146,-0.609756
1548436009506,-0.119629,-0.457214,-0.899475,-7.073171,2.317073,0.000000
1548436009514,-0.114502,-0.451477,-0.902527,-7.317073,2.073171,-0.426829
1548436009521,-0.117615,-0.457336,-0.902222,-6.890244,1.707317,-0.548781
1548436009537,-0.121460,-0.452026,-0.902222,-5.914634,1.280488,0.060976
1548436009554,-0.119385,-0.440430,-0.903809,-5.487805,0.914634,0.304878
1548436009554,-0.116638,-0.441467,-0.895752,-4.573171,0.426829,0.000000
1548436009567,-0.110474,-0.449951,-0.900391,-2.804878,-0.304878,0.121951
1548436009585,-0.107300,-0.450012,-0.906128,-1.585366,-0.914634,0.548781
1548436009585,-0.110718,-0.448181,-0.899963,-0.670732,-1.280488,0.487805
1548436009597,-0.113159,-0.456970,-0.897217,0.243902,-1.829268,0.304878
1548436009604,-0.115601,-0.454468,-0.898499,0.792683,-2.134146,0.670732
1548436009612,-0.117676,-0.451965,-0.904724,0.914634,-1.890244,1.463415
1548436009634,-0.121155,-0.455811,-0.900452,0.853659,-1.646341,1.890244
1548436009634,-0.121826,-0.453247,-0.899048,1.036585,-1.646341,1.951220
1548436009643,-0.123108,-0.454529,-0.899841,1.280488,-1.646341,2.073171
1548436009659,-0.122437,-0.451965,-0.903992,1.219512,-2.073171,1.829268
1548436009667,-0.123291,-0.451538,-0.903992,1.219512,-2.500000,1.280488
1548436009690,-0.126221,-0.453369,-0.900513,1.524390,-2.804878,0.548781
1548436009690,-0.125488,-0.452393,-0.897278,1.768293,-2.865854,-0.121951
1548436009695,-0.124817,-0.456787,-0.901489,1.768293,-2.439024,-0.853659
1548436009703,-0.123169,-0.463440,-0.898926,2.195122,-1.707317,-1.097561
1548436009730,-0.122009,-0.466064,-0.899719,2.256098,-0.853659,-0.914634
1548436009730,-0.122375,-0.460022,-0.899780,1.585366,-0.426829,-0.792683
1548436009740,-0.120667,-0.448853,-0.897888,0.426829,-0.609756,-0.670732
1548436009747,-0.119019,-0.450317,-0.901428,-0.121951,-0.975610,-0.792683
1548436009771,-0.124817,-0.455139,-0.901794,0.000000,-1.585366,-1.036585
1548436009771,-0.127625,-0.459229,-0.897888,-0.060976,-1.890244,-1.280488
1548436009780,-0.127441,-0.464294,-0.892883,-0.792683,-1.768293,-1.402439
1548436009784,-0.129883,-0.476257,-0.890442,-1.341463,-1.341463,-1.219512
1548436009791,-0.128113,-0.476013,-0.893005,-2.317073,-0.731707,-1.097561
1548436009806,-0.122864,-0.460083,-0.897156,-4.390244,-0.060976,-0.914634
1548436009814,-0.118713,-0.452026,-0.902100,-6.158537,0.121951,-0.914634
1548436009822,-0.119202,-0.448364,-0.901306,-6.768293,-0.365854,-0.914634
1548436009836,-0.122986,-0.455811,-0.905334,-6.646342,-0.670732,-1.036585
1548436009845,-0.124695,-0.448975,-0.908508,-5.975610,-1.158537,-1.219512
1548436009851,-0.126038,-0.440430,-0.899780,-5.792683,-1.585366,-1.768293
1548436009866,-0.123474,-0.450806,-0.895508,-6.097561,-1.524390,-1.768293
1548436009874,-0.120850,-0.457336,-0.893188,-6.158537,-1.768293,-1.402439
1548436009881,-0.114624,-0.454041,-0.896057,-6.341464,-1.463415,-1.219512
1548436009903,-0.111145,-0.454529,-0.900024,-6.707317,-1.341463,-0.731707
1548436009904,-0.110291,-0.445374,-0.900024,-6.829268,-1.158537,-0.426829
1548436009911,-0.113953,-0.438293,-0.906189,-6.585366,-0.914634,0.731707
1548436009927,-0.116882,-0.427612,-0.913757,-5.853659,-1.341463,1.829268
1548436009934,-0.118835,-0.424805,-0.911804,-5.000000,-1.829268,2.073171
1548436009944,-0.127197,-0.425110,-0.910706,-3.963415,-1.707317,1.463415
1548436009964,-0.131348,-0.423645,-0.908386,-2.378049,-1.219512,0.548781
1548436009965,-0.130981,-0.442261,-0.904541,-0.365854,-0.914634,0.060976
1548436009971,-0.128235,-0.446350,-0.904724,0.853659,-0.914634,-0.304878
1548436009987,-0.127380,-0.441162,-0.905212,0.609756,-0.609756,-0.060976
1548436009998,-0.128418,-0.444397,-0.904724,0.243902,-0.365854,0.060976
1548436010007,-0.123413,-0.445679,-0.906006,0.243902,-0.426829,-0.121951
1548436010017,-0.122681,-0.443115,-0.904968,0.000000,-0.182927,0.182927
1548436010024,-0.122131,-0.443665,-0.905640,-0.243902,-0.304878,0.121951
1548436010039,-0.121399,-0.442627,-0.901855,-0.609756,-0.365854,-0.182927
1548436010046,-0.120117,-0.442444,-0.903442,-1.097561,-0.182927,-0.487805
1548436010054,-0.121582,-0.441284,-0.906006,-1.341463,-0.121951,-0.670732
1548436010063,-0.120911,-0.434875,-0.911560,-1.707317,0.060976,-0.975610
1548436010077,-0.121704,-0.433167,-0.910278,-1.829268,-0.121951,-0.975610
1548436010084,-0.123474,-0.440613,-0.906921,-1.402439,-0.365854,-1.280488
1548436010091,-0.122986,-0.439575,-0.907959,-1.097561,-0.609756,-1.158537
1548436010106,-0.122864,-0.440552,-0.903015,-1.707317,-0.792683,-1.097561
1548436010114,-0.122742,-0.445740,-0.900574,-2.317073,-0.853659,-1.097561
1548436010121,-0.121826,-0.450562,-0.904297,-2.621951,-0.609756,-0.426829
1548436010136,-0.122620,-0.453369,-0.903564,-3.231707,-0.548781,-0.060976
1548436010145,-0.123291,-0.441895,-0.906616,-4.695122,-0.365854,0.000000
1548436010151,-0.125244,-0.437317,-0.907532,-6.036585,-0.060976,0.182927
1548436010166,-0.124390,-0.434265,-0.910461,-6.463415,0.121951,-0.121951
1548436010174,-0.124207,-0.434021,-0.916382,-6.768293,0.365854,-0.609756
1548436010181,-0.124084,-0.421021,-0.914307,-6.890244,0.365854,-0.914634
1548436010199,-0.123779,-0.418335,-0.909363,-6.829268,0.243902,-1.280488
1548436010204,-0.123535,-0.426208,-0.907532,-5.670732,0.000000,-1.951220
1548436010213,-0.126831,-0.440674,-0.905579,-4.268293,-0.121951,-2.378049
1548436010226,-0.127075,-0.446045,-0.910339,-3.475610,0.731707,-2.500000
1548436010234,-0.124268,-0.442810,-0.915405,-3.780488,1.707317,-1.585366
1548436010241,-0.110779,-0.438354,-0.919678,-4.939024,3.963415,-1.341463
1548436010256,-0.103271,-0.416626,-0.915955,-5.182927,5.304878,-0.853659
1548436010264,-0.097595,-0.413696,-0.915100,-5.670732,4.817073,-0.121951
1548436010271,-0.090759,-0.407288,-0.917053,-5.914634,4.512195,-0.426829
1548436010286,-0.094971,-0.395081,-0.917297,-4.085366,4.390244,-0.243902
1548436010294,-0.107727,-0.414001,-0.910400,-0.731707,3.170732,-0.182927
1548436010308,-0.120972,-0.432678,-0.900146,1.463415,1.707317,-0.548781
1548436010316,-0.117676,-0.440674,-0.904785,0.731707,1.951220,-0.060976
1548436010324,-0.112000,-0.437988,-0.914246,-0.182927,3.841464,0.365854
1548436010331,-0.111877,-0.418640,-0.919495,-0.548781,3.719512,1.097561
1548436010346,-0.108582,-0.401733,-0.921997,-1.585366,3.658537,1.646341
1548436010354,-0.107971,-0.406067,-0.923767,-0.365854,3.475610,2.073171
1548436010367,-0.109253,-0.412537,-0.920837,1.951220,2.195122,1.463415
1548436010383,-0.115540,-0.415344,-0.918884,3.231707,0.487805,1.036585
1548436010384,-0.120300,-0.432800,-0.908264,4.451220,-0.182927,0.914634
1548436010391,-0.105652,-0.444092,-0.915649,5.304878,0.792683,0.304878
1548436010407,-0.099365,-0.438171,-0.947815,4.573171,1.524390,0.182927
1548436010414,-0.102417,-0.443237,-0.948669,2.743902,1.585366,0.792683
1548436010421,-0.111389,-0.437073,-0.914185,2.073171,1.280488,2.378049
1548436010437,-0.088318,-0.437683,-0.928467,1.951220,0.182927,4.390244
1548436010447,-0.119690,-0.428223,-0.933899,1.036585,-3.597561,4.146341
1548436010451,-0.119812,-0.371094,-0.890747,-1.219512,-6.829268,3.597561
1548436010469,-0.096863,-0.413391,-0.881836,-7.682927,-3.719512,6.158537
1548436010474,-0.099365,-0.475708,-0.901184,-6.524390,-4.573171,4.085366
1548436010481,-0.124329,-0.497131,-0.903503,-4.207317,-5.914634,1.463415
1548436010497,-0.129700,-0.458252,-0.889709,-10.487805,-2.073171,3.048780
1548436010506,-0.112427,-0.395386,-0.886353,-15.853659,1.707317,6.219512
1548436010514,-0.105530,-0.386108,-0.905640,-13.902439,3.292683,6.341464
1548436010537,-0.107971,-0.389038,-0.937134,-9.695122,3.231707,3.902439
1548436010537,-0.111206,-0.379028,-0.937439,-7.804878,3.170732,2.743902
1548436010549,-0.108032,-0.370911,-0.915405,-5.548780,2.378049,3.170732
1548436010557,-0.102173,-0.387512,-0.922546,-1.768293,1.890244,2.682927
1548436010564,-0.108093,-0.392395,-0.913086,1.036585,0.060976,1.402439
1548436010571,-0.098267,-0.424316,-0.938416,3.170732,0.060976,0.914634
1548436010597,-0.104797,-0.396545,-0.957520,4.695122,-0.243902,-0.548781
1548436010597,-0.128662,-0.430725,-0.960754,5.609756,0.121951,-3.048780
1548436010601,-0.138794,-0.467834,-0.942566,5.060976,1.646341,-3.353659
1548436010617,-0.116699,-0.445923,-0.898071,7.317073,1.158537,-1.890244
1548436010625,-0.118286,-0.451294,-0.917480,8.353659,0.853659,0.121951
1548436010631,-0.153320,-0.472961,-0.905884,4.451220,-3.353659,3.109756
1548436010647,-0.095215,-0.409912,-0.896179,-3.597561,0.121951,4.573171
1548436010654,-0.075806,-0.414978,-0.881592,-11.158537,-0.487805,4.695122
1548436010662,-0.108948,-0.384888,-0.909241,-14.634147,-1.524390,2.195122
1548436010676,-0.123230,-0.405518,-0.931030,-14.085366,0.670732,3.292683
1548436010684,-0.106812,-0.421875,-0.918213,-10.000000,1.463415,3.048780
1548436010691,-0.108093,-0.425110,-0.909851,-7.073171,2.865854,2.378049
1548436010706,-0.112366,-0.384338,-0.907043,-8.841464,5.060976,0.731707
1548436010715,-0.095825,-0.329712,-0.923950,-11.707317,6.463415,0.182927
1548436010721,-0.089661,-0.361633,-0.937683,-6.585366,5.182927,-0.792683
1548436010737,-0.110901,-0.354919,-0.951294,2.621951,-0.792683,-3.536585
1548436010747,-0.113525,-0.384949,-0.962036,1.829268,-2.500000,-5.182927
1548436010751,-0.098877,-0.421082,-0.888550,-2.195122,-2.987805,-2.804878
1548436010766,-0.111328,-0.406555,-0.877014,-0.121951,-5.975610,0.121951
1548436010774,-0.122070,-0.450928,-0.903137,0.426829,-2.439024,-1.463415
1548436010782,-0.103271,-0.443665,-0.910522,1.829268,-0.060976,-0.365854
1548436010797,-0.104614,-0.393982,-0.918579,1.585366,-0.548781,2.134146
1548436010804,-0.094604,-0.378540,-0.925110,-3.170732,2.743902,1.829268
1548436010812,-0.104858,-0.397034,-0.928589,-3.597561,3.414634,1.158537
1548436010826,-0.110718,-0.398071,-0.924622,-0.792683,1.524390,1.280488
1548436010841,-0.109497,-0.389587,-0.944336,0.182927,0.975610,0.670732
1548436010842,-0.111694,-0.381226,-0.936279,0.548781,-0.243902,-0.243902
1548436010856,-0.106445,-0.385498,-0.928162,1.585366,-0.060976,0.000000
1548436010864,-0.107056,-0.373840,-0.947266,4.268293,-1.402439,0.426829
1548436010871,-0.105652,-0.401184,-0.943481,7.987805,-2.500000,-1.829268
1548436010887,-0.100220,-0.408813,-0.933899,10.365854,-4.207317,-2.682927
1548436010894,-0.102844,-0.408020,-0.930359,10.487805,-5.304878,-2.743902
1548436010901,-0.108276,-0.425354,-0.926636,9.024390,-6.097561,-2.926829
1548436010916,-0.111328,-0.429688,-0.919800,7.378049,-6.768293,-2.560976
1548436010924,-0.114624,-0.427856,-0.914795,5.609756,-6.280488,-1.707317
1548436010931,-0.116638,-0.429626,-0.912170,4.085366,-5.487805,-1.402439
1548436010947,-0.114014,-0.426025,-0.917908,3.109756,-4.573171,-1.219512
1548436010954,-0.115173,-0.420715,-0.921631,2.682927,-3.658537,-0.731707
1548436010961,-0.114441,-0.408264,-0.922058,2.256098,-3.048780,-0.243902
1548436010976,-0.112366,-0.408569,-0.921753,1.707317,-2.621951,0.121951
1548436010984,-0.111023,-0.405884,-0.922791,1.951220,-2.560976,0.060976
1548436010999,-0.110413,-0.402954,-0.923889,2.134146,-2.500000,0.000000
1548436011006,-0.110046,-0.407715,-0.917908,2.621951,-3.048780,-0.731707
1548436011021,-0.113708,-0.417236,-0.915527,2.865854,-3.414634,-1.158537
1548436011022,-0.115417,-0.425476,-0.913818,2.926829,-3.475610,-1.402439
1548436011036,-0.113770,-0.423218,-0.914185,2.256098,-3.292683,-1.463415
1548436011044,-0.118103,-0.420898,-0.914734,1.036585,-3.170732,-1.463415
1548436011051,-0.115112,-0.416016,-0.916565,0.426829,-2.621951,-1.036585
1548436011066,-0.115967,-0.418579,-0.917114,0.304878,-2.134146,-0.426829
1548436011074,-0.118469,-0.418945,-0.916260,0.670732,-1.707317,-0.060976
1548436011081,-0.115967,-0.412964,-0.922241,0.487805,-1.097561,0.426829
1548436011096,-0.116150,-0.409790,-0.921204,0.365854,-0.975610,0.426829
1548436011104,-0.117737,-0.409729,-0.917480,0.487805,-1.219512,-0.060976
1548436011111,-0.116577,-0.409729,-0.918884,0.792683,-1.341463,-0.243902
1548436011126,-0.115662,-0.409180,-0.920410,1.280488,-1.585366,-0.548781
1548436011134,-0.112549,-0.414062,-0.918762,1.707317,-1.829268,-0.853659
1548436011141,-0.115784,-0.417053,-0.917786,2.012195,-1.951220,-0.792683
1548436011157,-0.116150,-0.414551,-0.917358,2.012195,-1.890244,-0.670732
1548436011164,-0.116272,-0.418762,-0.917908,2.012195,-1.951220,-0.731707
1548436011179,-0.118713,-0.422668,-0.913635,2.134146,-1.829268,-0.792683
1548436011186,-0.116882,-0.425171,-0.918396,2.195122,-1.036585,-0.365854
1548436011194,-0.114807,-0.421875,-0.920654,1.768293,-0.792683,-0.487805
1548436011201,-0.114868,-0.416992,-0.918030,0.548781,-1.036585,-0.853659
1548436011216,-0.119873,-0.420898,-0.918701,-0.182927,-1.341463,-0.609756
1548436011224,-0.118042,-0.421448,-0.917847,-0.121951,-1.402439,-0.487805
1548436011232,-0.112793,-0.412415,-0.917847,-0.487805,-1.219512,-0.426829
1548436011246,-0.112610,-0.411194,-0.919739,-0.853659,-1.219512,-0.731707
1548436011254,-0.114014,-0.412048,-0.920166,-0.426829,-1.341463,-1.097561
1548436011269,-0.112610,-0.411621,-0.920715,0.365854,-1.585366,-1.158537
1548436011276,-0.113281,-0.414551,-0.921448,1.097561,-1.890244,-1.158537
1548436011284,-0.115479,-0.415405,-0.919373,1.524390,-2.134146,-1.097561
1548436011291,-0.118652,-0.414551,-0.917297,1.463415,-2.378049,-1.097561
1548436011306,-0.118896,-0.419861,-0.914978,1.646341,-2.195122,-0.792683
1548436011314,-0.117859,-0.419250,-0.919067,1.951220,-1.829268,-0.609756
1548436011321,-0.120667,-0.415894,-0.917664,1.585366,-1.768293,-0.670732
1548436011336,-0.118896,-0.418213,-0.913147,1.524390,-1.524390,-0.792683
1548436011344,-0.118286,-0.424500,-0.915283,1.829268,-1.341463,-0.853659
1548436011351,-0.119141,-0.422852,-0.918457,1.646341,-1.524390,-1.097561
1548436011366,-0.118530,-0.418091,-0.914978,0.548781,-1.463415,-0.975610
1548436011374,-0.117432,-0.418945,-0.914185,0.243902,-1.097561,-0.731707
1548436011381,-0.115234,-0.419189,-0.919495,0.670732,-1.036585,-0.731707
1548436011396,-0.117188,-0.414490,-0.917419,0.609756,-0.975610,-0.731707
1548436011404,-0.114258,-0.414612,-0.914978,0.670732,-0.853659,-0.487805
1548436011411,-0.114929,-0.417908,-0.917786,1.097561,-0.853659,-0.487805
1548436011426,-0.116638,-0.420898,-0.921265,1.402439,-1.158537,-0.670732
1548436011434,-0.116394,-0.419373,-0.918152,1.402439,-1.402439,-0.670732
1548436011441,-0.117676,-0.418274,-0.915344,1.402439,-1.097561,-0.426829
1548436011456,-0.117615,-0.416382,-0.915222,1.463415,-1.036585,-0.243902
1548436011464,-0.117920,-0.418762,-0.914917,1.463415,-1.219512,-0.487805
1548436011471,-0.117615,-0.420593,-0.915833,1.707317,-1.280488,-0.243902
1548436011486,-0.115845,-0.418640,-0.913513,1.829268,-1.097561,-0.121951
1548436011494,-0.115479,-0.417358,-0.918945,1.829268,-0.731707,0.000000
1548436011501,-0.117310,-0.421387,-0.917358,2.012195,-0.792683,0.182927
1548436011516,-0.118408,-0.418091,-0.920593,2.378049,-1.036585,0.304878
1548436011524,-0.116699,-0.417725,-0.914001,2.439024,-1.158537,0.304878
1548436011531,-0.115540,-0.421448,-0.915527,2.682927,-1.280488,0.304878
1548436011546,-0.116089,-0.425720,-0.917542,2.987805,-1.341463,0.243902
1548436011554,-0.118347,-0.420471,-0.914978,2.987805,-1.402439,0.426829
1548436011561,-0.115356,-0.419312,-0.916504,2.743902,-1.097561,0.609756
1548436011576,-0.115540,-0.422729,-0.915955,2.926829,-1.158537,0.731707
1548436011584,-0.120056,-0.424500,-0.915527,3.292683,-1.463415,0.731707
1548436011592,-0.117554,-0.421021,-0.916748,3.231707,-1.158537,1.036585
1548436011606,-0.117249,-0.424744,-0.917603,3.109756,-1.036585,1.158537
1548436011614,-0.117126,-0.424744,-0.914612,3.292683,-1.097561,0.853659
1548436011621,-0.119080,-0.425598,-0.912354,3.170732,-1.036585,1.036585
1548436011636,-0.120972,-0.427307,-0.913025,3.048780,-1.036585,1.158537
1548436011644,-0.119690,-0.427063,-0.914062,2.804878,-0.975610,1.036585
1548436011651,-0.118774,-0.428833,-0.915771,2.621951,-0.853659,1.158537
1548436011666,-0.117981,-0.426514,-0.915100,2.621951,-0.914634,1.097561
1548436011676,-0.115601,-0.426880,-0.911743,2.378049,-0.853659,1.097561
1548436011682,-0.119080,-0.427185,-0.910400,2.317073,-0.975610,1.036585
1548436011699,-0.119995,-0.427795,-0.910950,2.134146,-1.036585,0.914634
1548436011704,-0.121399,-0.431152,-0.911987,1.951220,-0.914634,0.792683
1548436011712,-0.120483,-0.431335,-0.912476,1.768293,-1.036585,0.670732
1548436011726,-0.119324,-0.428955,-0.910767,1.402439,-1.219512,0.365854
1548436011734,-0.120117,-0.429321,-0.913269,1.036585,-1.097561,0.243902
1548436011741,-0.121155,-0.430664,-0.910583,0.792683,-0.975610,0.304878
1548436011756,-0.117981,-0.427551,-0.912048,0.487805,-0.792683,0.426829
1548436011764,-0.118347,-0.426575,-0.911621,0.304878,-0.731707,0.243902
1548436011771,-0.119019,-0.428345,-0.911438,0.060976,-0.914634,0.060976
1548436011786,-0.117126,-0.428589,-0.913940,-0.060976,-0.731707,0.121951
1548436011794,-0.121094,-0.426147,-0.910950,-0.182927,-0.853659,0.121951
1548436011809,-0.119751,-0.424255,-0.912415,-0.365854,-0.914634,0.000000
1548436011817,-0.117859,-0.428589,-0.911560,-0.060976,-0.914634,0.182927
1548436011824,-0.116333,-0.427612,-0.912354,-0.060976,-0.914634,0.121951
1548436011832,-0.118103,-0.424622,-0.912537,-0.426829,-0.670732,0.060976
1548436011847,-0.117798,-0.421570,-0.913025,-0.365854,-0.731707,0.243902
1548436011855,-0.119812,-0.427368,-0.912537,0.121951,-0.914634,0.000000
1548436011862,-0.119202,-0.426086,-0.912354,0.487805,-1.036585,-0.060976
1548436011884,-0.117432,-0.426208,-0.913452,0.365854,-1.036585,0.121951
1548436011885,-0.119812,-0.430908,-0.911987,0.487805,-1.097561,0.060976
1548436011892,-0.121338,-0.432800,-0.912231,0.426829,-1.219512,-0.121951
1548436011907,-0.121460,-0.424438,-0.914062,-0.121951,-0.975610,0.060976
1548436011914,-0.118530,-0.423706,-0.915527,-0.609756,-0.792683,0.182927
1548436011922,-0.120483,-0.428284,-0.912964,-0.548781,-0.792683,0.000000
1548436011937,-0.121033,-0.425354,-0.914368,-0.243902,-0.914634,0.060976
1548436011945,-0.120728,-0.424500,-0.911499,-0.243902,-0.975610,0.060976
1548436011952,-0.120850,-0.424927,-0.913757,-0.243902,-0.975610,-0.121951
1548436011967,-0.118225,-0.426208,-0.912964,0.000000,-0.731707,-0.060976
1548436011982,-0.120544,-0.427246,-0.912354,0.243902,-0.731707,0.060976
1548436011982,-0.119202,-0.424805,-0.910217,0.304878,-0.914634,0.060976
1548436011997,-0.118103,-0.426208,-0.911926,0.365854,-0.853659,0.000000
1548436012004,-0.120239,-0.428162,-0.912964,0.365854,-0.853659,0.060976
1548436012012,-0.120789,-0.427063,-0.914062,0.243902,-0.792683,0.487805
1548436012027,-0.121033,-0.426880,-0.914124,0.243902,-0.792683,0.609756
1548436012034,-0.116394,-0.425171,-0.914185,0.243902,-0.731707,0.365854
1548436012042,-0.118896,-0.424438,-0.913635,0.243902,-0.792683,0.304878
1548436012057,-0.118713,-0.423157,-0.915039,0.487805,-0.853659,0.121951
1548436012064,-0.119568,-0.424438,-0.914368,0.731707,-1.036585,-0.060976
1548436012072,-0.119446,-0.431274,-0.911255,1.158537,-1.341463,-0.243902
1548436012087,-0.121460,-0.429626,-0.910767,1.158537,-1.280488,-0.060976
1548436012095,-0.119690,-0.425598,-0.911926,0.487805,-1.036585,0.121951
1548436012102,-0.119263,-0.425415,-0.913391,0.060976,-0.792683,0.000000
1548436012117,-0.120056,-0.424988,-0.913940,-0.060976,-0.670732,0.243902
1548436012124,-0.118469,-0.421509,-0.918579,0.060976,-0.548781,0.426829
1548436012132,-0.116943,-0.420166,-0.916687,0.426829,-0.853659,0.243902
1548436012147,-0.122131,-0.428101,-0.913635,0.975610,-1.036585,0.000000
1548436012162,-0.121826,-0.432373,-0.912109,1.402439,-1.280488,0.060976
1548436012162,-0.117920,-0.428284,-0.912048,0.914634,-1.097561,0.121951
1548436012177,-0.119751,-0.428772,-0.913269,0.609756,-1.036585,0.000000
1548436012185,-0.122437,-0.431763,-0.910645,0.548781,-1.036585,-0.060976
1548436012192,-0.121338,-0.426880,-0.911621,0.548781,-1.097561,0.121951
1548436012207,-0.120178,-0.422363,-0.914368,0.243902,-0.975610,0.121951
1548436012214,-0.118896,-0.426941,-0.915466,0.426829,-0.914634,0.060976
1548436012222,-0.120667,-0.430969,-0.912659,1.036585,-1.158537,0.182927
1548436012239,-0.119629,-0.427185,-0.911377,1.219512,-1.097561,0.365854
1548436012245,-0.119141,-0.425781,-0.912415,0.853659,-0.914634,0.426829
1548436012254,-0.121033,-0.430420,-0.911804,0.975610,-0.975610,0.182927
1548436012267,-0.122009,-0.432312,-0.912476,1.280488,-1.036585,0.182927
1548436012274,-0.121460,-0.427734,-0.912292,0.975610,-1.036585,0.304878
1548436012283,-0.120667,-0.427795,-0.912048,0.487805,-0.792683,0.121951
1548436012298,-0.120728,-0.434021,-0.910706,0.670732,-0.914634,0.060976
1548436012304,-0.122009,-0.433533,-0.912964,0.731707,-1.036585,0.182927
1548436012312,-0.119080,-0.427063,-0.912598,0.304878,-0.853659,0.365854
1548436012327,-0.117798,-0.424866,-0.911926,0.243902,-0.609756,0.304878
1548436012334,-0.122314,-0.426758,-0.911682,0.365854,-0.731707,0.243902
1548436012342,-0.121948,-0.428345,-0.912476,0.548781,-0.914634,0.182927
1548436012357,-0.121094,-0.430908,-0.914856,0.426829,-0.975610,0.060976
1548436012364,-0.120300,-0.429626,-0.910034,0.426829,-0.853659,0.060976
1548436012372,-0.118835,-0.426086,-0.912598,0.304878,-0.731707,-0.060976
1548436012388,-0.119263,-0.428345,-0.915222,0.121951,-0.670732,-0.060976
1548436012394,-0.117920,-0.431458,-0.915771,0.243902,-0.792683,-0.121951
1548436012402,-0.119141,-0.427673,-0.915222,0.182927,-0.853659,0.000000
1548436012417,-0.121216,-0.426025,-0.911316,0.304878,-0.731707,0.121951
1548436012425,-0.120300,-0.429199,-0.910095,0.304878,-0.853659,0.121951
1548436012432,-0.120483,-0.428955,-0.911987,0.548781,-0.975610,-0.060976
1548436012447,-0.117676,-0.427124,-0.915222,0.548781,-0.731707,0.182927
1548436012455,-0.117554,-0.427063,-0.915894,0.426829,-0.670732,0.243902
1548436012465,-0.119751,-0.426819,-0.914124,0.304878,-0.609756,0.060976
1548436012477,-0.120789,-0.424561,-0.913940,0.426829,-0.792683,0.182927
1548436012484,-0.121643,-0.423279,-0.918640,0.731707,-0.792683,0.243902
1548436012492,-0.121216,-0.430176,-0.910461,1.036585,-0.914634,0.121951
1548436012508,-0.118958,-0.431458,-0.909546,1.280488,-1.097561,-0.060976
1548436012514,-0.120850,-0.433838,-0.912048,1.341463,-0.914634,0.000000
1548436012522,-0.119019,-0.429138,-0.910400,0.853659,-0.853659,0.060976
1548436012537,-0.121338,-0.431519,-0.911072,0.304878,-0.853659,0.182927
1548436012544,-0.122375,-0.429382,-0.915955,0.365854,-0.731707,0.487805
1548436012552,-0.121765,-0.424622,-0.913940,0.182927,-0.548781,0.426829
1548436012567,-0.119934,-0.426270,-0.912048,-0.060976,-0.548781,0.426829
1548436012574,-0.121521,-0.429626,-0.915344,0.304878,-0.609756,0.426829
1548436012581,-0.120728,-0.428833,-0.916809,0.670732,-0.670732,0.304878
1548436012597,-0.119751,-0.427917,-0.914917,0.670732,-0.609756,0.182927
1548436012604,-0.117615,-0.427979,-0.915344,0.487805,-0.731707,-0.060976
1548436012616,-0.119385,-0.425903,-0.912720,0.609756,-0.731707,-0.060976
1548436012627,-0.122009,-0.426270,-0.912598,0.792683,-0.853659,0.000000
1548436012634,-0.121338,-0.431274,-0.913025,0.975610,-0.914634,-0.121951
1548436012642,-0.120300,-0.429871,-0.910034,1.097561,-0.975610,0.121951
1548436012656,-0.119934,-0.428650,-0.912048,0.975610,-0.853659,0.365854
1548436012664,-0.120300,-0.429626,-0.911438,0.975610,-0.731707,0.365854
1548436012671,-0.119568,-0.432922,-0.914001,0.975610,-0.548781,0.365854
1548436012686,-0.120361,-0.430237,-0.916626,0.914634,-0.609756,0.304878
1548436012694,-0.121582,-0.424194,-0.913879,0.548781,-0.548781,0.182927
1548436012701,-0.122742,-0.426453,-0.909485,0.548781,-0.609756,0.121951
1548436012719,-0.122009,-0.429626,-0.910950,0.975610,-0.731707,0.060976
1548436012724,-0.120667,-0.434998,-0.915771,1.402439,-0.853659,-0.060976
1548436012732,-0.121094,-0.430847,-0.913940,1.219512,-0.914634,-0.121951
1548436012758,-0.121948,-0.429260,-0.908813,0.731707,-0.731707,-0.060976
1548436012758,-0.121094,-0.428772,-0.911804,0.609756,-0.548781,0.121951
1548436012762,-0.120972,-0.432007,-0.919617,0.609756,-0.609756,0.182927
1548436012777,-0.120422,-0.426819,-0.917053,0.792683,-0.670732,0.182927
1548436012785,-0.119995,-0.429077,-0.910156,0.914634,-0.670732,0.243902
1548436012792,-0.119324,-0.433350,-0.906067,1.036585,-0.914634,0.000000
1548436012807,-0.120422,-0.436768,-0.913269,0.914634,-1.036585,0.060976
1548436012814,-0.120239,-0.437561,-0.914246,0.426829,-0.853659,0.121951
1548436012822,-0.120911,-0.427734,-0.912231,-0.121951,-0.731707,0.304878
1548436012837,-0.121582,-0.423523,-0.906982,-0.670732,-0.609756,0.365854
1548436012856,-0.123657,-0.430298,-0.913574,-0.121951,-0.548781,0.365854
1548436012856,-0.122681,-0.431091,-0.915222,0.243902,-0.731707,0.243902
1548436012867,-0.120972,-0.428284,-0.912842,0.365854,-0.731707,0.000000
1548436012874,-0.120056,-0.432068,-0.909485,0.548781,-0.792683,0.000000
1548436012883,-0.119873,-0.428894,-0.911560,0.609756,-0.792683,0.060976
1548436012897,-0.121582,-0.426636,-0.910828,0.426829,-0.731707,0.182927
1548436012907,-0.122314,-0.429932,-0.918335,0.426829,-0.548781,0.365854
1548436012912,-0.119873,-0.431396,-0.914612,0.792683,-0.731707,0.548781
1548436012927,-0.120483,-0.428467,-0.914185,1.280488,-0.914634,0.609756
1548436012934,-0.120544,-0.431702,-0.907349,1.280488,-0.914634,0.426829
1548436012942,-0.120483,-0.430054,-0.909485,1.219512,-0.853659,0.182927
1548436012957,-0.120850,-0.440186,-0.912964,0.792683,-1.036585,0.000000
1548436012964,-0.121826,-0.433716,-0.912415,0.426829,-1.036585,0.060976
1548436012972,-0.125000,-0.427795,-0.906982,-0.121951,-0.853659,0.121951
1548436012986,-0.123962,-0.427917,-0.907288,-0.304878,-0.731707,0.243902
1548436012994,-0.122986,-0.429688,-0.915222,-0.060976,-0.731707,0.243902
1548436013001,-0.118652,-0.426880,-0.913086,0.304878,-0.609756,0.182927
1548436013017,-0.116150,-0.428101,-0.911926,0.365854,-0.426829,0.182927
1548436013024,-0.117981,-0.426147,-0.913391,0.731707,-0.548781,0.182927
1548436013032,-0.121094,-0.429199,-0.910828,1.280488,-0.670732,0.121951
1548436013048,-0.121948,-0.428162,-0.906555,1.524390,-0.975610,0.365854
1548436013054,-0.121460,-0.437927,-0.913391,1.524390,-0.914634,0.365854
1548436013062,-0.120850,-0.439575,-0.909119,1.768293,-1.158537,0.365854
1548436013077,-0.118286,-0.434143,-0.909668,1.402439,-0.975610,0.609756
1548436013084,-0.116638,-0.432739,-0.906189,0.426829,-0.792683,0.426829
1548436013092,-0.117859,-0.430054,-0.915161,0.000000,-0.609756,0.365854
1548436013107,-0.120117,-0.430664,-0.912964,-0.182927,-0.670732,0.243902
1548436013114,-0.120300,-0.426331,-0.911438,-0.060976,-0.914634,0.182927
1548436013122,-0.125366,-0.430359,-0.907104,0.060976,-1.097561,0.000000
1548436013137,-0.122070,-0.433960,-0.910217,0.609756,-1.097561,0.000000
1548436013151,-0.119568,-0.433777,-0.912903,0.548781,-0.914634,0.182927
1548436013152,-0.120667,-0.425049,-0.916260,0.426829,-0.670732,0.121951
1548436013167,-0.119324,-0.426514,-0.913391,0.426829,-0.548781,0.121951
1548436013175,-0.119995,-0.429871,-0.915710,0.914634,-0.487805,0.365854
1548436013182,-0.122925,-0.433472,-0.918030,1.341463,-0.487805,0.548781
1548436013197,-0.123230,-0.428772,-0.906555,1.768293,-0.853659,0.609756
1548436013204,-0.120789,-0.436584,-0.911377,1.707317,-0.914634,0.487805
1548436013212,-0.117798,-0.439392,-0.910522,1.768293,-1.158537,0.243902
1548436013227,-0.116516,-0.432190,-0.910645,1.341463,-1.158537,0.426829
1548436013238,-0.118347,-0.431274,-0.906677,0.609756,-1.158537,0.304878
1548436013243,-0.117676,-0.437683,-0.914612,0.609756,-1.097561,0.304878
1548436013257,-0.119019,-0.436218,-0.911865,0.487805,-1.097561,0.365854
1548436013264,-0.121399,-0.428284,-0.909973,0.304878,-0.853659,0.487805
1548436013272,-0.122864,-0.434143,-0.905884,0.304878,-0.670732,0.426829
1548436013286,-0.123535,-0.430908,-0.911255,0.426829,-0.731707,0.304878
1548436013294,-0.122925,-0.427795,-0.912842,0.426829,-0.731707,0.121951
1548436013302,-0.124817,-0.432373,-0.910828,0.731707,-0.731707,-0.121951
1548436013316,-0.124756,-0.425964,-0.910828,0.853659,-0.731707,0.000000
1548436013324,-0.122498,-0.421143,-0.915100,1.036585,-0.548781,0.182927
1548436013331,-0.122375,-0.430847,-0.912903,1.890244,-0.609756,-0.182927
1548436013347,-0.124023,-0.432739,-0.908142,3.170732,-0.975610,-0.121951
1548436013355,-0.123718,-0.432922,-0.904175,3.597561,-0.731707,-0.121951
1548436013362,-0.120850,-0.440613,-0.903015,3.902439,-0.487805,-0.182927
1548436013377,-0.121521,-0.442688,-0.906433,3.780488,-0.365854,-0.121951
1548436013384,-0.119873,-0.434509,-0.911377,2.743902,-0.121951,0.304878
1548436013392,-0.118469,-0.433472,-0.909973,2.134146,0.121951,0.121951
1548436013407,-0.120422,-0.431152,-0.910095,2.317073,0.121951,0.000000
1548436013415,-0.123108,-0.438782,-0.908447,2.743902,0.304878,0.121951
1548436013422,-0.121521,-0.441223,-0.906189,3.048780,0.365854,0.060976
1548436013437,-0.120911,-0.438232,-0.907410,2.865854,0.548781,-0.243902
1548436013444,-0.120667,-0.436768,-0.906067,2.317073,0.609756,-0.792683
1548436013452,-0.119995,-0.435608,-0.907959,2.256098,0.914634,-1.036585
1548436013474,-0.118530,-0.439026,-0.908997,2.621951,1.341463,-1.341463
1548436013475,-0.116516,-0.434021,-0.911133,3.231707,1.280488,-1.951220
1548436013482,-0.114990,-0.421936,-0.914429,3.841464,1.463415,-2.378049
1548436013497,-0.106567,-0.421143,-0.916687,5.426829,2.073171,-2.560976
1548436013505,-0.108032,-0.439636,-0.905090,8.536586,1.707317,-2.743902
1548436013512,-0.111633,-0.437012,-0.906616,10.182927,0.426829,-2.500000
1548436013527,-0.111511,-0.434814,-0.907654,9.573171,-0.060976,-1.951220
1548436013534,-0.113342,-0.438354,-0.902283,10.182927,-0.060976,-1.219512
1548436013542,-0.114319,-0.444702,-0.901245,12.073171,0.060976,-0.731707
1548436013557,-0.115845,-0.456604,-0.906433,12.743903,-0.182927,-0.243902
1548436013564,-0.112305,-0.444580,-0.904114,12.073171,-0.609756,0.000000
1548436013572,-0.109253,-0.454407,-0.900940,11.219512,-0.731707,-0.182927
1548436013587,-0.113037,-0.464172,-0.900391,11.158537,-1.402439,0.243902
1548436013595,-0.117188,-0.464661,-0.896790,10.487805,-2.134146,0.365854
1548436013602,-0.118591,-0.465088,-0.896240,9.390244,-2.378049,0.914634
1548436013617,-0.119507,-0.468628,-0.896057,8.353659,-2.256098,0.731707
1548436013624,-0.122925,-0.465210,-0.895752,7.256098,-2.134146,1.402439
1548436013632,-0.121277,-0.460388,-0.894531,6.463415,-1.768293,1.402439
1548436013651,-0.120117,-0.461182,-0.896606,5.914634,-1.585366,1.097561
1548436013658,-0.121765,-0.464478,-0.896179,5.609756,-1.646341,1.158537
1548436013662,-0.121521,-0.466187,-0.894409,5.121951,-1.768293,1.097561
1548436013677,-0.119141,-0.469055,-0.892944,4.756098,-1.890244,1.036585
1548436013685,-0.119629,-0.471313,-0.895142,4.390244,-1.890244,0.914634
1548436013692,-0.119507,-0.472229,-0.894958,3.536585,-1.768293,0.914634
1548436013707,-0.119507,-0.467163,-0.892395,2.682927,-1.707317,0.853659
1548436013715,-0.117554,-0.466370,-0.893433,1.829268,-1.463415,0.548781
1548436013722,-0.120728,-0.465576,-0.895935,1.524390,-1.463415,0.487805
1548436013737,-0.120605,-0.466675,-0.893982,1.463415,-1.402439,0.548781
1548436013744,-0.119690,-0.465088,-0.895813,1.402439,-1.219512,0.365854
1548436013752,-0.122314,-0.466003,-0.898376,1.097561,-1.036585,0.121951
1548436013767,-0.119446,-0.467224,-0.894409,0.914634,-1.036585,-0.060976
1548436013774,-0.119446,-0.463745,-0.893311,0.548781,-0.975610,-0.182927
1548436013782,-0.120850,-0.464233,-0.895752,0.304878,-1.036585,-0.304878
1548436013797,-0.117432,-0.464905,-0.896057,0.365854,-0.975610,-0.304878
1548436013805,-0.115845,-0.463806,-0.895386,0.548781,-0.670732,-0.121951
1548436013812,-0.117065,-0.461060,-0.894897,0.670732,-0.548781,-0.121951
1548436013827,-0.116760,-0.458313,-0.892456,0.975610,-0.243902,-0.121951
1548436013835,-0.115906,-0.466614,-0.898438,1.829268,0.060976,0.121951
1548436013842,-0.114258,-0.456360,-0.898071,2.439024,0.000000,0.000000
1548436013857,-0.121643,-0.458496,-0.897095,2.682927,0.000000,0.365854
1548436013864,-0.121155,-0.449646,-0.898987,4.695122,0.060976,0.670732
1548436013872,-0.118103,-0.433105,-0.902588,6.707317,1.097561,-0.182927
1548436013887,-0.116760,-0.430786,-0.904236,11.097561,2.073171,0.914634
1548436013895,-0.105164,-0.455200,-0.898254,16.951220,2.500000,-0.243902
1548436013902,-0.121765,-0.466675,-0.898438,21.890244,1.890244,-0.487805
1548436013917,-0.116455,-0.454773,-0.891418,26.036587,3.109756,-0.243902
1548436013925,-0.111755,-0.459656,-0.887451,31.402439,5.121951,-1.036585
1548436013933,-0.110229,-0.459106,-0.903564,37.439026,4.573171,-3.597561
1548436013947,-0.091980,-0.459412,-0.918823,44.817074,4.451220,-3.475610
1548436013954,-0.080139,-0.476746,-0.919495,56.280491,3.719512,-2.865854
1548436013962,-0.070862,-0.478882,-0.889099,71.768295,-0.060976,-3.963415
1548436013977,-0.093323,-0.481873,-0.890991,88.109756,-5.243903,-4.146341
1548436013984,-0.091370,-0.538452,-0.883057,102.621956,-10.914635,-5.853659
1548436013992,-0.107422,-0.540588,-0.842468,109.878052,-15.060976,-7.987805
1548436014007,-0.123230,-0.520630,-0.836914,109.573174,-16.097561,-7.560976
1548436014017,-0.113220,-0.498657,-0.842224,99.451225,-14.146341,-7.073171
1548436014022,-0.093323,-0.518738,-0.841309,99.085365,-12.804878,-8.658537
1548436014038,-0.101135,-0.585022,-0.836426,113.414635,-16.036585,-10.914635
1548436014053,-0.121765,-0.623596,-0.764282,128.414642,-20.792683,-11.585366
1548436014054,-0.151245,-0.586365,-0.655701,136.402435,-21.707317,-11.341464
1548436014069,-0.149780,-0.649780,-0.676819,141.890244,-17.743902,-11.829268
1548436014074,-0.163025,-0.742615,-0.619263,159.878052,-17.621952,-10.243902
1548436014082,-0.186890,-0.819763,-0.571533,182.256104,-22.500000,-5.365854
1548436014096,-0.186890,-0.860046,-0.606262,180.609756,-23.170732,-3.170732
1548436014104,-0.165649,-0.902527,-0.627991,156.768295,-17.378050,-2.134146
1548436014112,-0.103210,-0.918091,-0.639709,126.158539,-9.451220,0.426829
1548436014127,-0.093933,-0.766296,-0.644531,80.792686,0.609756,-4.329268
1548436014134,-0.114807,-0.798767,-0.615784,62.134148,1.890244,-6.402439
1548436014142,-0.122375,-0.861328,-0.585510,67.439026,-1.463415,-2.317073
1548436014157,-0.132324,-0.867615,-0.574341,68.170731,-2.987805,-0.609756
1548436014164,-0.116943,-0.814392,-0.570557,59.756100,-2.378049,-1.341463
1548436014172,-0.117188,-0.825317,-0.573975,55.121952,-1.402439,-0.731707
1548436014187,-0.114929,-0.860107,-0.587036,52.865856,-3.902439,-0.609756
1548436014194,-0.113403,-0.853088,-0.582947,43.902439,-4.573171,-0.487805
1548436014202,-0.129578,-0.845703,-0.566162,33.841465,-4.634146,-0.182927
1548436014217,-0.130310,-0.863098,-0.548767,25.853659,-4.573171,-0.365854
1548436014224,-0.135925,-0.888794,-0.536194,18.902439,-4.573171,-0.670732
1548436014232,-0.133606,-0.875366,-0.530334,10.853659,-3.780488,-0.792683
1548436014246,-0.131042,-0.869080,-0.541626,2.378049,-1.280488,-0.060976
1548436014254,-0.128357,-0.852600,-0.557617,-5.731708,-0.548781,0.121951
1548436014262,-0.127991,-0.838867,-0.567200,-12.926829,-0.304878,0.121951
1548436014276,-0.125488,-0.835693,-0.571899,-16.890244,-0.121951,0.365854
1548436014284,-0.126709,-0.834167,-0.577942,-19.268293,-0.365854,0.548781
1548436014291,-0.116028,-0.837341,-0.579407,-21.646341,-1.036585,0.426829
1548436014307,-0.114258,-0.846252,-0.570374,-23.719513,-1.585366,0.548781
1548436014314,-0.126526,-0.844238,-0.581543,-28.231709,-3.414634,0.548781
1548436014322,-0.119995,-0.839783,-0.582336,-34.451221,-5.121951,0.670732
1548436014337,-0.131042,-0.843262,-0.584717,-38.902439,-5.487805,1.097561
1548436014345,-0.139954,-0.828735,-0.592285,-45.121952,-6.707317,1.341463
1548436014352,-0.136292,-0.819641,-0.596191,-50.792683,-5.975610,2.073171
1548436014367,-0.144653,-0.822632,-0.595642,-54.939026,-4.634146,2.743902
1548436014374,-0.151428,-0.824219,-0.591797,-60.853661,-3.414634,3.231707
1548436014382,-0.167542,-0.866089,-0.591675,-68.780487,-0.304878,4.268293
1548436014397,-0.165039,-0.833557,-0.611816,-95.000000,8.170732,7.073171
1548436014405,-0.152283,-0.743835,-0.658325,-137.256104,19.573172,10.670732
1548436014412,-0.140564,-0.703064,-0.699402,-165.670731,23.963415,13.170732
1548436014427,-0.110107,-0.658875,-0.700317,-169.573181,22.682928,14.939025
1548436014435,-0.127014,-0.676025,-0.710022,-147.865860,19.939024,8.353659
1548436014442,-0.143311,-0.712097,-0.721252,-122.743904,17.743902,5.670732
1548436014457,-0.145935,-0.684814,-0.759460,-113.963417,19.634148,8.780488
1548436014465,-0.109558,-0.612244,-0.808716,-117.195122,21.097561,10.121951
1548436014479,-0.110474,-0.566162,-0.804749,-110.853661,18.292683,9.817074
1548436014487,-0.117004,-0.541931,-0.848633,-92.926834,13.963415,8.719512
1548436014503,-0.093750,-0.501465,-0.880188,-86.829269,14.024390,7.560976
1548436014504,-0.096130,-0.481567,-0.881592,-76.768295,11.951220,7.073171
1548436014519,-0.099121,-0.484680,-0.878052,-62.560978,9.878049,6.585366
1548436014533,-0.105713,-0.518372,-0.874878,-47.439026,6.585366,7.134147
1548436014534,-0.114136,-0.523010,-0.862915,-34.634148,2.743902,6.341464
1548436014547,-0.111206,-0.511963,-0.855286,-25.975611,1.280488,3.963415
1548436014555,-0.106140,-0.526123,-0.858948,-19.573172,0.365854,2.378049
1548436014562,-0.106567,-0.532288,-0.853699,-13.292684,-1.951220,0.853659
1548436014577,-0.113525,-0.541382,-0.852966,-7.256098,-3.658537,-0.060976
1548436014586,-0.118835,-0.557800,-0.846436,-2.439024,-4.878049,-0.426829
1548436014592,-0.126343,-0.562012,-0.836304,0.853659,-5.670732,-1.280488
1548436014615,-0.125671,-0.565247,-0.832825,2.195122,-5.670732,-1.524390
1548436014616,-0.128052,-0.575439,-0.826965,3.475610,-4.756098,-1.097561
1548436014622,-0.127563,-0.577881,-0.827576,4.268293,-4.207317,-0.731707
1548436014646,-0.127686,-0.585938,-0.823242,4.085366,-3.414634,0.000000
1548436014648,-0.126953,-0.593628,-0.817200,3.292683,-2.560976,0.426829
1548436014663,-0.129333,-0.588440,-0.819214,1.097561,-1.890244,0.609756
1548436014668,-0.125488,-0.583008,-0.821777,-1.402439,-1.097561,1.341463
1548436014674,-0.123352,-0.575378,-0.826843,-3.536585,-0.121951,1.585366
1548436014682,-0.118835,-0.568481,-0.833557,-5.000000,0.426829,1.768293
1548436014696,-0.117432,-0.556946,-0.838318,-5.304878,0.487805,1.768293
1548436014704,-0.118469,-0.551270,-0.845581,-4.695122,0.243902,1.890244
1548436014712,-0.121704,-0.554382,-0.844421,-3.170732,-0.609756,2.012195
1548436014727,-0.127380,-0.563843,-0.837219,-1.402439,-1.341463,1.768293
1548436014736,-0.128113,-0.570435,-0.836731,-0.609756,-1.890244,1.951220
1548436014742,-0.125549,-0.564392,-0.833374,-1.158537,-1.951220,2.256098
1548436014757,-0.123535,-0.557861,-0.834961,-1.951220,-1.646341,2.195122
1548436014764,-0.124878,-0.563538,-0.837341,-1.890244,-1.280488,2.256098
1548436014772,-0.126099,-0.566833,-0.836121,-1.219512,-1.219512,2.073171
1548436014786,-0.126160,-0.566101,-0.835388,-1.097561,-1.158537,1.646341
1548436014794,-0.126587,-0.569092,-0.831238,-1.341463,-1.219512,1.280488
1548436014802,-0.124268,-0.571228,-0.828308,-1.768293,-1.219512,0.975610
1548436014816,-0.125366,-0.571960,-0.831543,-2.439024,-1.036585,0.670732
1548436014824,-0.126526,-0.562378,-0.833984,-3.414634,-0.975610,0.243902
1548436014831,-0.127563,-0.554688,-0.836975,-3.902439,-0.731707,-0.121951
1548436014846,-0.128357,-0.552979,-0.842285,-3.597561,-0.182927,-0.121951
1548436014854,-0.127075,-0.553955,-0.845154,-2.804878,-0.121951,-0.243902
1548436014861,-0.122070,-0.561096,-0.843018,-2.012195,-0.182927,-0.548781
1548436014876,-0.125610,-0.562256,-0.840576,-1.219512,-0.365854,-0.670732
1548436014884,-0.127136,-0.561340,-0.840271,-1.219512,-0.853659,-0.548781
1548436014891,-0.123352,-0.559265,-0.837891,-1.768293,-0.487805,-0.548781
1548436014907,-0.124268,-0.557739,-0.838379,-2.134146,-0.365854,-0.975610
1548436014914,-0.126404,-0.560608,-0.841309,-2.134146,-0.426829,-1.402439
1548436014922,-0.127747,-0.565369,-0.840637,-1.768293,-0.365854,-1.707317
1548436014937,-0.121582,-0.565674,-0.839539,-1.646341,0.487805,-2.073171
1548436014944,-0.119629,-0.560425,-0.839233,-2.012195,1.158537,-2.256098
1548436014952,-0.115295,-0.552124,-0.842163,-2.743902,1.219512,-2.256098
1548436014967,-0.117432,-0.549072,-0.843384,-3.048780,0.853659,-1.829268
1548436014974,-0.116333,-0.550537,-0.846069,-2.621951,0.121951,-1.097561
1548436014982,-0.123108,-0.552429,-0.843628,-1.829268,-0.914634,-0.548781
1548436014997,-0.122498,-0.554077,-0.843994,-1.341463,-1.646341,-0.426829
1548436015004,-0.123291,-0.554260,-0.845032,-0.731707,-1.707317,-0.365854
1548436015012,-0.125183,-0.554871,-0.842163,-0.426829,-1.768293,-0.243902
1548436015027,-0.121521,-0.554810,-0.843811,-0.243902,-1.463415,-0.243902
1548436015035,-0.122925,-0.552307,-0.840393,-0.060976,-1.280488,-0.060976
1548436015042,-0.118835,-0.553284,-0.842224,0.182927,-1.341463,0.000000
1548436015057,-0.118286,-0.552734,-0.840637,0.609756,-1.646341,-0.243902
1548436015065,-0.122375,-0.551758,-0.842224,1.219512,-1.829268,-0.182927
1548436015072,-0.122681,-0.549927,-0.843445,1.890244,-1.890244,-0.060976
1548436015087,-0.123291,-0.552246,-0.841614,2.317073,-1.829268,-0.487805
1548436015095,-0.124573,-0.551208,-0.844299,2.865854,-1.951220,-0.670732
1548436015102,-0.124023,-0.550049,-0.843750,3.414634,-1.951220,-0.914634
1548436015117,-0.122314,-0.550537,-0.845032,4.512195,-1.829268,-1.219512
1548436015125,-0.121338,-0.548645,-0.845154,5.548780,-1.829268,-1.463415
1548436015132,-0.122070,-0.547852,-0.849792,6.585366,-1.890244,-1.463415
1548436015147,-0.124817,-0.549805,-0.848755,8.170732,-1.951220,-1.585366
1548436015154,-0.121643,-0.559570,-0.842407,10.182927,-1.951220,-1.646341
1548436015162,-0.123535,-0.566589,-0.839417,11.951220,-1.951220,-1.524390
1548436015177,-0.125977,-0.564514,-0.840454,12.439025,-2.012195,-1.463415
1548436015184,-0.122070,-0.567017,-0.832275,12.682927,-1.951220,-1.585366
1548436015194,-0.117920,-0.578369,-0.825012,12.987805,-1.829268,-1.768293
1548436015213,-0.118225,-0.590942,-0.823608,12.743903,-2.256098,-1.829268
1548436015214,-0.120789,-0.595276,-0.820129,11.341464,-2.621951,-1.646341
1548436015222,-0.125305,-0.590881,-0.820190,8.536586,-2.743902,-1.463415
1548436015238,-0.125122,-0.584290,-0.821899,5.426829,-2.560976,-1.341463
1548436015244,-0.126221,-0.581177,-0.824890,3.109756,-2.378049,-1.463415
1548436015252,-0.123474,-0.576843,-0.827576,1.585366,-2.073171,-1.402439
1548436015267,-0.122986,-0.569458,-0.828674,0.609756,-1.768293,-1.280488
1548436015274,-0.121704,-0.566406,-0.831482,0.548781,-1.707317,-1.463415
1548436015282,-0.121765,-0.567993,-0.834106,1.646341,-1.890244,-1.463415
1548436015297,-0.120972,-0.567932,-0.831787,3.353659,-2.195122,-1.341463
1548436015304,-0.121155,-0.570251,-0.828186,4.512195,-2.560976,-1.402439
1548436015312,-0.127808,-0.578918,-0.826477,5.365854,-2.865854,-1.524390
1548436015327,-0.124146,-0.581665,-0.826782,6.158537,-3.170732,-1.707317
1548436015335,-0.120056,-0.576904,-0.826477,5.914634,-3.048780,-1.707317
1548436015354,-0.119812,-0.579102,-0.824158,5.548780,-2.987805,-2.012195
1548436015362,-0.119568,-0.583740,-0.820801,5.609756,-3.475610,-2.012195
1548436015364,-0.121521,-0.585815,-0.820923,6.036585,-3.841464,-1.951220
1548436015372,-0.123230,-0.588196,-0.817810,6.280488,-4.024390,-2.317073
1548436015386,-0.120850,-0.594849,-0.815125,6.280488,-4.085366,-3.231707
1548436015394,-0.121887,-0.600403,-0.810913,6.158537,-4.329268,-3.902439
1548436015402,-0.121643,-0.614807,-0.805969,5.304878,-4.512195,-4.634146
1548436015416,-0.125305,-0.617798,-0.812012,3.475610,-4.878049,-5.914634
1548436015424,-0.125366,-0.610229,-0.812378,0.304878,-5.365854,-7.500000
1548436015431,-0.128357,-0.603271,-0.811462,-3.536585,-5.670732,-8.597561
1548436015446,-0.127502,-0.605164,-0.815918,-6.585366,-5.365854,-9.573171
1548436015454,-0.121704,-0.594116,-0.820557,-9.268292,-4.573171,-9.878049
1548436015462,-0.116699,-0.577393,-0.827637,-11.890244,-4.085366,-9.207317
1548436015477,-0.114746,-0.565186,-0.831177,-13.048780,-3.719512,-9.085366
1548436015491,-0.121033,-0.557800,-0.834106,-11.951220,-4.146341,-8.902439
1548436015492,-0.121582,-0.553467,-0.841064,-9.939025,-4.756098,-8.292683
1548436015507,-0.123169,-0.547424,-0.844604,-7.256098,-4.817073,-6.829268
1548436015514,-0.128662,-0.556580,-0.843323,-3.963415,-5.060976,-6.219512
1548436015522,-0.131165,-0.562927,-0.839966,-1.280488,-5.609756,-6.280488
1548436015537,-0.131104,-0.548767,-0.838440,-0.731707,-5.548780,-4.878049
1548436015544,-0.132568,-0.548706,-0.838379,0.243902,-4.939024,-3.902439
1548436015552,-0.131226,-0.557190,-0.834351,3.597561,-4.390244,-4.085366
1548436015566,-0.133545,-0.558838,-0.836792,6.829268,-3.780488,-3.719512
1548436015574,-0.126343,-0.564697,-0.836609,8.353659,-3.231707,-2.621951
1548436015582,-0.123840,-0.573486,-0.832336,8.841464,-2.804878,-1.768293
1548436015597,-0.127014,-0.574890,-0.827209,9.085366,-2.987805,-1.219512
1548436015604,-0.127563,-0.579163,-0.824951,9.451220,-2.621951,-0.426829
1548436015619,-0.127808,-0.583984,-0.822327,9.817074,-2.317073,0.365854
1548436015627,-0.126404,-0.582275,-0.819641,10.121951,-1.890244,0.792683
1548436015634,-0.124634,-0.589233,-0.821716,10.365854,-1.646341,1.158537
1548436015641,-0.125549,-0.596985,-0.817993,10.426829,-1.707317,0.975610
1548436015656,-0.124390,-0.589661,-0.814880,10.000000,-1.524390,0.914634
1548436015664,-0.122131,-0.589661,-0.818604,9.146341,-1.341463,0.914634
1548436015672,-0.126526,-0.593933,-0.819885,8.719512,-1.585366,1.097561
1548436015687,-0.125183,-0.589417,-0.817627,8.719512,-1.524390,1.097561
1548436015694,-0.124573,-0.590820,-0.815430,8.963415,-1.341463,1.524390
1548436015702,-0.128479,-0.593079,-0.819275,9.024390,-1.402439,1.585366
1548436015717,-0.125488,-0.583984,-0.822327,9.512196,-1.219512,1.524390
1548436015724,-0.122925,-0.596436,-0.818481,10.365854,-0.914634,1.585366
1548436015732,-0.127869,-0.612976,-0.812683,12.012196,-1.280488,1.402439
1548436015747,-0.122620,-0.620422,-0.818726,12.439025,-1.402439,0.182927
1548436015755,-0.123779,-0.611450,-0.818665,10.487805,-1.646341,-0.182927
1548436015762,-0.118347,-0.583313,-0.815796,8.902439,-1.951220,-0.731707
1548436015777,-0.106201,-0.574280,-0.813965,8.475610,-2.012195,-2.012195
1548436015785,-0.102478,-0.584412,-0.814453,11.524390,-2.926829,-1.646341
1548436015792,-0.110596,-0.626831,-0.805542,15.182927,-4.756098,-1.341463
1548436015809,-0.119324,-0.615112,-0.792358,17.621952,-6.036585,-2.621951
1548436015822,-0.116272,-0.591125,-0.791199,15.792684,-5.853659,-4.085366
1548436015822,-0.110474,-0.600159,-0.790588,14.268293,-6.524390,-4.024390
1548436015837,-0.111450,-0.618164,-0.787842,15.487805,-7.865854,-3.475610
1548436015845,-0.123779,-0.646179,-0.786438,16.707317,-8.841464,-2.439024
1548436015852,-0.135254,-0.643311,-0.788635,16.158537,-9.085366,-1.585366
1548436015867,-0.137085,-0.631714,-0.786499,13.536586,-8.475610,-1.097561
1548436015874,-0.133423,-0.622620,-0.778625,11.585366,-7.926829,-1.463415
1548436015882,-0.139160,-0.615967,-0.787720,11.097561,-7.378049,-2.012195
1548436015897,-0.143188,-0.626831,-0.794678,10.853659,-6.768293,-2.804878
1548436015904,-0.138672,-0.636108,-0.787659,11.280488,-7.256098,-1.951220
1548436015912,-0.138000,-0.637207,-0.786011,12.256098,-7.195122,-1.707317
1548436015927,-0.143005,-0.630371,-0.788818,11.463415,-6.646342,-1.951220
1548436015934,-0.141479,-0.631531,-0.786438,10.731708,-6.036585,-1.524390
1548436015942,-0.141357,-0.630249,-0.785034,10.487805,-5.914634,-1.341463
1548436015957,-0.144287,-0.625854,-0.783447,10.365854,-5.670732,-1.463415
1548436015964,-0.142883,-0.624756,-0.784546,10.000000,-5.365854,-1.402439
1548436015972,-0.146362,-0.627014,-0.786865,11.036586,-5.487805,-0.670732
1548436015987,-0.145569,-0.614746,-0.786926,12.256098,-5.548780,-1.524390
1548436015994,-0.149353,-0.639709,-0.777832,13.109756,-5.670732,-2.012195
1548436016002,-0.160156,-0.661194,-0.773193,15.670732,-5.731708,-0.792683
1548436016024,-0.147949,-0.655762,-0.768494,15.060976,-5.000000,-1.951220
1548436016025,-0.150330,-0.646545,-0.768677,12.865854,-4.817073,-0.609756
1548436016032,-0.151367,-0.645752,-0.770569,12.195122,-4.329268,-0.609756
1548436016047,-0.145691,-0.628906,-0.774414,12.682927,-3.841464,0.000000
1548436016055,-0.142456,-0.643982,-0.771790,13.536586,-3.292683,-0.731707
1548436016062,-0.145264,-0.658569,-0.767700,15.670732,-3.414634,-0.243902
1548436016077,-0.142212,-0.660095,-0.764893,16.951220,-3.170732,-0.182927
1548436016085,-0.144775,-0.666199,-0.758057,17.012196,-3.048780,-0.426829
1548436016092,-0.146606,-0.679810,-0.750610,16.463415,-3.292683,-0.548781
1548436016107,-0.147278,-0.679993,-0.751526,15.182927,-3.292683,-0.365854
1548436016114,-0.145813,-0.671509,-0.755249,13.048780,-2.560976,-0.365854
1548436016122,-0.146118,-0.670410,-0.754822,11.280488,-2.073171,-0.365854
1548436016137,-0.141418,-0.661194,-0.756348,10.487805,-1.707317,-0.426829
1548436016145,-0.146973,-0.661194,-0.756348,10.060976,-1.463415,0.000000
1548436016152,-0.147461,-0.659851,-0.754211,11.158537,-1.097561,0.853659
1548436016167,-0.149353,-0.671631,-0.752136,12.560976,-0.792683,1.097561
1548436016174,-0.144714,-0.668091,-0.747437,13.597561,-0.487805,0.670732
1548436016182,-0.145813,-0.675964,-0.747986,14.207317,0.121951,0.548781
1548436016197,-0.145020,-0.679260,-0.751526,14.939025,0.426829,0.975610
1548436016204,-0.141296,-0.672852,-0.750427,15.000000,0.792683,0.731707
1548436016212,-0.144836,-0.678833,-0.746704,15.243903,0.365854,0.182927
1548436016227,-0.144958,-0.680542,-0.738220,16.463415,0.060976,0.182927
1548436016236,-0.146362,-0.689148,-0.732971,16.829269,0.121951,0.121951
1548436016242,-0.146973,-0.686401,-0.734924,16.463415,0.243902,0.121951
1548436016257,-0.144958,-0.686768,-0.736267,15.853659,0.792683,0.243902
1548436016265,-0.142090,-0.687866,-0.732666,16.097561,1.463415,0.243902
1548436016272,-0.141418,-0.695740,-0.729553,16.463415,1.890244,0.000000
1548436016287,-0.139160,-0.708130,-0.728027,16.707317,1.951220,-0.182927
1548436016294,-0.140076,-0.711853,-0.723206,16.158537,1.951220,-0.304878
1548436016303,-0.135864,-0.711609,-0.721375,14.390244,1.646341,-0.609756
1548436016317,-0.137634,-0.707092,-0.724304,11.768293,1.097561,-0.975610
1548436016324,-0.134888,-0.702332,-0.723694,9.878049,0.914634,-0.609756
1548436016332,-0.137024,-0.710632,-0.724243,9.146341,0.853659,-0.121951
1548436016347,-0.138062,-0.708740,-0.724670,8.353659,0.304878,0.304878
1548436016355,-0.138306,-0.705505,-0.723694,7.195122,0.000000,0.426829
1548436016363,-0.140686,-0.701233,-0.721802,6.646342,0.000000,0.365854
1548436016377,-0.139282,-0.702637,-0.722717,6.585366,0.000000,0.304878
1548436016385,-0.139893,-0.708191,-0.720154,6.402439,-0.243902,0.060976
1548436016392,-0.137024,-0.707458,-0.719727,6.158537,-0.487805,-0.304878
1548436016407,-0.137634,-0.712219,-0.717041,5.853659,-0.548781,-0.365854
1548436016415,-0.141663,-0.712341,-0.719910,5.243903,-0.914634,-0.121951
1548436016423,-0.140137,-0.707825,-0.720154,4.573171,-0.853659,0.000000
1548436016437,-0.138672,-0.703857,-0.718872,4.451220,-0.731707,-0.060976
1548436016444,-0.139343,-0.704224,-0.719788,4.634146,-0.853659,-0.060976
1548436016452,-0.141907,-0.703308,-0.720703,5.243903,-1.097561,-0.182927
1548436016467,-0.144409,-0.703369,-0.721924,6.097561,-1.158537,-0.060976
1548436016482,-0.141541,-0.703674,-0.722534,7.317073,-1.036585,-0.060976
1548436016482,-0.140808,-0.706238,-0.715088,9.024390,-0.731707,-0.243902
1548436016497,-0.140442,-0.709473,-0.716431,10.182927,-0.548781,-0.548781
1548436016504,-0.139648,-0.714355,-0.719788,10.914635,-0.548781,-0.609756
1548436016512,-0.133362,-0.716064,-0.718750,11.646341,-0.792683,-0.670732
1548436016527,-0.138733,-0.706848,-0.718872,11.707317,-1.768293,-1.158537
1548436016535,-0.140320,-0.713013,-0.704468,12.073171,-3.109756,-1.646341
1548436016542,-0.139709,-0.729675,-0.694397,13.658537,-3.414634,-1.280488
1548436016557,-0.142395,-0.737915,-0.694275,13.658537,-3.048780,-0.792683
1548436016565,-0.141907,-0.735352,-0.694824,11.829268,-2.500000,-0.609756
1548436016572,-0.140991,-0.732483,-0.695984,9.512196,-2.073171,-0.731707
1548436016595,-0.136047,-0.734436,-0.696899,7.926829,-1.646341,-0.914634
1548436016596,-0.138916,-0.729614,-0.695740,6.707317,-1.097561,-0.792683
1548436016602,-0.140381,-0.737000,-0.686401,5.731708,-1.280488,-0.609756
1548436016617,-0.133545,-0.742615,-0.685303,4.817073,-0.609756,-0.304878
1548436016632,-0.135315,-0.734985,-0.692993,2.865854,-0.243902,-0.060976
1548436016633,-0.138367,-0.722229,-0.697937,0.426829,-0.670732,0.182927
1548436016647,-0.138000,-0.718384,-0.700500,-0.792683,-0.914634,0.365854
1548436016654,-0.140442,-0.718445,-0.698303,-0.975610,-1.280488,0.121951
1548436016662,-0.142029,-0.717651,-0.698059,-0.304878,-1.707317,-0.304878
1548436016677,-0.141541,-0.722656,-0.699097,0.792683,-1.463415,-0.182927
1548436016684,-0.143799,-0.742859,-0.687134,2.439024,-0.731707,0.182927
1548436016692,-0.143982,-0.751099,-0.680786,2.439024,0.304878,0.304878
1548436016707,-0.146301,-0.740112,-0.676331,0.060976,1.951220,0.304878
1548436016714,-0.136169,-0.744324,-0.680786,-3.109756,3.719512,0.182927
1548436016722,-0.120239,-0.721375,-0.710510,-6.219512,5.121951,0.426829
1548436016737,-0.120483,-0.671021,-0.750671,-9.451220,3.841464,0.426829
1548436016745,-0.128113,-0.651428,-0.759644,-8.414635,0.487805,-0.304878
1548436016753,-0.135620,-0.680115,-0.741455,0.365854,-2.560976,-0.914634
1548436016767,-0.141113,-0.711487,-0.717346,11.524390,-4.390244,-1.219512
1548436016774,-0.140015,-0.718933,-0.703186,18.841463,-5.060976,-1.585366
1548436016782,-0.139404,-0.728516,-0.693665,22.195122,-4.878049,-1.890244
1548436016797,-0.135681,-0.747864,-0.680115,23.719513,-4.451220,-2.012195
1548436016804,-0.135925,-0.762634,-0.667969,24.024391,-3.963415,-1.768293
1548436016812,-0.139099,-0.755615,-0.665710,21.829269,-3.658537,-1.585366
1548436016827,-0.137695,-0.764160,-0.660706,17.743902,-3.353659,-1.219512
1548436016834,-0.138428,-0.760010,-0.670532,13.963415,-3.292683,-0.853659
1548436016843,-0.138733,-0.747192,-0.675293,9.817074,-3.109756,-0.365854
1548436016857,-0.137024,-0.741211,-0.681946,7.134147,-2.926829,-0.365854
1548436016865,-0.140869,-0.741760,-0.677307,6.463415,-2.743902,-0.548781
1548436016872,-0.141846,-0.750793,-0.668457,6.829268,-2.256098,-0.182927
1548436016887,-0.142273,-0.759338,-0.664246,6.951220,-1.768293,0.304878
1548436016894,-0.140564,-0.755432,-0.668823,5.426829,-0.670732,0.609756
1548436016902,-0.139465,-0.749084,-0.671204,3.170732,0.121951,0.853659
1548436016917,-0.135742,-0.754761,-0.669617,1.646341,0.426829,0.792683
1548436016924,-0.134033,-0.748169,-0.677856,0.365854,0.487805,0.670732
1548436016932,-0.132874,-0.738403,-0.682373,-1.341463,-0.426829,0.670732
1548436016947,-0.134888,-0.737671,-0.680420,-1.585366,-1.341463,0.487805
1548436016954,-0.134888,-0.742981,-0.676941,-0.548781,-2.012195,0.670732
1548436016962,-0.132568,-0.753845,-0.669067,0.304878,-2.743902,0.792683
1548436016977,-0.127930,-0.758545,-0.661011,0.426829,-3.841464,0.670732
1548436016985,-0.126099,-0.759644,-0.671021,-0.548781,-4.939024,1.158537
1548436016992,-0.132935,-0.769531,-0.671570,-2.804878,-6.646342,1.768293
1548436017007,-0.134583,-0.767212,-0.674622,-6.097561,-9.024390,1.646341
1548436017014,-0.107666,-0.732788,-0.685120,-10.670732,-11.280488,0.426829
1548436017022,-0.104858,-0.714539,-0.706726,-13.780488,-13.170732,0.487805
1548436017037,-0.140869,-0.721436,-0.706543,-11.341464,-15.548780,4.939024
1548436017044,-0.158508,-0.720825,-0.693604,-5.792683,-17.439024,9.756098
1548436017053,-0.164917,-0.722412,-0.681946,-2.012195,-18.475611,9.817074
1548436017067,-0.178589,-0.736267,-0.678528,0.060976,-18.536585,8.292683
1548436017074,-0.190552,-0.743225,-0.679504,1.585366,-16.829269,7.256098
1548436017082,-0.199219,-0.735352,-0.675476,1.341463,-14.085366,4.939024
1548436017097,-0.219666,-0.722534,-0.663269,-0.121951,-11.768293,1.890244
