timestamp, accel_x, accel_y, accel_z, gyro_x, gyro_y, gyro_z
1548434796856,-0.898010,-0.431030,0.178467,-2.073171,32.500000,40.731709
1548434796864,-0.914917,-0.409729,0.159607,-2.804878,32.439026,40.000000
1548434796871,-0.892395,-0.418091,0.142029,-0.975610,32.500000,39.817074
1548434796886,-0.899109,-0.410217,0.129028,2.195122,32.073170,38.536587
1548434796894,-0.967041,-0.385010,0.122986,5.426829,29.695122,37.743904
1548434796901,-0.949951,-0.406311,0.106079,8.109756,28.902439,36.219513
1548434796916,-0.923584,-0.425049,0.099548,10.853659,31.158537,35.548782
1548434796924,-0.931702,-0.420715,0.102417,10.792684,31.036587,35.426830
1548434796931,-0.937561,-0.407593,0.100769,8.170732,30.243902,35.182926
1548434796946,-0.940308,-0.394043,0.100342,6.341464,29.817074,35.487804
1548434796954,-0.912781,-0.396667,0.105530,6.158537,28.841465,35.426830
1548434796961,-0.932983,-0.379944,0.122253,6.341464,27.987806,35.304878
1548434796977,-1.010742,-0.348083,0.131958,5.548780,25.000000,35.000000
1548434796984,-1.001526,-0.346069,0.134705,2.926829,23.902439,34.634148
1548434796991,-0.961853,-0.353210,0.143738,2.560976,27.012196,35.182926
1548434797006,-0.958313,-0.348389,0.142273,2.987805,28.414635,35.548782
1548434797014,-0.966003,-0.330750,0.130981,3.536585,28.170732,35.670734
1548434797021,-0.975586,-0.323486,0.123047,5.121951,27.804878,36.341465
1548434797036,-0.973755,-0.321167,0.110107,6.768293,27.073172,36.585365
1548434797044,-0.973450,-0.312134,0.095642,7.195122,26.646341,36.402439
1548434797051,-0.975830,-0.301392,0.080505,6.890244,26.158537,36.646343
1548434797066,-0.976379,-0.286133,0.061035,5.060976,25.365854,36.707317
1548434797074,-0.978577,-0.265991,0.046265,1.707317,24.695122,36.585365
1548434797081,-0.978088,-0.235718,0.038025,-2.682927,23.719513,35.853661
1548434797096,-0.975525,-0.194702,0.025391,-5.792683,22.743902,34.939026
1548434797104,-0.979431,-0.160889,0.012512,-6.707317,21.402439,33.414635
1548434797111,-0.976196,-0.145386,0.003967,-4.512195,19.878050,31.219513
1548434797126,-0.976440,-0.138733,-0.000671,-0.182927,18.109756,28.597561
1548434797134,-0.956177,-0.149292,-0.004150,4.695122,16.463415,25.853659
1548434797141,-0.873352,-0.175171,-0.021606,7.682927,15.121951,23.414635
1548434797157,-1.026489,-0.116760,0.003174,10.548780,12.073171,19.024391
1548434797164,-1.092773,-0.128601,-0.009827,9.939025,2.804878,12.378049
1548434797171,-0.967407,-0.185120,-0.024658,8.353659,6.951220,10.731708
1548434797186,-0.945007,-0.167297,-0.023560,8.475610,12.621951,9.268292
1548434797194,-0.978699,-0.158142,-0.027649,5.548780,9.085366,5.487805
1548434797201,-0.978333,-0.168518,-0.025879,4.207317,7.012195,1.402439
1548434797216,-0.973450,-0.183838,-0.022827,5.853659,5.914634,-1.524390
1548434797224,-0.978210,-0.184570,-0.022705,7.256098,4.756098,-4.573171
1548434797231,-0.981262,-0.201599,-0.016968,7.987805,3.475610,-7.378049
1548434797246,-0.984192,-0.227173,-0.014587,9.451220,1.951220,-9.695122
1548434797254,-0.990479,-0.238403,-0.020264,10.731708,0.670732,-11.463415
1548434797261,-0.993103,-0.257568,-0.024170,10.243902,-0.609756,-12.743903
1548434797276,-0.991943,-0.272278,-0.031006,8.536586,-1.768293,-14.207317
1548434797284,-0.994568,-0.275513,-0.029907,6.036585,-3.109756,-15.243903
1548434797291,-0.990295,-0.272522,-0.017822,2.500000,-4.573171,-16.036585
1548434797306,-0.989380,-0.268738,-0.006775,-0.182927,-5.426829,-16.829269
1548434797314,-0.990967,-0.264648,0.009338,-0.975610,-7.134147,-17.378050
1548434797321,-0.988953,-0.270203,0.020630,-0.304878,-8.597561,-17.804878
1548434797336,-0.988403,-0.270691,0.020325,1.036585,-9.695122,-18.231709
1548434797344,-0.987915,-0.276611,0.023499,2.012195,-10.853659,-18.902439
1548434797351,-0.988464,-0.275330,0.020996,3.048780,-11.646341,-19.390244
1548434797366,-0.989197,-0.279846,0.016968,4.756098,-12.743903,-19.878050
1548434797374,-0.985046,-0.286865,0.019592,6.768293,-13.841464,-20.609756
1548434797381,-0.982178,-0.285461,0.020386,7.804878,-14.756098,-21.524391
1548434797396,-0.979980,-0.288330,0.024658,8.109756,-15.975610,-22.195122
1548434797404,-0.972290,-0.314941,0.035828,7.682927,-17.378050,-22.865854
1548434797411,-0.966919,-0.321167,0.041626,6.585366,-18.231709,-23.841463
1548434797426,-0.965881,-0.322571,0.049500,4.207317,-19.085367,-24.512196
1548434797434,-0.961426,-0.330933,0.063171,1.890244,-20.060976,-25.060976
1548434797441,-0.958191,-0.331848,0.065247,0.304878,-20.731709,-25.487806
1548434797457,-0.957397,-0.323181,0.069336,-1.280488,-21.585367,-25.853659
1548434797464,-0.955261,-0.330017,0.076050,-2.865854,-22.439024,-26.341463
1548434797472,-0.955261,-0.339478,0.079163,-3.231707,-22.926830,-27.012196
1548434797487,-0.956421,-0.343750,0.080444,-2.621951,-23.719513,-27.378050
1548434797494,-0.951111,-0.341614,0.078979,-2.439024,-24.695122,-27.804878
1548434797502,-0.954041,-0.341125,0.082458,-2.804878,-25.548780,-28.597561
1548434797516,-0.955566,-0.352905,0.088623,-3.414634,-26.646341,-29.451220
1548434797524,-0.946899,-0.385437,0.098389,-4.085366,-27.560976,-30.121952
1548434797532,-0.944824,-0.386047,0.102722,-5.731708,-27.987806,-30.548780
1548434797547,-0.946655,-0.362488,0.100952,-9.756098,-28.719513,-30.487806
1548434797554,-0.948242,-0.352478,0.103699,-15.121951,-30.000000,-30.853659
1548434797562,-0.942139,-0.355591,0.113098,-19.268293,-30.914635,-32.012196
1548434797577,-0.933594,-0.370911,0.130554,-20.853659,-31.280489,-32.500000
1548434797584,-0.930786,-0.380249,0.144165,-19.390244,-31.463415,-32.500000
1548434797592,-0.932190,-0.374573,0.147461,-15.000000,-31.890245,-32.621952
1548434797607,-0.933044,-0.388489,0.154114,-8.963415,-32.439026,-32.865856
1548434797614,-0.931763,-0.429382,0.171021,-2.743902,-32.682926,-33.170731
1548434797622,-0.930237,-0.454407,0.182068,2.317073,-32.500000,-32.926830
1548434797637,-0.929077,-0.465942,0.186157,4.695122,-32.500000,-32.195122
1548434797644,-0.927429,-0.480774,0.185303,4.573171,-32.621952,-31.219513
1548434797652,-0.921631,-0.497986,0.182068,2.195122,-32.378048,-30.426830
1548434797667,-0.914612,-0.498718,0.182251,-2.317073,-32.073170,-29.390245
1548434797674,-0.905640,-0.484192,0.180725,-7.378049,-31.646341,-28.353659
1548434797681,-0.902832,-0.470459,0.182068,-10.914635,-31.524391,-27.560976
1548434797696,-0.904663,-0.448059,0.182251,-12.378049,-31.646341,-27.256098
1548434797704,-0.901428,-0.436096,0.178650,-11.707317,-31.585367,-27.256098
1548434797712,-0.899475,-0.429321,0.170410,-10.182927,-31.768293,-27.926830
1548434797726,-0.894592,-0.417603,0.154053,-8.597561,-32.134148,-28.780489
1548434797734,-0.887268,-0.412109,0.138245,-9.146341,-32.865856,-30.060976
1548434797742,-0.881348,-0.408752,0.127563,-12.317074,-33.719513,-32.073170
1548434797756,-0.866760,-0.418945,0.134033,-17.804878,-35.121952,-34.695122
1548434797764,-0.847290,-0.446472,0.148132,-25.914635,-36.280487,-37.560978
1548434797772,-0.828735,-0.439819,0.164612,-34.207317,-37.195122,-40.609756
1548434797786,-0.814148,-0.425415,0.179993,-40.792683,-37.926830,-43.353661
1548434797794,-0.807251,-0.415039,0.209290,-43.536587,-38.475609,-46.341465
1548434797802,-0.802063,-0.414307,0.222473,-39.573174,-39.085365,-49.573174
1548434797817,-0.802063,-0.442993,0.237488,-28.292683,-39.451221,-51.463417
1548434797824,-0.797791,-0.505737,0.257812,-13.902439,-40.000000,-53.109756
1548434797831,-0.785889,-0.567688,0.264771,-1.341463,-39.878048,-54.512196
1548434797846,-0.783997,-0.618713,0.267944,6.707317,-39.817074,-55.060978
1548434797854,-0.789795,-0.667419,0.274597,9.512196,-40.000000,-54.329269
1548434797861,-0.793823,-0.688049,0.282715,6.890244,-40.000000,-52.987804
1548434797876,-0.799927,-0.685425,0.293091,-0.853659,-39.817074,-50.914635
1548434797884,-0.795471,-0.671265,0.322449,-9.329268,-39.146343,-49.024391
1548434797892,-0.793091,-0.634216,0.337524,-13.719513,-38.292683,-47.500000
1548434797906,-0.795105,-0.623535,0.336304,-12.073171,-37.743904,-45.548782
1548434797913,-0.799561,-0.647278,0.343750,-5.243903,-37.317074,-43.902439
1548434797921,-0.798523,-0.672668,0.345032,4.390244,-37.195122,-42.743904
1548434797936,-0.792786,-0.682556,0.326477,11.951220,-36.524391,-41.280487
1548434797944,-0.786865,-0.711121,0.326477,14.939025,-36.036587,-39.512196
1548434797951,-0.777649,-0.737549,0.330811,13.231708,-35.426830,-38.048782
1548434797966,-0.768555,-0.722778,0.318481,6.646342,-34.695122,-36.219513
1548434797973,-0.738953,-0.692261,0.313110,-4.085366,-34.085365,-34.512196
1548434797981,-0.728699,-0.675720,0.330811,-13.902439,-33.353661,-33.536587
1548434797996,-0.760254,-0.653198,0.343384,-19.329269,-35.000000,-34.329269
1548434798003,-0.717712,-0.633667,0.344116,-20.000000,-34.085365,-33.780487
1548434798011,-0.697449,-0.639587,0.357422,-16.768293,-31.341465,-32.987804
1548434798026,-0.698486,-0.651489,0.373779,-11.524390,-31.646341,-34.329269
1548434798033,-0.695923,-0.671448,0.373840,-4.756098,-30.975611,-34.756100
1548434798041,-0.690491,-0.682861,0.350830,0.243902,-29.817074,-35.000000
1548434798056,-0.689087,-0.688843,0.321777,1.585366,-29.512196,-35.365856
1548434798064,-0.687988,-0.699524,0.304138,0.426829,-29.207317,-35.548782
1548434798071,-0.682861,-0.698059,0.309875,-2.682927,-29.085367,-35.914635
1548434798086,-0.672241,-0.709656,0.328308,-7.987805,-29.329269,-36.585365
1548434798093,-0.662720,-0.709961,0.346436,-14.573171,-29.573172,-37.256100
1548434798101,-0.656372,-0.677673,0.363831,-21.036587,-29.573172,-37.378048
1548434798117,-0.649231,-0.655334,0.379028,-23.841463,-29.085367,-37.500000
1548434798123,-0.639160,-0.658447,0.379028,-20.792683,-28.597561,-38.475609
1548434798131,-0.644165,-0.675232,0.373108,-12.317074,-28.292683,-39.268295
1548434798146,-0.644226,-0.692078,0.349915,-2.987805,-28.231709,-39.695122
1548434798153,-0.635315,-0.711548,0.317749,2.439024,-28.292683,-40.243904
1548434798161,-0.629150,-0.737671,0.304504,3.353659,-29.024391,-40.975609
1548434798176,-0.628235,-0.746399,0.305176,0.731707,-30.060976,-41.402439
1548434798183,-0.618408,-0.731995,0.319214,-5.426829,-31.158537,-41.646343
1548434798191,-0.601807,-0.721985,0.354736,-12.317074,-31.890245,-42.134148
1548434798206,-0.586731,-0.720947,0.394043,-18.048780,-32.195122,-43.292683
1548434798214,-0.570496,-0.722900,0.422302,-22.560976,-31.829269,-45.000000
1548434798221,-0.561707,-0.718079,0.426941,-25.792683,-31.097561,-45.426830
1548434798236,-0.552002,-0.709412,0.399719,-26.463415,-29.817074,-45.975613
1548434798244,-0.546143,-0.714172,0.353271,-24.207317,-28.353659,-46.524391
1548434798251,-0.541138,-0.740845,0.304199,-21.524391,-27.560976,-47.256100
1548434798266,-0.535156,-0.778320,0.270569,-20.975611,-27.682928,-48.719513
1548434798273,-0.541199,-0.802490,0.262695,-23.292683,-28.353659,-50.121952
1548434798281,-0.533081,-0.814697,0.289124,-30.426830,-29.207317,-51.280491
1548434798296,-0.505859,-0.810547,0.315796,-40.548782,-29.329269,-52.256100
1548434798303,-0.473206,-0.793823,0.329773,-48.353661,-28.719513,-53.292683
1548434798311,-0.453125,-0.773743,0.350281,-49.634148,-28.170732,-54.878052
1548434798326,-0.443665,-0.766846,0.360596,-43.475613,-27.926830,-56.646343
1548434798333,-0.429688,-0.793213,0.345520,-31.402439,-27.621952,-57.682930
1548434798341,-0.426147,-0.839233,0.324158,-17.134148,-28.048780,-58.231709
1548434798356,-0.420471,-0.884277,0.291504,-6.280488,-29.146341,-58.536587
1548434798363,-0.420898,-0.890686,0.266174,-1.829268,-30.548780,-58.414635
1548434798371,-0.421204,-0.910522,0.268250,-2.560976,-32.073170,-58.231709
1548434798386,-0.417419,-0.924866,0.305786,-5.975610,-33.719513,-58.048782
1548434798393,-0.407104,-0.897644,0.354065,-12.378049,-35.000000,-57.621952
1548434798401,-0.385437,-0.868103,0.404358,-19.634148,-35.426830,-57.378052
1548434798416,-0.363892,-0.866333,0.425232,-22.012196,-35.304878,-56.829269
1548434798424,-0.353516,-0.890137,0.409912,-18.963415,-35.609756,-55.914635
1548434798431,-0.344238,-0.914429,0.383179,-13.048780,-35.914635,-55.060978
1548434798446,-0.330994,-0.928528,0.342773,-6.646342,-36.219513,-54.085365
1548434798454,-0.332825,-0.947754,0.334473,-2.378049,-36.890244,-52.560978
1548434798461,-0.338257,-0.958069,0.342651,-1.524390,-37.682926,-51.341465
1548434798476,-0.334290,-0.946777,0.343628,-5.243903,-38.231709,-50.121952
1548434798484,-0.332031,-0.916870,0.372559,-11.463415,-38.475609,-49.207317
1548434798491,-0.322632,-0.891235,0.417542,-16.341463,-38.414635,-48.719513
1548434798506,-0.293152,-0.882263,0.434570,-18.719513,-37.743904,-48.902439
1548434798514,-0.272400,-0.888794,0.433044,-17.804878,-36.829269,-49.207317
1548434798521,-0.264160,-0.905457,0.423523,-12.987805,-36.158539,-49.268295
1548434798544,-0.249695,-0.912842,0.391174,-5.792683,-35.609756,-49.085365
1548434798544,-0.239380,-0.926819,0.356689,1.829268,-35.060978,-48.292683
1548434798551,-0.235291,-0.949768,0.339600,8.475610,-34.939026,-48.048782
1548434798567,-0.228577,-0.964600,0.343872,13.414635,-35.670734,-47.926830
1548434798574,-0.219177,-0.972351,0.362244,15.548780,-36.280487,-47.256100
1548434798581,-0.214355,-0.958801,0.394714,14.695123,-36.707317,-46.524391
1548434798596,-0.205261,-0.951782,0.428345,13.963415,-36.646343,-46.097561
1548434798604,-0.198425,-0.947388,0.449219,14.451220,-36.402439,-45.487804
1548434798611,-0.190308,-0.973145,0.456543,15.182927,-35.670734,-44.573174
1548434798626,-0.178162,-0.995789,0.446655,14.512196,-34.695122,-43.719513
1548434798634,-0.168030,-0.981506,0.422729,12.378049,-33.597561,-42.743904
1548434798641,-0.169983,-0.959656,0.401001,9.451220,-32.439026,-41.585365
1548434798664,-0.169495,-0.965332,0.399597,8.048780,-31.829269,-40.792683
1548434798664,-0.157593,-0.974060,0.404846,8.048780,-31.585367,-40.670734
1548434798671,-0.149963,-0.970520,0.414124,7.682927,-31.585367,-40.426830
1548434798686,-0.152405,-0.943237,0.450745,6.585366,-31.402439,-40.121952
1548434798694,-0.144714,-0.949280,0.474609,5.548780,-30.914635,-39.756100
1548434798701,-0.128235,-0.982117,0.468811,3.292683,-29.573172,-39.207317
1548434798716,-0.115356,-0.978027,0.459717,-0.182927,-28.353659,-38.780487
1548434798724,-0.100952,-0.959290,0.448853,-4.207317,-26.829269,-38.048782
1548434798731,-0.092590,-0.950989,0.434448,-6.890244,-25.182928,-37.500000
1548434798746,-0.087708,-0.943848,0.418152,-7.073171,-24.085367,-37.560978
1548434798754,-0.082153,-0.934753,0.411133,-6.158537,-23.597561,-37.500000
1548434798761,-0.073853,-0.940430,0.425415,-4.512195,-23.170732,-37.500000
1548434798777,-0.070435,-0.928223,0.436768,-1.951220,-22.804878,-37.682926
1548434798784,-0.066650,-0.915222,0.440491,0.548781,-22.560976,-37.865856
1548434798791,-0.062256,-0.909973,0.464050,2.621951,-22.134148,-38.780487
1548434798806,-0.047607,-0.918945,0.469727,4.085366,-21.463415,-39.451221
1548434798814,-0.031677,-0.945312,0.448975,3.353659,-20.365854,-39.573174
1548434798821,-0.022156,-0.952637,0.423889,1.158537,-19.451220,-39.512196
1548434798836,-0.013550,-0.932373,0.403137,-0.914634,-19.085367,-38.902439
1548434798844,-0.010132,-0.913147,0.390869,-2.439024,-18.841463,-38.658539
1548434798852,-0.003601,-0.904297,0.388367,-2.378049,-19.146341,-39.146343
1548434798866,0.005920,-0.888611,0.394897,-0.853659,-19.878050,-39.695122
1548434798874,0.014221,-0.887146,0.428894,1.646341,-20.365854,-40.243904
1548434798882,0.022156,-0.873474,0.472717,5.182927,-20.792683,-41.524391
1548434798904,0.038635,-0.882080,0.473877,9.573171,-20.487804,-42.256100
1548434798904,0.051208,-0.915833,0.449402,12.134147,-19.390244,-42.560978
1548434798911,0.054077,-0.930725,0.417053,13.414635,-19.085367,-42.743904
1548434798927,0.058899,-0.934570,0.404785,12.134147,-19.146341,-42.317074
1548434798934,0.069153,-0.937256,0.412903,8.963415,-18.536585,-42.317074
1548434798949,0.083984,-0.933838,0.417786,6.036585,-18.109756,-42.865856
1548434798956,0.091797,-0.931335,0.419922,5.000000,-18.048780,-42.987804
1548434798964,0.093567,-0.932739,0.428894,4.695122,-18.170732,-42.560978
1548434798971,0.105896,-0.946655,0.450562,4.695122,-18.170732,-42.256100
1548434798987,0.119568,-0.954651,0.456909,5.548780,-17.439024,-41.524391
1548434798994,0.123169,-0.965881,0.453369,7.865854,-16.890244,-40.243904
1548434799001,0.120728,-0.976807,0.448853,10.792684,-16.524391,-39.085365
1548434799016,0.122925,-0.992004,0.449524,13.109756,-16.280489,-37.682926
1548434799032,0.121155,-1.005188,0.451294,14.207317,-16.219513,-36.280487
1548434799032,0.115723,-0.967773,0.462891,12.560976,-16.036585,-34.573170
1548434799046,0.117188,-0.985962,0.472351,13.597561,-16.524391,-32.256100
1548434799054,0.110352,-1.029236,0.466797,14.878049,-16.646341,-31.768293
1548434799061,0.113220,-1.688843,0.455566,16.524391,-16.707317,-28.414635
1548434799076,0.208862,-1.122620,0.591064,27.012196,-24.207317,-11.707317
1548434799084,0.208130,-1.019287,0.568909,53.719513,-14.939025,24.390244
1548434799091,0.049561,-0.938538,0.494080,45.853661,-7.012195,30.487806
1548434799106,-0.060059,-0.891052,0.506409,33.841465,-5.975610,37.865856
1548434799114,0.115051,-1.008606,0.514404,30.670732,-3.841464,20.182928
1548434799121,0.178894,-0.958862,0.509644,17.804878,-5.060976,-6.890244
1548434799136,0.085022,-0.920654,0.499329,13.597561,-4.634146,-4.695122
1548434799144,0.039856,-0.959534,0.478577,5.670732,-3.841464,2.256098
1548434799151,0.064758,-0.990417,0.456238,-7.500000,-3.231707,-5.060976
1548434799166,0.105103,-0.950684,0.426636,-24.695122,-0.548781,-14.085366
1548434799174,0.132812,-0.892883,0.413513,-40.731709,1.768293,-14.573171
1548434799181,0.129272,-0.782654,0.428528,-44.634148,1.768293,-12.743903
1548434799196,0.194275,-0.997742,0.384460,-40.304878,1.097561,-11.768293
1548434799204,0.185303,-0.914612,0.369873,-30.853659,0.670732,-8.414635
1548434799211,0.147217,-0.792480,0.383728,-15.548780,0.853659,-5.182927
1548434799226,0.182434,-0.784119,0.374023,-19.939024,-1.951220,-2.743902
1548434799234,0.192505,-0.790039,0.369995,-15.914635,-1.768293,-4.634146
1548434799242,0.173828,-0.813293,0.371887,-5.792683,-3.902439,-6.097561
1548434799256,0.162659,-0.870361,0.379395,3.292683,-6.158537,-6.585366
1548434799264,0.175842,-0.901367,0.390747,11.463415,-8.475610,-5.304878
1548434799271,0.182190,-0.914978,0.411133,21.890244,-10.914635,-0.426829
1548434799286,0.164551,-0.923096,0.427246,32.195122,-12.256098,3.170732
1548434799294,0.147888,-0.924011,0.442200,41.219513,-13.353659,4.756098
1548434799302,0.149292,-0.925110,0.462708,45.365856,-13.597561,3.536585
1548434799316,0.153076,-0.927795,0.490601,45.365856,-13.414635,1.158537
1548434799324,0.140320,-0.910889,0.501282,41.707317,-13.109756,-1.158537
1548434799331,0.134888,-0.919983,0.506958,36.829269,-13.109756,-1.829268
1548434799346,0.131409,-0.906250,0.509949,33.841465,-12.317074,-2.500000
1548434799354,0.133545,-0.907349,0.499329,28.353659,-11.646341,-3.658537
1548434799361,0.140259,-0.915955,0.508484,24.024391,-11.524390,-4.573171
1548434799377,0.141724,-0.896301,0.494080,15.853659,-10.121951,-7.134147
1548434799384,0.142334,-0.877686,0.480896,6.158537,-9.878049,-8.353659
1548434799392,0.149109,-0.879028,0.488586,4.024390,-9.207317,-8.292683
1548434799407,0.154419,-0.890381,0.491882,4.207317,-8.170732,-8.597561
1548434799414,0.162720,-0.897705,0.500244,5.182927,-7.439024,-8.231708
1548434799421,0.169556,-0.895203,0.494324,2.500000,-6.219512,-7.195122
1548434799436,0.162476,-0.898132,0.508362,-1.951220,-5.731708,-6.707317
1548434799444,0.166382,-0.860535,0.506165,-7.682927,-5.000000,-6.646342
1548434799451,0.172058,-0.866882,0.518311,-7.500000,-4.207317,-6.524390
1548434799466,0.171265,-0.867310,0.514221,-3.353659,-3.475610,-6.707317
1548434799474,0.166992,-0.849670,0.509644,-1.219512,-3.353659,-6.158537
1548434799482,0.172974,-0.831238,0.503784,-2.012195,-3.353659,-5.975610
1548434799497,0.174622,-0.846191,0.491272,-0.670732,-2.682927,-5.731708
1548434799504,0.170898,-0.880127,0.488220,5.426829,-2.621951,-4.634146
1548434799512,0.193115,-0.901367,0.486511,9.268292,-2.073171,-3.719512
1548434799526,0.178772,-0.896545,0.495483,9.024390,-0.548781,-2.804878
1548434799534,0.158142,-0.892090,0.502869,9.207317,0.121951,-0.182927
1548434799542,0.166931,-0.895691,0.499451,6.829268,-0.121951,-1.036585
1548434799556,0.177002,-0.901855,0.506836,3.414634,-0.792683,-4.878049
1548434799564,0.181519,-0.906433,0.511597,0.609756,-1.280488,-6.951220
1548434799571,0.184143,-0.900757,0.510681,-3.536585,-1.219512,-7.256098
1548434799586,0.178589,-0.887390,0.499390,-8.292683,-1.158537,-6.463415
1548434799594,0.179382,-0.876648,0.480530,-12.317074,-1.097561,-5.975610
1548434799601,0.184021,-0.872375,0.460571,-15.243903,-0.975610,-6.524390
1548434799616,0.185730,-0.859558,0.447571,-15.609756,-0.853659,-6.829268
1548434799624,0.186157,-0.862183,0.440186,-13.353659,-1.097561,-6.585366
1548434799631,0.192200,-0.874146,0.444275,-9.146341,-1.219512,-6.341464
1548434799647,0.191467,-0.878540,0.455200,-4.085366,-1.585366,-6.036585
1548434799654,0.187927,-0.881836,0.473511,0.243902,-2.195122,-5.243903
1548434799661,0.189758,-0.886597,0.481201,3.048780,-2.378049,-4.878049
1548434799676,0.192932,-0.890381,0.485840,3.109756,-2.560976,-5.000000
1548434799684,0.194092,-0.892212,0.492249,1.585366,-2.682927,-4.878049
1548434799691,0.194702,-0.895569,0.492981,-1.158537,-2.804878,-4.329268
1548434799706,0.193481,-0.896973,0.491821,-4.329268,-2.621951,-3.902439
1548434799714,0.194519,-0.893677,0.484436,-7.682927,-2.256098,-3.719512
1548434799722,0.194519,-0.890137,0.473938,-11.097561,-1.951220,-3.414634
1548434799736,0.195801,-0.882874,0.463074,-13.353659,-1.768293,-3.170732
1548434799744,0.195984,-0.878601,0.451538,-14.512196,-1.646341,-2.743902
1548434799751,0.197693,-0.874084,0.440430,-14.390244,-1.768293,-2.317073
1548434799766,0.196289,-0.868530,0.430664,-12.804878,-2.012195,-2.195122
1548434799774,0.196106,-0.869568,0.430664,-9.939025,-2.439024,-2.134146
1548434799781,0.195190,-0.874512,0.432007,-5.548780,-2.926829,-2.439024
1548434799796,0.198303,-0.879639,0.438660,-1.158537,-3.414634,-2.621951
1548434799804,0.199280,-0.878418,0.446350,2.987805,-3.597561,-2.256098
1548434799811,0.195496,-0.881226,0.449585,6.463415,-3.719512,-2.134146
1548434799826,0.198914,-0.886536,0.456421,8.536586,-4.024390,-2.560976
1548434799834,0.198914,-0.890259,0.464966,10.121951,-3.902439,-2.621951
1548434799841,0.198425,-0.890991,0.474487,10.670732,-3.780488,-2.317073
1548434799856,0.200317,-0.889343,0.475403,9.939025,-3.658537,-2.256098
1548434799864,0.202576,-0.887329,0.475281,8.414635,-3.475610,-2.195122
1548434799871,0.200317,-0.883240,0.474365,5.975610,-3.170732,-1.890244
1548434799886,0.197205,-0.872681,0.463318,3.719512,-2.926829,-1.768293
1548434799894,0.199707,-0.874023,0.456848,1.768293,-3.048780,-2.134146
1548434799901,0.204468,-0.875244,0.455261,1.890244,-3.109756,-2.865854
1548434799916,0.205078,-0.880127,0.461426,3.170732,-3.231707,-3.231707
1548434799924,0.201782,-0.881714,0.467529,4.573171,-3.414634,-3.109756
1548434799931,0.202026,-0.882996,0.471069,5.243903,-3.475610,-3.048780
1548434799947,0.207153,-0.887024,0.478638,4.756098,-3.536585,-3.719512
1548434799954,0.209961,-0.889587,0.483276,3.780488,-3.292683,-4.085366
1548434799961,0.213440,-0.882935,0.479309,2.256098,-2.743902,-3.536585
1548434799976,0.212341,-0.879333,0.470764,0.243902,-2.317073,-2.926829
1548434799984,0.213013,-0.875122,0.463379,-1.158537,-1.768293,-2.378049
1548434799991,0.213440,-0.876953,0.459229,-1.646341,-1.463415,-1.707317
1548434800006,0.213745,-0.875122,0.458557,-0.914634,-1.341463,-1.219512
1548434800014,0.212769,-0.874939,0.460876,0.426829,-1.280488,-0.853659
1548434800021,0.212402,-0.877991,0.462524,1.524390,-1.341463,-0.487805
1548434800036,0.211670,-0.877747,0.467834,2.012195,-1.280488,-0.182927
1548434800044,0.211975,-0.878479,0.467163,2.317073,-1.280488,-0.060976
1548434800051,0.210571,-0.877625,0.465698,2.256098,-1.280488,0.121951
1548434800066,0.208557,-0.875122,0.467590,2.134146,-1.219512,0.182927
1548434800074,0.210266,-0.872009,0.464417,2.073171,-1.463415,0.000000
1548434800081,0.209167,-0.874634,0.464172,2.256098,-1.646341,-0.182927
1548434800096,0.208374,-0.878723,0.469116,2.682927,-1.890244,-0.426829
1548434800104,0.209778,-0.875183,0.469482,3.231707,-1.951220,-0.548781
1548434800111,0.216125,-0.880493,0.474304,3.353659,-2.134146,-0.792683
1548434800126,0.209290,-0.876526,0.475098,2.987805,-2.439024,-0.731707
1548434800134,0.205872,-0.873230,0.475281,2.195122,-2.743902,-0.609756
1548434800141,0.208923,-0.876648,0.471008,1.219512,-2.865854,-1.341463
1548434800156,0.214172,-0.878357,0.473206,0.792683,-2.865854,-1.890244
1548434800164,0.213745,-0.876770,0.476074,0.731707,-2.865854,-2.012195
1548434800171,0.211060,-0.874817,0.473572,0.304878,-2.621951,-1.829268
1548434800186,0.214539,-0.875122,0.466492,-0.182927,-2.195122,-1.890244
1548434800194,0.215088,-0.869812,0.461914,-0.365854,-1.951220,-1.890244
1548434800201,0.214783,-0.869934,0.463257,0.000000,-1.890244,-1.707317
1548434800216,0.215271,-0.874634,0.467834,1.036585,-2.012195,-1.707317
1548434800224,0.218201,-0.876648,0.469238,2.378049,-2.195122,-1.646341
1548434800231,0.216736,-0.876892,0.474915,3.353659,-2.012195,-1.524390
1548434800246,0.219604,-0.877014,0.478821,3.231707,-1.890244,-1.158537
1548434800253,0.215393,-0.875549,0.476318,2.743902,-1.707317,-0.914634
1548434800261,0.215210,-0.876465,0.476379,1.707317,-1.585366,-0.548781
1548434800276,0.218689,-0.876953,0.473328,0.792683,-1.219512,-0.426829
1548434800284,0.218201,-0.875671,0.470154,0.304878,-0.975610,-0.121951
1548434800291,0.215942,-0.873291,0.472534,0.243902,-0.792683,0.304878
1548434800306,0.217224,-0.872864,0.469238,0.121951,-0.670732,0.487805
1548434800313,0.214355,-0.867371,0.465088,0.121951,-0.548781,0.548781
1548434800321,0.214844,-0.866272,0.465149,0.426829,-0.609756,0.548781
1548434800336,0.215271,-0.871826,0.466248,1.280488,-0.792683,0.426829
1548434800344,0.213928,-0.873779,0.469421,2.134146,-0.792683,0.304878
1548434800351,0.212891,-0.869568,0.464783,2.926829,-0.853659,0.060976
1548434800366,0.212952,-0.866028,0.463501,3.780488,-0.670732,0.060976
1548434800373,0.220093,-0.884583,0.483276,5.243903,-0.731707,-0.426829
1548434800381,0.222839,-0.895325,0.499939,6.890244,-0.182927,-0.670732
1548434800396,0.219482,-0.898132,0.506775,6.219512,0.853659,0.243902
1548434800403,0.219360,-0.892883,0.506958,2.743902,2.134146,1.585366
1548434800411,0.222656,-0.890808,0.502686,-1.890244,3.536585,2.926829
1548434800426,0.223389,-0.891663,0.498596,-6.524390,4.817073,4.268293
1548434800433,0.223511,-0.885803,0.490051,-10.670732,6.036585,6.097561
1548434800441,0.216125,-0.884827,0.475769,-14.695123,7.317073,8.353659
1548434800456,0.207642,-0.881897,0.468750,-17.195122,7.804878,10.670732
1548434800463,0.206055,-0.878174,0.460815,-17.560976,7.804878,12.134147
1548434800471,0.208191,-0.879150,0.453003,-17.134148,7.743903,12.560976
1548434800486,0.199707,-0.879578,0.456726,-16.219513,7.560976,13.170732
1548434800494,0.198730,-0.884766,0.469421,-14.573171,6.890244,13.719513
1548434800501,0.193115,-0.891479,0.470337,-14.390244,6.280488,13.536586
1548434800516,0.180725,-0.892883,0.475647,-16.463415,6.036585,13.658537
1548434800524,0.178284,-0.894287,0.471191,-18.414635,5.426829,12.987805
1548434800531,0.181763,-0.893311,0.463318,-20.914635,5.182927,10.914635
1548434800546,0.189514,-0.898010,0.454102,-22.865854,5.121951,8.963415
1548434800554,0.182617,-0.888489,0.442566,-23.963415,4.756098,8.231708
1548434800561,0.166199,-0.881165,0.448975,-23.536587,4.329268,8.414635
1548434800576,0.168457,-0.877686,0.464478,-20.000000,4.024390,7.317073
1548434800584,0.175049,-0.879333,0.463318,-14.695123,4.756098,5.121951
1548434800591,0.168091,-0.893616,0.453491,-7.987805,5.182927,3.780488
1548434800606,0.159302,-0.891174,0.466125,-3.902439,5.182927,2.987805
1548434800614,0.149963,-0.870056,0.459534,-3.109756,5.670732,1.646341
1548434800621,0.168030,-0.944641,0.459778,-1.951220,6.524390,-0.487805
1548434800636,0.163574,-0.881104,0.461243,-2.987805,7.439024,-2.073171
1548434800644,0.158813,-0.897034,0.458374,-1.707317,8.292683,-1.280488
1548434800651,0.154419,-0.906433,0.470947,-0.365854,8.475610,-1.951220
1548434800666,0.165039,-0.878479,0.460144,0.914634,8.963415,-1.768293
1548434800673,0.184814,-0.893860,0.449280,5.304878,10.792684,0.365854
1548434800681,0.165894,-0.880737,0.460693,8.292683,10.975610,0.792683
1548434800696,0.177490,-0.909119,0.437500,6.097561,9.939025,-0.792683
1548434800703,0.208740,-0.944031,0.424683,4.207317,10.487805,1.890244
1548434800711,0.181702,-0.868225,0.432983,5.304878,11.829268,0.975610
1548434800726,0.182678,-0.897522,0.430481,3.353659,10.182927,-2.560976
1548434800733,0.199890,-0.911316,0.433533,4.390244,10.060976,-1.829268
1548434800741,0.190186,-0.926453,0.442993,9.268292,10.487805,0.792683
1548434800756,0.186951,-0.941162,0.442932,10.914635,9.329268,1.768293
1548434800764,0.182007,-0.935364,0.442261,9.085366,8.902439,2.804878
1548434800771,0.175354,-0.927307,0.439941,7.073171,8.353659,4.207317
1548434800786,0.165222,-0.941345,0.431824,6.890244,7.987805,5.365854
1548434800794,0.157715,-0.937256,0.438232,6.707317,7.804878,6.707317
1548434800801,0.159424,-0.940063,0.429993,7.195122,7.378049,7.926829
1548434800816,0.151611,-0.938599,0.443298,9.512196,6.768293,9.085366
1548434800824,0.144409,-0.949646,0.460938,11.280488,6.158537,10.365854
1548434800831,0.136963,-0.961487,0.470642,10.731708,6.158537,11.463415
1548434800846,0.129883,-0.956543,0.468933,8.414635,6.402439,12.134147
1548434800854,0.137024,-0.952454,0.465576,5.853659,6.768293,12.926829
1548434800861,0.140015,-0.953247,0.466248,4.695122,7.560976,13.536586
1548434800876,0.134827,-0.952637,0.468384,5.121951,7.926829,14.451220
1548434800884,0.129578,-0.957520,0.481201,5.731708,8.231708,15.853659
1548434800891,0.125366,-0.958069,0.486572,4.695122,8.658537,16.829269
1548434800906,0.123901,-0.943909,0.484863,2.682927,9.207317,17.560976
1548434800913,0.125854,-0.935913,0.482605,0.914634,10.000000,19.085367
1548434800921,0.122620,-0.945740,0.475586,-0.365854,10.731708,19.695122
1548434800936,0.121704,-0.934204,0.472656,-1.036585,11.097561,20.000000
1548434800944,0.121399,-0.925781,0.472412,-0.731707,11.158537,21.463415
1548434800951,0.116394,-0.927063,0.469482,-0.609756,11.158537,22.012196
1548434800966,0.112366,-0.928467,0.467957,-0.243902,10.914635,22.317074
1548434800974,0.107666,-0.923767,0.469910,0.426829,10.731708,23.109756
1548434800982,0.102844,-0.924255,0.471069,1.402439,10.609756,23.658537
1548434800996,0.101257,-0.926331,0.473145,2.012195,10.609756,23.963415
1548434801004,0.093140,-0.924500,0.475708,2.682927,10.731708,24.756098
1548434801011,0.087280,-0.922485,0.477539,2.621951,11.036586,25.365854
1548434801034,0.084290,-0.919006,0.476562,2.012195,11.341464,25.914635
1548434801035,0.084656,-0.919556,0.478882,1.280488,11.768293,26.280489
1548434801042,0.082214,-0.915527,0.474548,0.853659,12.195122,26.646341
1548434801056,0.074280,-0.913696,0.476318,0.731707,12.621951,26.951220
1548434801064,0.065552,-0.920471,0.479065,0.914634,12.926829,27.134148
1548434801072,0.060730,-0.918579,0.483154,1.341463,13.231708,27.682928
1548434801086,0.056274,-0.918030,0.481812,1.829268,13.414635,28.231709
1548434801095,0.052063,-0.918945,0.482117,2.378049,13.841464,28.597561
1548434801102,0.037415,-0.923950,0.491455,2.621951,14.024390,29.024391
1548434801124,0.028687,-0.920898,0.502625,2.621951,14.024390,29.573172
1548434801124,0.025574,-0.912659,0.507812,2.378049,14.451220,30.304878
1548434801131,0.019043,-0.918640,0.510254,2.256098,15.060976,30.792685
1548434801147,0.010010,-0.927368,0.515564,3.292683,15.548780,31.158537
1548434801154,0.005005,-0.930969,0.519775,4.878049,16.097561,32.073170
1548434801162,0.000061,-0.929077,0.515381,5.853659,16.768293,32.926830
1548434801177,-0.006226,-0.932556,0.509949,6.280488,17.500000,33.597561
1548434801184,-0.012756,-0.939819,0.516602,6.646342,18.109756,34.268295
1548434801191,-0.021423,-0.948853,0.525818,7.012195,18.841463,35.121952
1548434801206,-0.029846,-0.948303,0.534180,6.158537,19.878050,36.280487
1548434801214,-0.037659,-0.937012,0.536499,4.695122,21.036587,37.317074
1548434801221,-0.045837,-0.927429,0.530457,3.353659,22.500000,38.170734
1548434801236,-0.054565,-0.919739,0.525024,2.134146,23.780489,38.902439
1548434801244,-0.060608,-0.919189,0.528870,2.073171,24.756098,39.512196
1548434801252,-0.067444,-0.924500,0.535706,3.780488,25.365854,40.121952
1548434801267,-0.079041,-0.932556,0.532532,5.731708,26.036587,40.548782
1548434801274,-0.087952,-0.943359,0.530151,6.768293,26.768293,41.036587
1548434801289,-0.093323,-0.953491,0.525757,6.585366,27.743902,41.524391
1548434801296,-0.098389,-0.940796,0.514404,5.426829,28.780489,42.256100
1548434801311,-0.100891,-0.932556,0.495667,4.024390,29.939026,43.048782
1548434801312,-0.109070,-0.921387,0.485352,2.743902,30.853659,43.292683
1548434801327,-0.116882,-0.908752,0.482422,2.743902,30.792685,44.146343
1548434801334,-0.121460,-0.912048,0.482178,2.500000,30.792685,44.695122
1548434801342,-0.128479,-0.927124,0.483521,1.829268,31.036587,44.939026
1548434801356,-0.142395,-0.931152,0.485779,1.097561,31.219513,45.609756
1548434801364,-0.151855,-0.925110,0.486389,0.121951,31.524391,46.524391
1548434801371,-0.158264,-0.912903,0.492126,-0.914634,32.073170,47.134148
1548434801387,-0.168640,-0.911316,0.487610,-0.304878,32.560978,47.743904
1548434801395,-0.185974,-0.909424,0.477905,1.768293,32.682926,48.353661
1548434801402,-0.199829,-0.904358,0.469360,3.475610,32.073170,48.536587
1548434801417,-0.202576,-0.909241,0.469177,4.268293,31.585367,48.597561
1548434801424,-0.208679,-0.906433,0.467407,4.817073,31.463415,48.902439
1548434801432,-0.220459,-0.890747,0.466980,5.792683,31.280489,49.634148
1548434801447,-0.235535,-0.884827,0.471619,6.097561,31.036587,50.182926
1548434801454,-0.241760,-0.880127,0.476868,5.182927,31.036587,49.939026
1548434801462,-0.248413,-0.879639,0.478210,3.902439,31.341465,49.817074
1548434801477,-0.258728,-0.887024,0.480774,3.902439,31.524391,50.304878
1548434801484,-0.267029,-0.880127,0.473389,4.695122,31.585367,50.548782
1548434801492,-0.275879,-0.871216,0.463257,4.939024,31.768293,50.670734
1548434801507,-0.290283,-0.859985,0.451965,4.817073,31.951220,50.731709
1548434801515,-0.301819,-0.844421,0.432556,5.182927,31.585367,50.487804
1548434801522,-0.315430,-0.837402,0.422913,4.268293,31.097561,49.634148
1548434801536,-0.328247,-0.832947,0.419312,1.036585,30.304878,48.414635
1548434801544,-0.334167,-0.816040,0.415588,-3.963415,29.695122,47.500000
1548434801552,-0.339172,-0.800293,0.425049,-9.817074,29.024391,46.158539
1548434801567,-0.342407,-0.787720,0.445679,-14.329268,28.475611,44.817074
1548434801574,-0.340820,-0.774109,0.451538,-15.000000,28.170732,43.414635
1548434801582,-0.346252,-0.764221,0.457703,-11.341464,27.621952,42.378048
1548434801596,-0.357117,-0.776550,0.453308,-4.024390,27.317074,41.219513
1548434801604,-0.365234,-0.801025,0.435486,2.926829,27.012196,39.817074
1548434801612,-0.380493,-0.819336,0.420593,5.975610,26.951220,38.658539
1548434801627,-0.394714,-0.829163,0.414124,5.121951,26.829269,37.926830
1548434801634,-0.400085,-0.838074,0.418823,2.439024,26.707317,37.682926
1548434801642,-0.410400,-0.826477,0.428711,1.402439,26.402439,37.987804
1548434801657,-0.428589,-0.802979,0.443054,1.646341,25.731709,38.536587
1548434801664,-0.442383,-0.810364,0.455933,2.317073,25.182928,38.597561
1548434801671,-0.450623,-0.833618,0.465698,3.902439,24.817074,38.414635
1548434801686,-0.455872,-0.844482,0.473694,5.853659,24.634148,38.536587
1548434801694,-0.463501,-0.849854,0.481018,6.524390,24.695122,39.512196
1548434801702,-0.475037,-0.846008,0.476990,7.378049,25.304878,40.487804
1548434801716,-0.484863,-0.826660,0.471497,8.780488,25.731709,41.585365
1548434801724,-0.494690,-0.814087,0.459900,9.146341,26.280489,42.682926
1548434801731,-0.509827,-0.810669,0.448242,8.292683,26.646341,43.292683
1548434801746,-0.519348,-0.803650,0.449829,7.560976,27.073172,43.780487
1548434801754,-0.526001,-0.794250,0.451965,7.439024,27.804878,44.024391
1548434801762,-0.529541,-0.784729,0.445007,7.500000,28.597561,44.390244
1548434801776,-0.531555,-0.781128,0.447083,7.926829,29.390245,44.329269
1548434801784,-0.530518,-0.768738,0.445557,8.292683,30.487806,44.024391
1548434801791,-0.530334,-0.774231,0.442444,7.743903,31.463415,43.414635
1548434801806,-0.535156,-0.782715,0.438721,7.073171,32.378048,42.500000
1548434801814,-0.542114,-0.777283,0.424011,6.768293,33.231709,42.134148
1548434801821,-0.547729,-0.780334,0.414307,5.365854,34.207317,41.829269
1548434801836,-0.552795,-0.779663,0.402039,2.621951,35.243904,40.914635
1548434801845,-0.559204,-0.763550,0.392090,-0.975610,35.853661,40.365856
1548434801852,-0.567627,-0.749207,0.380249,-3.841464,36.219513,40.243904
1548434801867,-0.574890,-0.732666,0.364014,-5.487805,36.341465,39.939026
1548434801874,-0.590820,-0.724731,0.355103,-6.036585,35.914635,39.390244
1548434801881,-0.605347,-0.727295,0.352783,-6.097561,35.182926,38.536587
1548434801896,-0.609619,-0.724243,0.359375,-6.219512,34.390244,37.987804
1548434801904,-0.610657,-0.720825,0.373657,-6.341464,33.963417,37.621952
1548434801911,-0.611938,-0.718201,0.392395,-5.365854,33.719513,37.378048
1548434801927,-0.620911,-0.728455,0.402344,-3.414634,33.414635,37.195122
1548434801934,-0.625854,-0.725891,0.409607,-2.500000,33.414635,36.890244
1548434801941,-0.627563,-0.707581,0.398621,-2.073171,33.597561,37.621952
1548434801956,-0.634277,-0.677368,0.372559,-3.780488,33.658539,38.231709
1548434801964,-0.646606,-0.678833,0.336182,-5.914634,33.414635,38.353661
1548434801972,-0.657593,-0.703064,0.307739,-4.756098,33.292683,38.597561
1548434801986,-0.671875,-0.725098,0.296692,0.487805,32.317074,39.939026
1548434801994,-0.682922,-0.721130,0.294983,5.975610,30.914635,41.524391
1548434802001,-0.695190,-0.700806,0.305725,8.536586,29.695122,42.621952
1548434802016,-0.706421,-0.688599,0.322388,8.902439,28.963415,43.109756
1548434802024,-0.715576,-0.682617,0.331848,9.268292,28.109756,43.353661
1548434802031,-0.721985,-0.684021,0.337769,9.207317,27.987806,43.841465
1548434802046,-0.722412,-0.681946,0.334595,7.987805,27.987806,43.963417
1548434802054,-0.721375,-0.660278,0.320557,5.243903,28.475611,44.024391
1548434802061,-0.726196,-0.651917,0.304321,1.341463,29.329269,43.780487
1548434802076,-0.734436,-0.647339,0.295410,-2.804878,29.939026,42.804878
1548434802084,-0.742188,-0.637207,0.292297,-5.853659,30.304878,42.012196
1548434802091,-0.744934,-0.627563,0.298828,-6.707317,30.548780,41.585365
1548434802106,-0.744141,-0.606079,0.285095,-4.024390,30.548780,41.341465
1548434802114,-0.747131,-0.592346,0.266907,1.036585,30.487806,41.158539
1548434802121,-0.759827,-0.603821,0.255127,6.280488,30.243902,40.365856
1548434802136,-0.769165,-0.608093,0.243225,8.475610,29.512196,39.024391
1548434802144,-0.778625,-0.614685,0.246643,5.182927,29.207317,37.987804
1548434802151,-0.780029,-0.611389,0.249878,-2.134146,28.902439,36.768295
1548434802166,-0.783752,-0.583130,0.247742,-11.036586,28.780489,35.792683
1548434802173,-0.788330,-0.562134,0.258789,-18.475611,28.780489,35.060978
1548434802181,-0.787964,-0.545105,0.268799,-20.853659,28.475611,34.146343
1548434802196,-0.790039,-0.525879,0.266602,-18.475611,27.987806,33.841465
1548434802203,-0.796936,-0.517517,0.265015,-13.780488,27.682928,33.292683
1548434802211,-0.801514,-0.521484,0.259399,-7.560976,27.621952,31.951220
1548434802226,-0.808105,-0.528748,0.247925,0.060976,27.256098,31.463415
1548434802234,-0.816467,-0.579102,0.245117,6.036585,26.951220,30.914635
1548434802241,-0.819214,-0.602966,0.236511,10.000000,26.890245,30.121952
1548434802256,-0.825012,-0.591492,0.228882,10.792684,26.524391,30.914635
1548434802264,-0.834839,-0.598022,0.231873,8.353659,26.585367,31.524391
1548434802271,-0.837402,-0.591370,0.233643,4.085366,26.158537,31.646341
1548434802286,-0.841858,-0.576538,0.238037,-0.121951,26.036587,32.621952
1548434802293,-0.848633,-0.567749,0.243774,-2.987805,25.975611,33.597561
1548434802301,-0.854919,-0.541504,0.234436,-3.719512,25.731709,34.451221
1548434802316,-0.862793,-0.518860,0.225464,-2.621951,25.548780,35.548782
1548434802324,-0.867432,-0.517517,0.214661,-0.121951,25.548780,35.914635
1548434802331,-0.871887,-0.521606,0.203491,3.231707,25.609756,36.219513
1548434802346,-0.880493,-0.527527,0.198608,5.853659,25.426830,36.707317
1548434802353,-0.881897,-0.528625,0.184326,5.548780,25.487806,36.707317
1548434802361,-0.879395,-0.518982,0.169739,1.951220,25.670732,36.463417
1548434802376,-0.877258,-0.504150,0.167175,-4.695122,25.731709,36.097561
1548434802384,-0.877441,-0.498291,0.166809,-12.134147,25.853659,34.817074
1548434802391,-0.877441,-0.480774,0.155396,-16.524391,25.548780,34.268295
1548434802406,-0.885315,-0.462891,0.147339,-18.109756,24.939026,33.841465
1548434802414,-0.885986,-0.453430,0.143066,-17.378050,24.817074,32.743904
1548434802421,-0.887451,-0.449463,0.136292,-15.182927,24.634148,31.768293
1548434802436,-0.893250,-0.443726,0.138245,-12.560976,24.268293,30.914635
1548434802444,-0.890808,-0.440735,0.138916,-9.695122,24.146341,30.060976
1548434802451,-0.893616,-0.438904,0.136353,-6.524390,24.024391,29.939026
1548434802466,-0.901917,-0.449768,0.128601,-3.841464,23.658537,29.573172
1548434802474,-0.907776,-0.456665,0.122559,-1.585366,23.231709,29.146341
1548434802481,-0.913025,-0.474792,0.125610,0.548781,22.926830,29.329269
1548434802496,-0.915344,-0.492004,0.127197,2.439024,22.682928,29.329269
1548434802504,-0.921021,-0.492798,0.134155,4.146341,22.378050,30.060976
1548434802511,-0.928955,-0.502747,0.138245,5.182927,22.073172,31.097561
1548434802526,-0.939087,-0.499084,0.136292,5.487805,22.012196,32.134148
1548434802533,-0.945801,-0.497986,0.136230,3.658537,22.012196,33.414635
1548434802541,-0.946472,-0.488525,0.131042,0.792683,22.378050,34.634148
1548434802556,-0.949768,-0.465942,0.120361,-2.500000,22.682928,36.524391
1548434802563,-0.955017,-0.451050,0.106750,-5.853659,22.804878,38.536587
1548434802571,-0.960083,-0.441101,0.099304,-9.268292,22.987806,39.817074
1548434802586,-0.962646,-0.424927,0.085632,-12.621951,23.109756,41.280487
1548434802593,-0.961060,-0.406494,0.074768,-15.731708,23.048780,42.500000
1548434802601,-0.962463,-0.399170,0.064331,-17.926830,22.987806,43.170734
1548434802616,-0.961060,-0.378967,0.055420,-18.597561,22.804878,43.475613
1548434802623,-0.964050,-0.360413,0.047607,-18.658537,22.439024,43.414635
1548434802631,-0.967712,-0.339661,0.040039,-19.329269,22.073172,42.500000
1548434802646,-0.963257,-0.319519,0.032715,-20.121952,21.646341,42.073174
1548434802653,-0.962280,-0.315857,0.028564,-19.085367,21.219513,42.743904
1548434802661,-0.963806,-0.306213,0.019897,-18.902439,20.914635,41.219513
1548434802676,-0.961914,-0.282043,0.009949,-19.878050,20.548780,39.512196
1548434802684,-0.960144,-0.279785,0.005432,-21.219513,20.060976,38.109756
1548434802691,-0.969055,-0.259338,0.010010,-21.890244,19.390244,36.646343
1548434802706,-0.968384,-0.224854,0.006470,-20.426830,18.719513,34.939026
1548434802714,-0.961548,-0.221130,-0.000916,-18.109756,17.682928,32.500000
1548434802721,-0.960693,-0.222961,0.002930,-15.182927,16.402439,29.878050
1548434802736,-0.969116,-0.227539,0.000183,-12.378049,15.243903,27.987806
1548434802744,-0.972656,-0.210327,-0.004211,-9.146341,14.268293,26.463415
1548434802751,-0.974243,-0.207764,-0.004150,-5.792683,13.109756,25.548780
1548434802766,-0.984192,-0.208679,-0.002197,-5.548780,11.768293,22.560976
1548434802774,-0.991577,-0.204590,0.003601,-4.817073,10.365854,20.304878
1548434802781,-0.997131,-0.193665,0.009521,-3.231707,9.024390,18.841463
1548434802796,-1.003479,-0.180237,0.016663,0.609756,7.256098,17.439024
1548434802803,-1.012573,-0.182251,0.026245,6.524390,5.243903,15.975610
1548434802811,-1.021301,-0.197388,0.038940,13.597561,3.292683,14.512196
1548434802826,-1.025330,-0.211792,0.045044,20.304878,1.768293,13.658537
1548434802833,-1.024048,-0.214722,0.051086,24.939026,0.853659,13.475610
1548434802841,-1.019836,-0.217957,0.050720,27.439026,0.243902,13.658537
1548434802856,-1.016846,-0.220642,0.049988,28.536587,-0.121951,13.658537
1548434802863,-1.018066,-0.237976,0.048218,28.719513,-0.487805,13.475610
1548434802871,-1.015259,-0.255493,0.040955,27.500000,-0.426829,13.109756
1548434802886,-1.007874,-0.243164,0.026489,24.024391,-0.060976,12.865854
1548434802893,-1.003052,-0.209045,0.009644,19.512196,0.243902,12.926829
1548434802901,-1.002319,-0.197632,-0.000977,15.792684,0.548781,11.829268
1548434802916,-0.996033,-0.214294,-0.002258,14.756098,0.975610,9.817074
1548434802924,-0.993408,-0.227539,-0.002319,16.585365,1.280488,8.780488
1548434802931,-0.991516,-0.236389,-0.003540,18.536585,1.768293,7.500000
1548434802946,-0.988586,-0.258423,-0.007507,19.695122,2.560976,5.792683
1548434802953,-0.987854,-0.268738,-0.008484,20.304878,3.231707,3.963415
1548434802961,-0.984680,-0.276306,-0.007385,20.243902,3.841464,2.500000
1548434802976,-0.983093,-0.282959,-0.009705,19.024391,4.512195,1.280488
1548434802983,-0.981262,-0.291931,-0.015930,16.158537,5.000000,-0.304878
1548434802991,-0.978271,-0.290161,-0.018066,12.500000,5.365854,-1.951220
1548434803006,-0.975891,-0.284058,-0.017029,8.780488,5.731708,-3.353659
1548434803013,-0.976868,-0.276001,-0.023621,6.280488,6.036585,-4.756098
1548434803021,-0.982849,-0.261414,-0.029663,5.792683,5.731708,-6.036585
1548434803036,-0.983826,-0.263611,-0.032471,6.036585,5.243903,-7.682927
1548434803043,-0.986694,-0.279419,-0.036255,7.073171,4.817073,-9.268292
1548434803051,-0.991272,-0.287231,-0.036560,7.926829,4.085366,-10.000000
1548434803066,-0.994995,-0.291382,-0.034363,7.439024,3.353659,-10.548780
1548434803074,-0.998230,-0.294189,-0.034119,5.853659,2.743902,-11.097561
1548434803081,-1.000488,-0.292847,-0.026245,3.841464,2.012195,-11.219512
1548434803096,-1.003723,-0.294556,-0.022949,2.500000,1.097561,-11.036586
1548434803103,-1.008850,-0.284180,-0.021667,1.341463,0.060976,-10.670732
1548434803111,-1.010254,-0.283997,-0.013000,-0.365854,-0.975610,-10.365854
1548434803126,-1.010376,-0.287537,-0.010071,-1.768293,-1.646341,-10.304878
1548434803133,-1.009705,-0.279846,-0.007629,-2.317073,-2.682927,-10.182927
1548434803141,-1.011353,-0.272888,-0.011047,-2.439024,-3.658537,-10.000000
1548434803156,-1.012756,-0.264160,-0.014282,-2.134146,-4.146341,-9.817074
1548434803163,-1.012085,-0.288330,-0.009827,-1.158537,-4.695122,-9.756098
1548434803171,-1.010742,-0.306458,-0.003235,0.426829,-5.000000,-9.878049
1548434803186,-1.008118,-0.282959,-0.001831,1.097561,-5.121951,-9.573171
1548434803193,-1.005798,-0.274170,-0.001953,0.548781,-5.000000,-9.085366
1548434803201,-1.000610,-0.288147,0.002686,0.121951,-4.939024,-9.634147
1548434803216,-0.995422,-0.300354,0.004211,0.426829,-4.939024,-10.243902
1548434803223,-1.001526,-0.293457,0.006775,0.304878,-4.878049,-10.000000
1548434803231,-0.998047,-0.277649,0.011047,0.182927,-5.060976,-10.304878
1548434803246,-0.984131,-0.291992,0.007202,-0.426829,-4.817073,-11.280488
1548434803254,-0.985291,-0.307556,0.013977,-0.670732,-5.060976,-12.500000
1548434803261,-0.990051,-0.299744,0.013367,-0.426829,-5.365854,-12.560976
1548434803276,-0.986816,-0.287292,0.011169,-0.609756,-5.731708,-12.439025
1548434803283,-0.983398,-0.278992,0.007812,-0.426829,-6.402439,-12.804878
1548434803291,-0.987732,-0.272949,0.009766,0.792683,-7.195122,-13.292684
1548434803306,-0.991577,-0.268311,0.013550,2.621951,-8.109756,-13.780488
1548434803313,-0.992004,-0.270325,0.023926,5.000000,-9.329268,-14.085366
1548434803321,-0.990479,-0.281921,0.032898,7.439024,-10.304878,-14.634147
1548434803336,-0.991455,-0.285095,0.036377,9.573171,-11.036586,-15.182927
1548434803344,-0.990356,-0.291016,0.039856,10.487805,-11.829268,-15.609756
1548434803351,-0.985046,-0.306641,0.044861,10.426829,-12.439025,-15.975610
1548434803366,-0.975159,-0.319092,0.044312,9.756098,-12.621951,-16.341463
1548434803374,-0.979919,-0.321533,0.044373,8.109756,-13.231708,-16.341463
1548434803381,-0.983459,-0.311646,0.046326,5.975610,-14.085366,-16.280489
1548434803396,-0.976196,-0.305603,0.045227,4.268293,-13.963415,-16.646341
1548434803403,-0.962952,-0.325684,0.045776,2.987805,-14.024390,-17.012196
1548434803411,-0.968018,-0.341980,0.050110,3.475610,-14.207317,-17.743902
1548434803426,-0.970703,-0.344666,0.057495,5.670732,-14.573171,-17.378050
1548434803434,-0.964050,-0.360413,0.063416,8.048780,-14.817074,-17.378050
1548434803441,-0.962341,-0.374207,0.067871,10.365854,-14.695123,-18.109756
1548434803456,-0.963562,-0.380066,0.070190,11.951220,-14.512196,-18.048780
1548434803463,-0.965332,-0.389832,0.070190,11.951220,-14.146341,-17.865854
1548434803471,-0.961609,-0.410156,0.072998,10.243902,-13.902439,-17.987804
1548434803486,-0.960449,-0.411682,0.076416,7.560976,-13.414635,-18.109756
1548434803494,-0.963501,-0.397827,0.074036,4.268293,-13.109756,-17.560976
1548434803501,-0.966248,-0.399536,0.074951,0.975610,-12.743903,-17.439024
1548434803516,-0.966370,-0.403625,0.077881,-0.914634,-12.012196,-17.560976
1548434803523,-0.966370,-0.397522,0.077271,-1.280488,-11.707317,-17.317074
1548434803531,-0.968872,-0.393250,0.076172,-0.853659,-11.829268,-17.073172
1548434803546,-0.970398,-0.399780,0.081177,-0.365854,-11.829268,-16.951220
1548434803553,-0.968750,-0.410217,0.081299,0.243902,-11.646341,-16.951220
1548434803562,-0.967346,-0.411011,0.078857,1.036585,-11.707317,-16.524391
1548434803577,-0.968689,-0.411743,0.078247,1.524390,-11.890244,-15.792684
1548434803584,-0.969849,-0.419739,0.083801,1.036585,-11.829268,-15.121951
1548434803591,-0.965515,-0.422180,0.088318,-0.182927,-11.829268,-14.573171
1548434803606,-0.963013,-0.416260,0.089600,-1.829268,-12.073171,-14.085366
1548434803614,-0.961304,-0.410828,0.090088,-3.658537,-12.195122,-13.536586
1548434803621,-0.959534,-0.412476,0.094116,-5.060976,-12.256098,-13.292684
1548434803636,-0.956726,-0.409912,0.094910,-5.914634,-12.317074,-13.170732
1548434803644,-0.955017,-0.399719,0.090637,-6.280488,-12.378049,-12.987805
1548434803651,-0.951599,-0.395630,0.090027,-6.036585,-12.560976,-13.109756
1548434803666,-0.947083,-0.408447,0.093628,-5.304878,-12.682927,-13.170732
1548434803674,-0.944641,-0.410278,0.094543,-4.939024,-12.682927,-13.536586
1548434803681,-0.945068,-0.411194,0.096924,-5.609756,-13.048780,-13.719513
1548434803696,-0.942505,-0.417664,0.101746,-7.256098,-13.170732,-14.146341
1548434803704,-0.939392,-0.410828,0.099915,-8.658537,-13.353659,-14.695123
1548434803711,-0.935303,-0.406494,0.098450,-9.329268,-13.658537,-15.000000
1548434803726,-0.932129,-0.411255,0.101318,-9.207317,-13.963415,-15.548780
1548434803734,-0.933105,-0.418518,0.106262,-8.170732,-14.207317,-16.036585
1548434803741,-0.934326,-0.421265,0.111389,-7.317073,-14.573171,-16.585365
1548434803756,-0.933167,-0.416321,0.111633,-6.707317,-15.000000,-16.951220
1548434803764,-0.930969,-0.419067,0.113953,-6.402439,-15.426829,-17.134148
1548434803771,-0.931152,-0.421204,0.117371,-6.280488,-15.670732,-17.682928
1548434803786,-0.929932,-0.418701,0.119446,-5.914634,-15.975610,-18.231709
1548434803794,-0.927551,-0.424438,0.123291,-5.487805,-16.341463,-18.475611
1548434803802,-0.927124,-0.428528,0.123901,-4.939024,-16.707317,-18.902439
1548434803816,-0.925659,-0.423950,0.123169,-4.146341,-17.012196,-19.268293
1548434803824,-0.923584,-0.426331,0.131226,-3.780488,-17.073172,-19.939024
1548434803831,-0.919373,-0.443481,0.139954,-3.658537,-17.195122,-20.792683
1548434803846,-0.914246,-0.452942,0.140869,-3.170732,-17.256098,-21.402439
1548434803854,-0.913818,-0.444153,0.139038,-2.743902,-17.439024,-21.646341
1548434803862,-0.911987,-0.436646,0.137024,-2.865854,-17.743902,-21.951220
1548434803876,-0.912048,-0.436279,0.137695,-3.719512,-17.865854,-22.560976
1548434803884,-0.908081,-0.438293,0.143372,-4.268293,-18.048780,-23.658537
1548434803891,-0.903870,-0.441528,0.153992,-3.658537,-18.292683,-24.329269
1548434803907,-0.901978,-0.443665,0.161377,-0.975610,-18.658537,-24.695122
1548434803914,-0.900818,-0.445007,0.161804,3.109756,-18.963415,-25.182928
1548434803921,-0.902771,-0.452759,0.163757,7.560976,-19.390244,-25.365854
1548434803936,-0.902161,-0.462891,0.174683,12.012196,-19.817074,-26.036587
1548434803944,-0.894531,-0.485596,0.185608,15.853659,-20.060976,-27.012196
1548434803951,-0.890503,-0.504578,0.199890,19.268293,-20.060976,-27.012196
1548434803966,-0.889465,-0.529724,0.226379,21.097561,-19.939024,-26.951220
1548434803974,-0.883301,-0.556580,0.246887,21.524391,-19.329269,-27.256098
1548434803982,-0.875793,-0.560547,0.252319,21.768293,-18.597561,-26.768293
1548434803997,-0.871338,-0.554443,0.240723,20.487804,-17.987804,-25.609756
1548434804004,-0.867859,-0.551331,0.230652,17.012196,-16.829269,-24.878050
1548434804011,-0.873474,-0.548889,0.226929,12.926829,-15.914635,-24.512196
1548434804027,-0.873779,-0.539978,0.222229,11.097561,-15.182927,-24.085367
1548434804034,-0.871887,-0.541199,0.220764,10.792684,-14.512196,-23.231709
1548434804042,-0.862793,-0.548828,0.220337,11.646341,-13.902439,-23.170732
1548434804057,-0.861145,-0.553345,0.222717,13.231708,-13.414635,-22.804878
1548434804064,-0.865906,-0.559448,0.223877,14.817074,-13.170732,-22.621952
1548434804072,-0.866028,-0.570007,0.221863,15.670732,-12.926829,-22.378050
1548434804087,-0.862976,-0.579407,0.219238,15.365854,-12.621951,-22.378050
1548434804094,-0.859314,-0.577576,0.217590,13.414635,-12.256098,-22.073172
1548434804101,-0.857727,-0.565796,0.210938,9.573171,-11.768293,-21.585367
1548434804117,-0.853821,-0.551697,0.201111,4.512195,-11.585366,-21.646341
1548434804125,-0.849365,-0.542419,0.198303,-0.609756,-11.707317,-21.768293
1548434804132,-0.842896,-0.541992,0.197815,-4.207317,-11.890244,-22.317074
1548434804147,-0.834106,-0.543823,0.201111,-5.243903,-12.317074,-22.987806
1548434804154,-0.829407,-0.552185,0.211243,-4.146341,-12.743903,-23.353659
1548434804163,-0.824524,-0.572693,0.223755,-2.317073,-13.231708,-23.902439
1548434804176,-0.820068,-0.579651,0.224854,-0.914634,-13.719513,-24.634148
1548434804184,-0.817993,-0.582825,0.223633,-0.426829,-13.963415,-24.573172
1548434804191,-0.818848,-0.588196,0.218140,-1.036585,-14.207317,-24.756098
1548434804206,-0.813782,-0.581604,0.208801,-2.621951,-14.695123,-25.060976
1548434804213,-0.812439,-0.585999,0.211670,-5.182927,-15.060976,-25.182928
1548434804221,-0.810303,-0.591919,0.219971,-8.414635,-15.731708,-25.670732
1548434804236,-0.805664,-0.591248,0.232666,-10.731708,-16.158537,-25.914635
1548434804266,-0.803162,-0.592896,0.256714,-11.341464,-16.280489,-25.975611
1548434804266,-0.794006,-0.607544,0.274353,-9.573171,-16.341463,-26.280489
1548434804266,-0.788452,-0.619446,0.277588,-6.524390,-16.341463,-26.402439
1548434804327,-0.789612,-0.649170,0.289734,-4.268293,-15.914635,-26.341463
1548434804338,-0.789246,-0.702393,0.291748,-5.548780,-15.426829,-26.097561
1548434804350,-0.786804,-0.725159,0.279846,-12.621951,-14.573171,-25.792683
1548434804351,-0.789978,-0.725342,0.266235,-24.085367,-13.231708,-24.512196
1548434804351,-0.794434,-0.713440,0.254944,-37.500000,-11.890244,-22.865854
1548434804352,-0.793518,-0.680115,0.248169,-49.451221,-10.670732,-21.585367
1548434804352,-0.790649,-0.638428,0.241638,-55.975613,-9.390244,-20.731709
1548434804352,-0.789856,-0.605530,0.236145,-54.573174,-8.719512,-20.487804
1548434804356,-0.788269,-0.592285,0.238159,-45.670734,-8.963415,-20.792683
1548434804368,-0.783752,-0.600281,0.235840,-32.317074,-9.451220,-21.341463
1548434804375,-0.785645,-0.607971,0.226501,-19.268293,-9.939025,-22.012196
1548434804386,-0.786011,-0.613831,0.219727,-9.390244,-10.365854,-22.195122
1548434804394,-0.780701,-0.638184,0.222229,-3.231707,-10.487805,-22.439024
1548434804409,-0.771423,-0.658630,0.219849,-0.182927,-10.426829,-22.865854
1548434804416,-0.765320,-0.661987,0.219666,0.121951,-10.731708,-22.804878
1548434804424,-0.759766,-0.678650,0.238586,-1.890244,-10.914635,-22.743902
1548434804431,-0.746399,-0.681274,0.248413,-4.878049,-10.975610,-23.231709
1548434804446,-0.735291,-0.664185,0.246704,-7.256098,-10.914635,-23.170732
1548434804454,-0.733459,-0.665283,0.248657,-8.963415,-10.792684,-23.292683
1548434804461,-0.727966,-0.662659,0.249023,-9.329268,-11.158537,-24.085367
1548434804476,-0.715820,-0.651917,0.242798,-7.500000,-11.158537,-24.512196
1548434804483,-0.716309,-0.650452,0.235779,-3.841464,-10.914635,-24.512196
1548434804491,-0.727173,-0.655579,0.218628,0.548781,-11.341464,-24.939026
1548434804506,-0.728760,-0.653625,0.206360,4.024390,-11.829268,-25.853659
1548434804513,-0.722046,-0.659180,0.202454,5.060976,-11.951220,-26.585367
1548434804521,-0.723694,-0.668213,0.207764,3.841464,-12.317074,-27.682928
1548434804536,-0.727783,-0.670471,0.219849,2.134146,-13.231708,-28.597561
1548434804544,-0.716431,-0.661255,0.211060,0.853659,-13.780488,-29.695122
1548434804553,-0.696899,-0.643616,0.199219,-1.158537,-14.451220,-30.975611
1548434804566,-0.691895,-0.654419,0.199158,-4.146341,-14.817074,-33.170731
1548434804591,-0.685669,-0.669189,0.193970,-5.487805,-15.365854,-35.609756
1548434804591,-0.667236,-0.657776,0.177856,-5.000000,-16.097561,-37.378048
1548434804597,-0.655945,-0.661133,0.166260,-5.304878,-16.829269,-39.146343
1548434804604,-0.647339,-0.669983,0.172302,-5.853659,-18.658537,-41.097561
1548434804611,-0.641113,-0.669861,0.178528,-6.097561,-20.487804,-43.231709
1548434804626,-0.631897,-0.673157,0.190002,-6.463415,-22.073172,-45.304878
1548434804634,-0.621460,-0.676392,0.205383,-6.219512,-23.658537,-47.439026
1548434804641,-0.615601,-0.703735,0.238892,-5.060976,-25.000000,-49.512196
1548434804656,-0.605774,-0.740906,0.278076,-3.536585,-25.914635,-51.463417
1548434804664,-0.587891,-0.739502,0.289062,-2.317073,-26.158537,-52.682926
1548434804671,-0.582825,-0.729553,0.296387,-1.036585,-25.914635,-53.109756
1548434804686,-0.588501,-0.766724,0.298462,2.012195,-25.853659,-53.841465
1548434804693,-0.587402,-0.793457,0.288574,7.317073,-26.158537,-54.878052
1548434804701,-0.591370,-0.793518,0.271118,12.134147,-26.219513,-54.695122
1548434804716,-0.601807,-0.790344,0.251648,14.695123,-25.975611,-53.597561
1548434804723,-0.608459,-0.793640,0.238342,14.756098,-26.524391,-53.353661
1548434804731,-0.606262,-0.793457,0.241394,12.560976,-27.317074,-53.414635
1548434804746,-0.593567,-0.806763,0.281006,8.841464,-27.682928,-53.048782
1548434804754,-0.562744,-0.838135,0.323547,7.256098,-28.231709,-52.743904
1548434804761,-0.535645,-0.836304,0.336731,8.536586,-29.146341,-52.134148
1548434804776,-0.533569,-0.821411,0.349182,9.024390,-29.695122,-51.402439
1548434804783,-0.536255,-0.834045,0.359924,7.865854,-29.634148,-51.890244
1548434804791,-0.521484,-0.842102,0.349854,7.560976,-29.329269,-52.073174
1548434804806,-0.498230,-0.846558,0.325806,8.109756,-29.085367,-51.280491
1548434804814,-0.490051,-0.857239,0.306152,6.890244,-29.207317,-50.731709
1548434804821,-0.482849,-0.851379,0.293579,1.890244,-29.878050,-51.158539
1548434804836,-0.463562,-0.842041,0.298523,-6.402439,-30.243902,-51.646343
1548434804844,-0.438904,-0.862793,0.334534,-13.231708,-30.000000,-52.256100
1548434804851,-0.410522,-0.895630,0.360901,-14.329268,-29.634148,-52.439026
1548434804866,-0.388611,-0.898254,0.355957,-13.048780,-29.329269,-51.707317
1548434804874,-0.382080,-0.897156,0.353210,-14.085366,-28.231709,-51.341465
1548434804881,-0.371948,-0.918823,0.352478,-16.951220,-27.439026,-51.524391
1548434804896,-0.355896,-0.932617,0.340454,-20.426830,-26.829269,-51.341465
1548434804903,-0.346191,-0.944641,0.323425,-25.060976,-26.036587,-50.487804
1548434804911,-0.347046,-0.951538,0.315063,-31.402439,-25.487806,-49.817074
1548434804926,-0.346619,-0.954102,0.309387,-38.170734,-25.121952,-49.695122
1548434804933,-0.334473,-0.944336,0.304016,-41.890244,-24.512196,-49.268295
1548434804941,-0.322693,-0.931702,0.297974,-40.121952,-23.902439,-48.048782
1548434804956,-0.318054,-0.929443,0.290405,-33.841465,-23.719513,-47.073174
1548434804964,-0.314087,-0.929749,0.283447,-24.207317,-24.024391,-46.280487
1548434804971,-0.315369,-0.929077,0.274109,-12.682927,-24.634148,-44.817074
1548434804986,-0.320129,-0.948486,0.264587,-2.256098,-25.426830,-43.536587
1548434804994,-0.329956,-0.969360,0.262390,5.243903,-26.768293,-42.804878
1548434805001,-0.342224,-0.985352,0.267334,8.170732,-27.987806,-41.646343
1548434805016,-0.348022,-0.999207,0.277161,6.585366,-28.414635,-40.487804
1548434805023,-0.346741,-1.003052,0.283997,1.829268,-28.719513,-38.963417
1548434805031,-0.347229,-0.993225,0.298157,-4.634146,-28.902439,-37.378048
1548434805046,-0.346008,-0.982605,0.324646,-11.280488,-28.963415,-36.402439
1548434805054,-0.322937,-0.970825,0.340942,-14.939025,-28.414635,-35.609756
1548434805061,-0.300537,-0.944153,0.335693,-13.963415,-28.048780,-34.329269
1548434805076,-0.298645,-0.938049,0.327759,-9.634147,-27.682928,-33.597561
1548434805084,-0.291138,-0.955139,0.329651,-3.719512,-27.439026,-34.268295
1548434805091,-0.272888,-0.966614,0.319580,2.073171,-27.317074,-34.146343
1548434805106,-0.254150,-0.974792,0.302246,6.097561,-26.890245,-33.353661
1548434805114,-0.247070,-0.978149,0.296326,7.682927,-26.585367,-32.804878
1548434805121,-0.241638,-0.989197,0.305847,7.500000,-26.768293,-32.073170
1548434805136,-0.233032,-0.989258,0.327454,5.975610,-26.768293,-31.585367
1548434805144,-0.223022,-0.966553,0.343201,4.329268,-26.463415,-30.487806
1548434805151,-0.220032,-0.944702,0.359070,4.390244,-25.792683,-29.634148
1548434805166,-0.213989,-0.936035,0.369568,9.207317,-25.487806,-28.963415
1548434805174,-0.207092,-0.933350,0.365662,18.597561,-25.365854,-28.292683
1548434805181,-0.203186,-0.930847,0.362061,29.634148,-25.365854,-27.804878
1548434805196,-0.202209,-0.925110,0.362183,40.121952,-25.731709,-27.256098
1548434805204,-0.199524,-0.937012,0.361328,49.207317,-26.036587,-26.768293
1548434805211,-0.202271,-0.962891,0.375854,55.731709,-26.402439,-26.707317
1548434805226,-0.197510,-0.994324,0.399048,57.682930,-26.951220,-26.280489
1548434805234,-0.189575,-1.009094,0.415527,54.207317,-27.500000,-24.939026
1548434805241,-0.181641,-0.998413,0.432251,45.731709,-26.768293,-23.475611
1548434805256,-0.178223,-0.966614,0.445740,35.670734,-25.914635,-22.134148
1548434805264,-0.173523,-0.940430,0.447998,28.048780,-25.243902,-21.280489
1548434805271,-0.163635,-0.924683,0.446533,23.536587,-24.390244,-21.097561
1548434805286,-0.155945,-0.918274,0.446411,21.219513,-23.536587,-21.036587
1548434805294,-0.152832,-0.908875,0.444336,21.463415,-22.987806,-20.487804
1548434805301,-0.145996,-0.902405,0.443665,24.817074,-22.926830,-19.573172
1548434805316,-0.140686,-0.910522,0.442749,28.902439,-22.865854,-19.573172
1548434805331,-0.136230,-0.919739,0.444946,31.646341,-22.804878,-20.060976
1548434805332,-0.133423,-0.918335,0.445801,32.682926,-22.743902,-20.000000
1548434805346,-0.131409,-0.916809,0.451965,31.768293,-22.682928,-20.182928
1548434805354,-0.131897,-0.909912,0.462830,28.658537,-22.317074,-20.304878
1548434805361,-0.123840,-0.903015,0.475281,24.573172,-22.012196,-20.731709
1548434805376,-0.114502,-0.892578,0.482849,21.402439,-21.402439,-21.036587
1548434805384,-0.106384,-0.883850,0.489502,19.390244,-20.853659,-21.341463
1548434805391,-0.101196,-0.880127,0.487610,18.170732,-20.243902,-21.829269
1548434805406,-0.097778,-0.880432,0.483765,17.926830,-19.634148,-22.500000
1548434805413,-0.094055,-0.882080,0.481567,18.109756,-19.329269,-22.987806
1548434805421,-0.093933,-0.876648,0.474915,18.719513,-19.146341,-23.597561
1548434805436,-0.087769,-0.875916,0.471375,19.451220,-19.085367,-24.024391
1548434805444,-0.081543,-0.874695,0.470520,19.878050,-19.146341,-24.268293
1548434805451,-0.077698,-0.874329,0.470520,19.329269,-19.451220,-25.304878
1548434805466,-0.076965,-0.877197,0.489990,18.170732,-20.000000,-26.463415
1548434805473,-0.063232,-0.878296,0.508118,16.585365,-20.426830,-26.890245
1548434805481,-0.048950,-0.883606,0.519165,14.878049,-20.365854,-27.378050
1548434805496,-0.039001,-0.888977,0.528687,13.292684,-19.878050,-27.743902
1548434805503,-0.024292,-0.892639,0.524475,11.219512,-19.451220,-28.170732
1548434805511,-0.015930,-0.898499,0.518555,8.963415,-18.841463,-27.926830
1548434805526,-0.010010,-0.899536,0.513123,5.853659,-18.231709,-27.804878
1548434805533,-0.003601,-0.896729,0.506287,2.500000,-17.682928,-28.170732
1548434805541,0.001648,-0.887573,0.496094,0.243902,-17.378050,-28.292683
1548434805556,-0.000244,-0.877258,0.494446,-0.060976,-17.195122,-27.987806
1548434805563,0.001282,-0.878418,0.496704,1.341463,-17.134148,-27.987806
1548434805571,0.002991,-0.881592,0.500732,4.146341,-16.829269,-27.804878
1548434805586,0.002869,-0.880310,0.504639,7.378049,-16.707317,-27.804878
1548434805594,0.003357,-0.886292,0.511353,10.304878,-16.890244,-27.865854
1548434805601,0.009155,-0.892090,0.513184,12.743903,-17.134148,-28.353659
1548434805616,0.008545,-0.898865,0.506348,13.597561,-17.012196,-28.780489
1548434805624,0.002686,-0.904541,0.504211,12.012196,-17.134148,-29.329269
1548434805631,0.003662,-0.911682,0.506165,8.658537,-17.317074,-29.756098
1548434805647,0.006836,-0.909424,0.506165,5.121951,-17.317074,-30.121952
1548434805654,0.012695,-0.908569,0.504944,2.987805,-17.195122,-29.939026
1548434805661,0.026184,-0.903198,0.507385,3.414634,-17.195122,-29.451220
1548434805676,0.043152,-0.899109,0.499817,6.097561,-17.317074,-28.780489
1548434805684,0.044861,-0.925903,0.490662,11.280488,-17.439024,-28.292683
1548434805692,0.045959,-0.940125,0.489502,14.329268,-18.109756,-28.719513
1548434805706,0.059143,-0.931213,0.494019,12.195122,-18.780489,-28.292683
1548434805714,0.067505,-0.935120,0.490845,8.719512,-18.841463,-27.439026
1548434805721,0.074524,-0.949402,0.484253,6.341464,-19.085367,-26.890245
1548434805737,0.078186,-0.943909,0.485535,3.109756,-19.207317,-26.341463
1548434805744,0.084778,-0.934082,0.490295,-1.280488,-19.207317,-25.670732
1548434805751,0.098999,-0.925049,0.492554,-3.963415,-19.512196,-25.060976
1548434805767,0.110840,-0.918945,0.496460,-3.597561,-19.878050,-24.512196
1548434805774,0.111816,-0.922424,0.510437,-0.304878,-20.792683,-24.024391
1548434805782,0.113770,-0.931152,0.519897,4.573171,-21.280489,-23.536587
1548434805797,0.130371,-0.929077,0.528259,8.475610,-20.914635,-23.109756
1548434805804,0.147400,-0.908997,0.533630,10.670732,-19.878050,-21.707317
1548434805811,0.148254,-0.892456,0.536865,11.097561,-18.719513,-20.914635
1548434805826,0.144836,-0.894104,0.528198,10.609756,-18.231709,-21.524391
1548434805834,0.151978,-0.902283,0.514709,10.975610,-16.890244,-21.768293
1548434805842,0.146790,-0.903931,0.510437,8.292683,-15.609756,-20.670732
1548434805856,0.153320,-0.875366,0.520386,2.195122,-15.792684,-20.609756
1548434805864,0.165833,-0.864197,0.519531,-1.890244,-15.304878,-19.512196
1548434805872,0.162170,-0.865601,0.528870,-1.829268,-14.634147,-19.634148
1548434805887,0.172852,-0.847046,0.533386,-0.243902,-15.182927,-19.573172
1548434805895,0.180298,-0.844360,0.536072,3.475610,-14.817074,-18.597561
1548434805902,0.189819,-0.858215,0.526550,8.719512,-15.121951,-18.597561
1548434805917,0.178406,-0.865051,0.535461,12.682927,-15.000000,-19.390244
1548434805924,0.195862,-0.860718,0.534973,14.146341,-15.304878,-18.658537
1548434805932,0.198181,-0.863831,0.538025,14.573171,-14.756098,-17.621952
1548434805947,0.190613,-0.875305,0.540466,15.670732,-15.000000,-17.865854
1548434805954,0.199585,-0.856567,0.550720,14.024390,-15.182927,-17.256098
1548434805961,0.205688,-0.846436,0.561646,10.975610,-14.817074,-16.768293
1548434805976,0.212524,-0.856262,0.561401,12.865854,-14.085366,-16.829269
1548434805984,0.211426,-0.867554,0.554932,16.707317,-13.170732,-16.890244
1548434805992,0.220154,-0.848389,0.556030,18.048780,-11.951220,-16.585365
1548434806006,0.226379,-0.857971,0.545959,19.085367,-10.914635,-16.341463
1548434806014,0.221252,-0.874146,0.541870,21.402439,-10.182927,-16.219513
1548434806022,0.227783,-0.865417,0.538757,20.426830,-9.878049,-15.243903
1548434806201,0.231140,-0.876404,0.543823,17.743902,-9.207317,-14.268293
1548434806201,0.234436,-0.909302,0.546448,14.939025,-8.963415,-13.292684
1548434806209,0.258606,-0.984619,0.553223,13.963415,-8.780488,-11.463415
1548434806210,0.257446,-0.901611,0.553650,15.670732,-8.658537,-7.865854
1548434806211,0.232361,-0.849365,0.545410,15.548780,-8.109756,-4.329268
1548434806211,0.226074,-0.851562,0.540588,13.353659,-7.743903,-4.512195
1548434806211,0.222595,-0.834167,0.537415,14.024390,-7.439024,-5.548780
1548434806212,0.223816,-0.830322,0.541748,14.634147,-7.073171,-6.768293
1548434806212,0.230835,-0.830017,0.551025,15.365854,-6.585366,-7.682927
1548434806213,0.231812,-0.830750,0.555420,15.853659,-6.036585,-7.987805
1548434806214,0.232910,-0.831970,0.559265,15.121951,-5.731708,-7.500000
1548434806215,0.233765,-0.826599,0.551941,13.841464,-5.182927,-6.585366
1548434806215,0.242859,-0.817200,0.549683,12.012196,-4.695122,-5.426829
1548434806216,0.249695,-0.812439,0.549377,10.975610,-4.268293,-4.207317
1548434806216,0.250305,-0.807129,0.546936,11.524390,-4.268293,-2.804878
1548434806216,0.250488,-0.804565,0.542969,12.926829,-4.085366,-0.975610
1548434806217,0.248901,-0.805054,0.546082,15.914635,-4.085366,0.670732
1548434806239,0.251343,-0.803223,0.544067,18.902439,-4.390244,2.682927
1548434806239,0.248901,-0.802429,0.548340,22.012196,-4.573171,4.878049
1548434806240,0.246033,-0.802368,0.553040,26.219513,-4.817073,7.317073
1548434806241,0.241272,-0.798157,0.551147,30.365854,-5.182927,9.756098
1548434806242,0.258423,-0.804138,0.593567,35.548782,-5.609756,11.524390
1548434806254,0.244995,-0.800598,0.586548,40.000000,-5.304878,13.475610
1548434806261,0.226318,-0.794006,0.597656,36.646343,-6.463415,17.378050
1548434806269,0.227600,-0.792603,0.611633,37.256100,-6.402439,19.268293
1548434806284,0.220093,-0.784790,0.627014,35.853661,-6.890244,18.231709
1548434806291,0.203857,-0.800903,0.661072,31.890245,-7.987805,16.524391
1548434806299,0.198425,-0.829895,0.682800,23.109756,-10.060976,11.463415
1548434806313,0.215515,-0.821533,0.661987,10.000000,-11.890244,4.390244
1548434806321,0.222778,-0.786377,0.615662,-0.487805,-9.939025,1.829268
1548434806329,0.226685,-0.781555,0.594788,-6.951220,-7.804878,2.195122
1548434806344,0.229492,-0.789001,0.586060,-8.475610,-7.256098,1.707317
1548434806351,0.234070,-0.798340,0.583984,-7.560976,-7.743903,1.036585
1548434806358,0.230469,-0.791199,0.584839,-5.853659,-8.231708,1.036585
1548434806374,0.236755,-0.790955,0.585083,-4.817073,-9.085366,0.670732
1548434806381,0.230042,-0.782349,0.591919,-3.597561,-9.695122,0.121951
1548434806389,0.234436,-0.796021,0.597351,-2.865854,-9.939025,-0.609756
1548434806403,0.240112,-0.795166,0.597168,-1.646341,-9.695122,-0.670732
1548434806411,0.220886,-0.783447,0.592102,-2.500000,-9.634147,-1.158537
1548434806418,0.223206,-0.789246,0.597839,-2.743902,-9.756098,-0.975610
1548434806434,0.233459,-0.798523,0.597229,-0.975610,-9.451220,-1.219512
1548434806441,0.239136,-0.796997,0.592651,-0.304878,-9.024390,-1.097561
1548434806449,0.244141,-0.792908,0.584900,-0.670732,-8.597561,-1.097561
1548434806466,0.231140,-0.789673,0.583679,-0.548781,-8.170732,-1.036585
1548434806471,0.244934,-0.797791,0.591797,0.853659,-7.804878,-0.487805
1548434806479,0.239990,-0.796448,0.593933,2.256098,-7.439024,-0.426829
1548434806494,0.239990,-0.796326,0.592468,2.500000,-7.317073,0.304878
1548434806501,0.247620,-0.797668,0.593018,2.256098,-6.707317,0.548781
1548434806509,0.249939,-0.797668,0.594849,1.707317,-6.463415,0.548781
1548434806524,0.243469,-0.793396,0.592834,0.731707,-6.097561,1.158537
1548434806531,0.237732,-0.794189,0.586609,-0.487805,-5.670732,1.585366
1548434806539,0.247620,-0.793396,0.583618,-0.609756,-5.182927,2.134146
1548434806562,0.233521,-0.791687,0.583862,-0.304878,-4.695122,1.890244
1548434806562,0.237305,-0.794800,0.584778,0.426829,-4.878049,2.195122
1548434806569,0.243774,-0.791748,0.585632,1.768293,-4.512195,2.073171
1548434806584,0.220947,-0.782898,0.591248,1.890244,-4.329268,1.219512
1548434806591,0.232544,-0.797791,0.600281,2.439024,-4.390244,1.646341
1548434806599,0.254089,-0.801697,0.597229,4.085366,-4.085366,1.402439
1548434806614,0.235840,-0.787170,0.589722,2.378049,-3.719512,0.548781
1548434806622,0.237061,-0.792297,0.589966,0.182927,-3.658537,0.975610
1548434806629,0.240479,-0.791626,0.595947,0.670732,-3.231707,0.731707
1548434806643,0.241272,-0.795898,0.592102,1.158537,-3.170732,0.426829
1548434806651,0.247681,-0.797791,0.591064,1.036585,-3.048780,0.548781
1548434806659,0.238159,-0.790710,0.587280,0.670732,-3.048780,0.121951
1548434806673,0.235962,-0.786865,0.592468,0.365854,-2.926829,0.365854
1548434806681,0.240356,-0.794983,0.595032,1.524390,-2.865854,0.060976
1548434806688,0.246643,-0.791931,0.592529,2.317073,-2.804878,-0.060976
1548434806704,0.239197,-0.790894,0.590698,1.524390,-2.439024,-0.365854
1548434806711,0.239929,-0.792297,0.596008,1.219512,-2.317073,0.000000
1548434806719,0.237549,-0.788818,0.595703,1.707317,-2.195122,0.121951
1548434806734,0.243896,-0.794495,0.597900,1.585366,-1.890244,0.182927
1548434806741,0.252258,-0.795837,0.596863,1.463415,-1.646341,0.060976
1548434806749,0.246948,-0.792114,0.594971,0.365854,-1.280488,0.121951
1548434806763,0.249634,-0.793701,0.594421,-0.487805,-0.975610,0.670732
1548434806772,0.248657,-0.794800,0.594971,-0.914634,-0.670732,0.670732
1548434806780,0.247253,-0.793762,0.593811,-1.646341,-0.670732,0.792683
1548434806794,0.245239,-0.791809,0.590332,-2.560976,-0.487805,1.097561
1548434806802,0.246460,-0.793762,0.587402,-3.109756,-0.182927,1.341463
1548434806809,0.237427,-0.790527,0.586121,-2.865854,-0.304878,1.524390
1548434806824,0.247375,-0.795349,0.584656,-2.256098,-0.365854,1.829268
1548434806832,0.245361,-0.792114,0.583130,-1.036585,-0.487805,1.524390
1548434806839,0.235168,-0.789673,0.583496,-0.792683,-0.792683,1.341463
1548434806854,0.241638,-0.794861,0.588806,0.121951,-0.853659,1.402439
1548434806862,0.238220,-0.792847,0.591309,1.036585,-0.914634,1.097561
1548434806869,0.239502,-0.792969,0.589233,1.280488,-1.158537,1.036585
1548434806884,0.242615,-0.796326,0.593079,0.792683,-1.219512,0.670732
1548434806892,0.241089,-0.795776,0.595215,0.548781,-1.219512,0.487805
1548434806899,0.238586,-0.794861,0.592834,0.121951,-1.341463,0.609756
1548434806914,0.243530,-0.796326,0.590698,-0.365854,-1.097561,0.609756
1548434806922,0.243530,-0.794800,0.587830,-0.426829,-0.975610,0.426829
1548434806929,0.241272,-0.793030,0.590454,-0.365854,-0.914634,0.304878
1548434806944,0.243774,-0.792542,0.588440,-0.121951,-0.853659,0.365854
1548434806952,0.246216,-0.793945,0.590393,0.060976,-0.792683,0.365854
1548434806959,0.241516,-0.794678,0.589539,-0.060976,-0.670732,0.426829
1548434806974,0.243530,-0.795776,0.588379,-0.426829,-0.670732,0.548781
1548434806982,0.245483,-0.796326,0.587769,-0.792683,-0.670732,0.609756
1548434806989,0.246582,-0.795776,0.592041,-1.097561,-0.548781,0.853659
1548434807004,0.245422,-0.794678,0.588806,-1.463415,-0.487805,1.097561
1548434807011,0.243591,-0.796387,0.587280,-1.768293,-0.243902,1.280488
1548434807019,0.244385,-0.796143,0.589722,-1.829268,-0.243902,1.524390
1548434807034,0.244019,-0.796997,0.589050,-2.073171,-0.304878,1.646341
1548434807042,0.243103,-0.796143,0.589844,-2.378049,-0.060976,1.951220
1548434807049,0.243042,-0.798279,0.587524,-2.621951,0.121951,2.317073
1548434807064,0.245422,-0.799988,0.590027,-3.292683,0.243902,2.500000
1548434807072,0.248596,-0.805298,0.592224,-4.146341,0.426829,2.804878
1548434807081,0.302795,-0.823669,0.583557,-5.426829,0.792683,2.987805
1548434807095,0.243225,-0.784790,0.568909,-8.536586,1.707317,1.463415
1548434807102,0.224487,-0.799683,0.579346,-13.353659,1.646341,2.378049
1548434807109,0.240662,-0.804871,0.581787,-10.914635,2.560976,3.780488
1548434807124,0.241943,-0.801208,0.571411,-10.243902,2.256098,3.109756
1548434807132,0.234192,-0.802795,0.565613,-10.914635,2.378049,2.682927
1548434807139,0.230957,-0.806091,0.566223,-9.756098,2.256098,2.804878
1548434807154,0.239258,-0.806946,0.565247,-7.439024,1.890244,2.987805
1548434807162,0.232178,-0.803772,0.559998,-5.548780,1.585366,2.195122
1548434807170,0.220276,-0.804260,0.568909,-4.390244,1.097561,1.890244
1548434807184,0.229431,-0.809265,0.578003,-1.829268,0.365854,2.073171
1548434807192,0.231812,-0.807251,0.577209,-0.304878,-0.060976,1.402439
1548434807199,0.233032,-0.805054,0.569824,-0.487805,0.000000,1.036585
1548434807215,0.217041,-0.799133,0.569336,-0.914634,0.121951,0.914634
1548434807222,0.215088,-0.805481,0.576965,-0.121951,-0.304878,1.097561
1548434807229,0.231018,-0.810425,0.587219,2.134146,-0.243902,1.219512
1548434807244,0.235107,-0.814331,0.590332,2.682927,-0.243902,0.914634
1548434807252,0.232971,-0.820984,0.602356,1.219512,0.121951,1.219512
1548434807259,0.241089,-0.820007,0.606445,-1.097561,0.853659,1.951220
1548434807274,0.241516,-0.816711,0.597107,-4.939024,1.890244,3.475610
1548434807282,0.243042,-0.815247,0.581421,-9.939025,2.987805,5.609756
1548434807289,0.263367,-0.827454,0.579956,-14.512196,3.902439,7.500000
1548434807304,0.252991,-0.815918,0.574890,-17.987804,4.695122,7.926829
1548434807312,0.239563,-0.817688,0.574768,-22.073172,5.243903,8.353659
1548434807319,0.253601,-0.832520,0.577209,-24.207317,5.853659,10.487805
1548434807335,0.250183,-0.823547,0.563904,-26.524391,6.280488,11.097561
1548434807342,0.233215,-0.822327,0.555725,-29.268293,6.768293,11.768293
1548434807349,0.229980,-0.822510,0.545532,-29.573172,7.500000,13.841464
1548434807364,0.222290,-0.827515,0.535400,-29.634148,7.621952,14.085366
1548434807372,0.217712,-0.831970,0.519836,-28.902439,7.926829,14.207317
1548434807379,0.204163,-0.832397,0.515381,-27.012196,8.048780,14.329268
1548434807394,0.219116,-0.841003,0.515137,-23.719513,7.317073,13.902439
1548434807402,0.215393,-0.836670,0.511658,-20.243902,7.256098,13.048780
1548434807409,0.171997,-0.838806,0.516113,-17.195122,6.829268,10.426829
1548434807424,0.195618,-0.854614,0.525574,-13.841464,6.524390,12.560976
1548434807432,0.183411,-0.846802,0.522278,-10.731708,6.646342,11.646341
1548434807439,0.190430,-0.851257,0.516968,-10.914635,6.280488,10.792684
1548434807455,0.161133,-0.847534,0.518616,-9.756098,7.439024,10.975610
1548434807462,0.184570,-0.851379,0.516663,-8.048780,6.341464,12.317074
1548434807470,0.195251,-0.854187,0.512878,-5.975610,7.012195,11.158537
1548434807484,0.201721,-0.857422,0.511414,-4.695122,7.073171,10.853659
1548434807492,0.180298,-0.848511,0.510986,-3.536585,7.378049,10.792684
1548434807499,0.176880,-0.857239,0.515137,-2.804878,7.621952,10.121951
1548434807514,0.184509,-0.867798,0.524841,-1.585366,7.865854,10.487805
1548434807522,0.182434,-0.858276,0.521851,-1.707317,7.439024,9.451220
1548434807530,0.185303,-0.858887,0.523804,-4.329268,8.292683,10.365854
1548434807544,0.184448,-0.861389,0.533020,-5.426829,8.597561,11.219512
1548434807552,0.189758,-0.865295,0.538330,-6.097561,8.292683,10.609756
1548434807559,0.184387,-0.864685,0.530212,-7.865854,8.597561,10.670732
1548434807574,0.147522,-0.858948,0.527161,-11.402439,8.841464,9.146341
1548434807582,0.176514,-0.866455,0.526978,-12.865854,7.378049,11.463415
1548434807589,0.188660,-0.867126,0.514404,-13.536586,8.353659,7.804878
1548434807605,0.152771,-0.859741,0.509705,-15.914635,8.719512,3.414634
1548434807618,0.157043,-0.866943,0.506897,-15.792684,6.890244,1.158537
1548434807624,0.161804,-0.880127,0.501038,-13.719513,6.768293,-1.158537
1548434807636,0.161499,-0.862244,0.497742,-12.804878,6.280488,-4.817073
1548434807641,0.146240,-0.849548,0.508301,-11.646341,5.670732,-5.609756
1548434807649,0.115540,-0.893311,0.512817,-10.426829,5.670732,-7.256098
1548434807664,0.150452,-0.882874,0.501465,-10.487805,5.243903,-1.158537
1548434807671,0.206787,-0.924500,0.494812,-8.719512,8.597561,-5.000000
1548434807679,0.151855,-0.891907,0.508362,-8.597561,8.841464,-13.719513
1548434807694,0.108704,-0.936401,0.525269,-5.853659,6.219512,-13.292684
1548434807702,0.116882,-0.934448,0.529724,-4.878049,6.890244,-12.073171
1548434807709,0.132324,-0.909973,0.530334,-4.268293,8.841464,-3.719512
1548434807724,0.145142,-0.898621,0.530273,-6.341464,9.329268,1.341463
1548434807732,0.133667,-0.882019,0.538269,-5.792683,9.390244,1.829268
1548434807739,0.133118,-0.893433,0.536072,-3.475610,9.146341,2.621951
1548434807754,0.139282,-0.896973,0.545532,-0.731707,9.146341,3.170732
1548434807762,0.137634,-0.913635,0.545227,1.524390,9.390244,3.353659
1548434807769,0.135498,-0.926575,0.547852,2.987805,10.426829,3.475610
1548434807784,0.124634,-0.918884,0.560669,4.634146,10.792684,6.097561
1548434807792,0.122009,-0.922302,0.557678,4.329268,11.097561,8.658537
1548434807799,0.114746,-0.928467,0.563354,3.353659,12.317074,9.939025
1548434807816,0.119263,-0.919983,0.568115,0.731707,13.292684,11.402439
1548434807860,0.102112,-0.922607,0.571899,-0.243902,14.817074,12.500000
1548434807861,0.094910,-0.923584,0.580078,-1.890244,15.487805,13.963415
1548434807861,0.097290,-0.918518,0.568848,-5.304878,17.682928,15.000000
1548434807861,0.094299,-0.929077,0.562195,-6.829268,19.207317,15.060976
1548434807861,0.105896,-0.911682,0.550598,-10.000000,20.914635,15.853659
1548434807925,0.101501,-0.917175,0.544739,-10.426829,22.743902,16.707317
1548434807925,0.103271,-0.921448,0.546509,-8.475610,22.439024,17.317074
1548434807925,0.113403,-0.917542,0.540222,-7.256098,23.231709,18.719513
1548434807925,0.117310,-0.923096,0.536926,-5.304878,23.963415,20.000000
1548434807925,0.111938,-0.936523,0.531372,-1.768293,23.658537,21.036587
1548434807925,0.105713,-0.931396,0.536865,-0.304878,23.475611,22.682928
1548434807941,0.110535,-0.927307,0.530884,-0.731707,23.658537,24.512196
1548434807943,0.103699,-0.927124,0.523743,-0.548781,23.841463,26.097561
1548434807949,0.086365,-0.925781,0.518982,0.121951,23.536587,27.987806
1548434807971,0.075256,-0.921936,0.518738,0.853659,23.292683,29.512196
1548434807972,0.068787,-0.912415,0.517700,0.670732,23.658537,30.426830
1548434807979,0.058594,-0.911377,0.521362,1.280488,24.085367,31.219513
1548434807994,0.057312,-0.903381,0.518616,2.195122,24.329269,31.951220
1548434808001,0.049500,-0.909241,0.515808,3.658537,25.060976,32.439026
1548434808008,0.044128,-0.916260,0.519714,6.402439,25.670732,32.560978
1548434808023,0.038757,-0.904785,0.516418,7.134147,26.097561,32.865856
1548434808032,0.026917,-0.909119,0.517761,6.097561,27.073172,32.743904
1548434808039,0.018555,-0.908386,0.512817,4.817073,27.621952,32.560978
1548434808054,0.006592,-0.913757,0.513367,3.536585,28.170732,33.475609
1548434808062,-0.001709,-0.909424,0.521484,2.073171,28.353659,33.902439
1548434808069,-0.006470,-0.896545,0.527222,1.097561,28.597561,34.573170
1548434808084,-0.017639,-0.896118,0.521667,0.731707,29.085367,35.000000
1548434808092,-0.034607,-0.898132,0.523254,1.036585,29.390245,34.817074
1548434808099,-0.046753,-0.896667,0.522278,0.853659,29.695122,34.451221
1548434808114,-0.049500,-0.895325,0.507080,0.121951,30.365854,34.146343
1548434808122,-0.053467,-0.890137,0.496582,-0.121951,31.280489,33.902439
1548434808129,-0.064270,-0.883362,0.496948,0.975610,31.707317,33.475609
1548434808144,-0.074463,-0.879211,0.508179,2.743902,31.768293,33.109756
1548434808152,-0.074524,-0.882141,0.526367,4.817073,31.951220,32.560978
1548434808159,-0.071472,-0.888428,0.537903,7.865854,31.951220,32.256100
1548434808174,-0.071899,-0.891418,0.543396,11.890244,32.073170,31.890245
1548434808182,-0.072815,-0.900452,0.549988,14.878049,32.378048,31.768293
1548434808189,-0.072632,-0.904053,0.549927,16.463415,32.743904,32.195122
1548434808204,-0.078491,-0.903320,0.546143,16.951220,33.170731,32.743904
1548434808240,-0.094055,-0.906738,0.551025,15.426829,33.780487,33.048782
1548434808241,-0.106995,-0.910156,0.555359,12.378049,34.146343,34.207317
1548434808242,-0.119507,-0.910217,0.552979,8.231708,34.756100,35.182926
1548434808244,-0.132446,-0.899170,0.552917,4.146341,35.304878,36.097561
1548434808250,-0.138245,-0.876587,0.551392,1.585366,35.731709,37.317074
1548434808264,-0.147400,-0.861145,0.549011,1.585366,36.341465,38.170734
1548434808271,-0.161682,-0.870728,0.546936,3.963415,36.280487,38.658539
1548434808279,-0.179993,-0.870728,0.547607,6.707317,36.219513,39.146343
1548434808294,-0.188232,-0.866516,0.548279,8.231708,36.402439,39.207317
1548434808301,-0.192932,-0.869873,0.547913,7.621952,36.890244,38.963417
1548434808309,-0.195312,-0.868286,0.543640,6.707317,37.439026,39.085365
1548434808323,-0.204529,-0.865356,0.541870,5.304878,38.048782,39.390244
1548434808331,-0.210205,-0.871094,0.541443,4.268293,38.414635,39.573174
1548434808339,-0.211487,-0.871094,0.532349,4.329268,38.658539,40.243904
1548434808361,-0.226685,-0.871704,0.522400,5.243903,38.841465,40.853661
1548434808362,-0.242310,-0.867310,0.518127,6.341464,38.658539,41.280487
1548434808368,-0.254761,-0.859985,0.512512,6.097561,38.658539,41.463417
1548434808383,-0.262695,-0.856628,0.503235,5.243903,38.536587,41.524391
1548434808391,-0.273682,-0.851868,0.503357,4.573171,38.475609,41.829269
1548434808399,-0.282410,-0.850220,0.501648,4.573171,38.170734,41.951221
1548434808413,-0.291870,-0.848022,0.497498,4.390244,37.804878,42.012196
1548434808421,-0.298706,-0.854431,0.499512,2.560976,37.743904,41.951221
1548434808429,-0.304932,-0.853577,0.500916,-1.097561,37.743904,41.829269
1548434808462,-0.302307,-0.853638,0.505066,-4.390244,37.804878,41.890244
1548434808462,-0.301086,-0.858154,0.506897,-7.073171,38.048782,41.890244
1548434808462,-0.306885,-0.855774,0.500366,-8.231708,37.987804,42.073174
1548434808474,-0.323547,-0.859802,0.493225,-8.292683,38.048782,42.439026
1548434808481,-0.341614,-0.864563,0.489197,-7.926829,37.743904,42.439026
1548434808489,-0.353577,-0.856201,0.478088,-6.829268,37.256100,42.865856
1548434808504,-0.371826,-0.840515,0.466431,-7.378049,37.256100,43.414635
1548434808519,-0.390686,-0.821289,0.458435,-8.292683,37.073170,43.780487
1548434808519,-0.403198,-0.813782,0.448425,-7.865854,36.951221,43.780487
1548434808558,-0.416931,-0.805359,0.438049,-5.792683,36.463417,44.329269
1548434808559,-0.430420,-0.789978,0.438782,-3.841464,35.731709,44.329269
1548434808559,-0.443298,-0.776367,0.436768,-2.439024,35.182926,43.719513
1548434808634,-0.448669,-0.769592,0.437378,-0.670732,34.756100,43.048782
1548434808634,-0.449585,-0.764893,0.442749,1.829268,34.268295,42.134148
1548434808634,-0.450256,-0.766479,0.443970,4.695122,33.780487,41.219513
1548434808634,-0.454468,-0.759521,0.445801,7.682927,33.475609,40.487804
1548434808634,-0.462708,-0.746155,0.462952,10.853659,33.170731,39.634148
1548434808634,-0.466187,-0.747986,0.459045,17.134148,32.743904,39.085365
1548434808635,-0.481506,-0.758667,0.447449,24.634148,32.317074,38.597561
1548434808635,-0.493591,-0.774231,0.438354,29.512196,31.768293,37.682926
1548434808752,-0.496582,-0.782898,0.437439,30.487806,31.280489,36.646343
1548434808752,-0.497620,-0.777222,0.441956,27.804878,31.219513,35.731709
1548434808752,-0.503662,-0.767700,0.458801,22.987806,31.219513,35.426830
1548434808753,-0.512695,-0.764832,0.480591,18.109756,31.463415,35.487804
1548434808757,-0.511841,-0.760376,0.478882,13.902439,31.707317,35.731709
1548434808758,-0.523621,-0.756592,0.465881,9.878049,32.378048,35.914635
1548434808758,-0.532898,-0.750244,0.457825,6.524390,32.743904,35.792683
1548434808758,-0.538818,-0.748108,0.449158,5.060976,32.743904,35.853661
1548434808758,-0.547913,-0.754944,0.454163,4.146341,32.865856,35.670734
1548434808758,-0.553467,-0.752197,0.456970,4.146341,32.682926,35.609756
1548434808758,-0.559998,-0.741760,0.449646,4.634146,32.500000,35.975609
1548434808758,-0.572632,-0.731506,0.447815,4.756098,32.682926,36.280487
1548434808759,-0.580566,-0.731750,0.439575,4.695122,32.500000,36.341465
1548434808790,-0.588135,-0.745239,0.425720,4.268293,32.500000,36.524391
1548434808790,-0.596191,-0.748962,0.424927,2.256098,32.743904,36.585365
1548434808790,-0.600220,-0.741394,0.425659,-0.731707,32.804878,36.768295
1548434808805,-0.606384,-0.732483,0.418030,-3.475610,32.987804,37.378048
1548434808811,-0.615540,-0.727417,0.420105,-6.341464,33.109756,37.743904
1548434808820,-0.617310,-0.730713,0.414124,-8.536586,33.170731,37.987804
1548434808836,-0.622437,-0.744629,0.405884,-10.121951,33.109756,38.414635
1548434808841,-0.626892,-0.744690,0.404236,-12.317074,32.987804,38.902439
1548434808849,-0.626709,-0.744751,0.403992,-15.182927,32.804878,39.695122
1548434808864,-0.629883,-0.736206,0.390259,-17.256098,32.743904,40.426830
1548434808871,-0.650513,-0.719421,0.381226,-18.780489,32.439026,40.914635
1548434808878,-0.664673,-0.706482,0.382080,-20.365854,32.378048,41.097561
1548434808894,-0.666565,-0.700562,0.379150,-18.963415,32.134148,42.012196
1548434808902,-0.674072,-0.706360,0.372253,-14.512196,32.012196,43.292683
1548434808909,-0.690857,-0.709778,0.371704,-11.524390,31.829269,43.475613
1548434808924,-0.697327,-0.705444,0.368835,-11.646341,32.134148,43.109756
1548434808932,-0.702087,-0.685852,0.361511,-12.621951,33.048782,43.475613
1548434808939,-0.712769,-0.673157,0.351501,-13.902439,33.414635,44.451221
1548434808955,-0.721802,-0.662781,0.333008,-15.243903,33.902439,44.817074
1548434808962,-0.728149,-0.662537,0.317383,-15.365854,34.207317,45.365856
1548434808970,-0.734009,-0.661438,0.306458,-14.024390,34.024391,45.914635
1548434808984,-0.741638,-0.644409,0.289490,-12.682927,33.597561,46.097561
1548434808992,-0.752686,-0.622314,0.280090,-12.560976,33.170731,46.341465
1548434808999,-0.759888,-0.612183,0.279846,-13.475610,32.926830,45.914635
1548434809014,-0.765137,-0.602600,0.282349,-14.817074,32.378048,45.426830
1548434809022,-0.766724,-0.594971,0.288635,-16.280489,32.073170,45.000000
1548434809029,-0.768250,-0.598206,0.293335,-16.585365,31.890245,44.817074
1548434809044,-0.768250,-0.581604,0.278320,-14.146341,31.646341,44.634148
1548434809052,-0.774841,-0.564575,0.266235,-10.792684,31.341465,44.512196
1548434809059,-0.780029,-0.566833,0.247925,-7.682927,30.853659,44.024391
1548434809074,-0.789307,-0.550720,0.235413,-5.853659,30.060976,43.109756
1548434809082,-0.795898,-0.541443,0.227722,-5.000000,29.329269,42.073174
1548434809089,-0.790894,-0.538940,0.226318,-5.121951,28.780489,40.365856
1548434809124,-0.798218,-0.540344,0.230286,-5.000000,28.048780,39.207317
1548434809125,-0.814636,-0.529785,0.223633,-4.573171,27.317074,39.146343
1548434809151,-0.819458,-0.514465,0.212585,-5.000000,26.585367,38.536587
1548434809152,-0.817810,-0.507874,0.207886,-5.731708,26.036587,37.560978
1548434809152,-0.820435,-0.502075,0.200623,-4.390244,25.548780,36.463417
1548434809152,-0.833862,-0.493835,0.193054,-1.951220,24.573172,35.365856
1548434809173,-0.843994,-0.484802,0.189941,-0.060976,23.536587,33.719513
1548434809173,-0.849548,-0.480652,0.193176,0.304878,22.439024,31.890245
1548434809181,-0.850342,-0.480652,0.191711,-0.426829,21.829269,30.243902
1548434809194,-0.852234,-0.477905,0.186218,-1.097561,21.341463,28.658537
1548434809201,-0.850708,-0.474915,0.193054,-1.646341,20.426830,27.317074
1548434809208,-0.851013,-0.485168,0.205872,-1.707317,20.060976,25.853659
1548434809223,-0.858887,-0.500061,0.211670,-1.036585,19.512196,24.390244
1548434809231,-0.869751,-0.491699,0.223450,0.487805,18.719513,23.841463
1548434809239,-0.869568,-0.493591,0.232666,3.048780,18.597561,23.231709
1548434809254,-0.867004,-0.511902,0.246155,5.853659,18.597561,22.317074
1548434809262,-0.874207,-0.530334,0.249695,9.878049,18.841463,22.378050
1548434809269,-0.884644,-0.554260,0.255493,13.475610,18.841463,23.292683
1548434809284,-0.885742,-0.580811,0.265503,14.878049,19.268293,24.329269
1548434809291,-0.886780,-0.583862,0.260437,14.146341,20.243902,26.097561
1548434809299,-0.897400,-0.575073,0.250732,11.524390,21.036587,28.536587
1548434809314,-0.904358,-0.583008,0.247986,8.109756,22.134148,30.731709
1548434809322,-0.907532,-0.588379,0.251099,5.000000,23.109756,32.987804
1548434809329,-0.911987,-0.570435,0.245544,2.560976,24.146341,35.975609
1548434809344,-0.920715,-0.545837,0.229858,0.975610,25.304878,39.085365
1548434809352,-0.928650,-0.528931,0.211365,-0.548781,26.463415,41.463417
1548434809359,-0.936340,-0.513733,0.185486,-2.073171,27.439026,43.170734
1548434809374,-0.940002,-0.504333,0.168213,-4.146341,28.414635,44.756100
1548434809382,-0.936523,-0.496460,0.152466,-6.707317,29.329269,46.341465
1548434809389,-0.933533,-0.481689,0.131531,-10.121951,30.487806,47.804878
1548434809404,-0.933594,-0.472046,0.113831,-14.207317,31.280489,48.414635
1548434809412,-0.928528,-0.463013,0.102112,-18.658537,31.707317,48.658539
1548434809419,-0.923584,-0.440918,0.090515,-23.231709,31.890245,49.024391
1548434809446,-0.922791,-0.419861,0.079163,-28.414635,31.585367,49.024391
1548434809446,-0.918152,-0.402405,0.069214,-34.024391,31.402439,48.292683
1548434809487,-0.910889,-0.394836,0.071655,-38.658539,31.036587,47.378052
1548434809487,-0.917969,-0.399475,0.068054,-41.951221,30.304878,46.707317
1548434809488,-0.925903,-0.347412,0.057922,-42.804878,29.512196,45.853661
1548434809489,-0.926941,-0.309265,0.036072,-41.951221,28.475611,44.390244
1548434809494,-0.921265,-0.298462,0.022949,-40.487804,27.621952,42.439026
1548434809501,-0.930359,-0.289124,0.010864,-36.341465,26.707317,40.304878
1548434809509,-0.944885,-0.285095,0.000549,-32.012196,25.060976,38.780487
1548434809524,-0.951599,-0.282227,-0.006287,-28.902439,23.292683,37.012196
1548434809532,-0.954895,-0.263123,-0.013733,-27.743902,21.829269,35.182926
1548434809539,-0.960449,-0.230896,-0.022705,-27.560976,20.853659,33.292683
1548434809554,-0.966614,-0.228271,-0.018616,-25.853659,19.268293,31.097561
1548434809563,-0.978821,-0.232361,-0.013428,-22.621952,17.378050,28.841465
1548434809569,-0.983398,-0.220520,-0.013489,-19.634148,15.548780,27.073172
1548434809585,-0.986877,-0.214661,-0.012390,-18.353659,14.024390,25.304878
1548434809591,-0.988892,-0.199829,-0.011963,-18.292683,12.804878,23.109756
1548434809598,-0.990906,-0.187256,-0.012817,-18.109756,11.890244,20.975611
1548434809614,-0.993652,-0.195068,-0.006531,-16.219513,10.792684,19.146341
1548434809621,-0.992310,-0.208984,0.000977,-12.500000,9.207317,16.890244
1548434809628,-0.992676,-0.212097,0.006897,-8.109756,7.682927,14.939025
1548434809644,-0.989685,-0.210327,0.005920,-4.634146,6.463415,13.170732
1548434809651,-0.988464,-0.215576,0.012268,-2.500000,5.487805,11.341464
1548434809659,-0.985107,-0.232788,0.012207,-0.914634,4.695122,9.207317
1548434809673,-0.981079,-0.245056,0.012268,1.219512,4.085366,7.682927
1548434809681,-0.983398,-0.253418,0.015503,3.048780,2.987805,7.073171
1548434809689,-0.986572,-0.273071,0.014954,3.719512,2.560976,6.097561
1548434809703,-0.987122,-0.288818,0.014099,3.475610,2.195122,5.182927
1548434809711,-0.985840,-0.300781,0.013794,2.378049,1.951220,4.756098
1548434809719,-0.985596,-0.304382,0.014648,1.341463,2.134146,4.695122
1548434809734,-0.986084,-0.309570,0.011108,1.036585,1.768293,4.695122
1548434809741,-0.989502,-0.310852,0.014954,0.914634,1.280488,4.390244
1548434809749,-0.987671,-0.312683,0.010803,0.060976,0.853659,4.085366
1548434809764,-0.994812,-0.305847,0.005554,-1.036585,0.853659,3.658537
1548434809771,-1.001648,-0.283325,0.001160,-1.829268,0.609756,3.292683
1548434809779,-0.996643,-0.275818,-0.008423,-2.073171,0.365854,3.292683
1548434809794,-0.994995,-0.270569,-0.017700,-1.707317,0.548781,2.865854
1548434809801,-0.983948,-0.248840,-0.030029,-0.426829,0.121951,2.195122
1548434809809,-1.008972,-0.241089,-0.037598,0.121951,-0.914634,0.792683
1548434809824,-1.018066,-0.247864,-0.044922,-0.182927,-2.378049,-1.707317
1548434809831,-0.999695,-0.230896,-0.049316,-0.853659,-2.195122,-2.134146
1548434809838,-0.983765,-0.226440,-0.049255,-1.890244,-2.073171,-3.109756
1548434809854,-0.982788,-0.225159,-0.047668,-3.109756,-2.865854,-5.975610
1548434809862,-0.982117,-0.226562,-0.044434,-2.987805,-3.963415,-8.353659
1548434809869,-0.973572,-0.226501,-0.042053,-2.500000,-4.756098,-10.914635
1548434809884,-0.968384,-0.225464,-0.042358,-2.500000,-5.609756,-13.597561
1548434809892,-0.966492,-0.222839,-0.037415,-3.353659,-7.317073,-16.219513
1548434809899,-0.965759,-0.227844,-0.036011,-3.780488,-8.536586,-19.207317
1548434809914,-0.961487,-0.228638,-0.031616,-4.207317,-9.634147,-21.768293
1548434809921,-0.959717,-0.244019,-0.029968,-3.963415,-10.792684,-23.902439
1548434809929,-0.961182,-0.253723,-0.028687,-2.987805,-12.500000,-25.853659
1548434809944,-0.965454,-0.257019,-0.030029,-1.768293,-14.085366,-27.439026
1548434809951,-0.968201,-0.267822,-0.033081,-0.853659,-15.792684,-29.146341
1548434809959,-0.968384,-0.266418,-0.025696,-0.304878,-17.682928,-30.914635
1548434809974,-0.963928,-0.281189,-0.016418,0.853659,-19.024391,-32.195122
1548434809982,-0.962891,-0.289612,-0.011047,2.682927,-20.365854,-33.414635
1548434809989,-0.964417,-0.294861,0.006165,4.817073,-22.134148,-34.268295
1548434810004,-0.961609,-0.314270,0.020569,5.975610,-23.658537,-35.121952
1548434810012,-0.957031,-0.326477,0.028076,5.182927,-24.817074,-36.341465
1548434810019,-0.956848,-0.334412,0.035461,2.682927,-25.853659,-37.500000
1548434810034,-0.947815,-0.367493,0.045776,-0.731707,-26.585367,-38.536587
1548434810042,-0.942322,-0.380432,0.044617,-4.390244,-26.951220,-39.268295
1548434810049,-0.942017,-0.364807,0.043518,-8.658537,-27.500000,-39.451221
1548434810064,-0.939636,-0.363647,0.056030,-13.292684,-27.865854,-40.182926
1548434810074,-0.931580,-0.366516,0.065491,-16.219513,-27.926830,-41.707317
1548434810080,-0.927246,-0.361511,0.071045,-15.426829,-28.109756,-42.743904
1548434810095,-0.926819,-0.356995,0.078064,-11.646341,-28.475611,-43.292683
1548434810102,-0.925659,-0.371704,0.082397,-7.256098,-28.963415,-44.573174
1548434810109,-0.920593,-0.399963,0.081665,-3.902439,-29.085367,-46.219513
1548434810125,-0.913269,-0.415527,0.079773,-2.804878,-29.085367,-47.378052
1548434810132,-0.909485,-0.425781,0.078796,-4.695122,-29.268293,-48.170734
1548434810139,-0.901550,-0.452942,0.083740,-8.414635,-29.024391,-49.207317
1548434810154,-0.892700,-0.477783,0.084351,-12.012196,-28.719513,-50.182926
1548434810161,-0.883972,-0.471924,0.085510,-14.939025,-28.902439,-50.365856
1548434810169,-0.881897,-0.472290,0.093567,-17.378050,-29.024391,-50.609756
1548434810184,-0.875793,-0.476746,0.099548,-18.902439,-29.085367,-51.768295
1548434810191,-0.870911,-0.478577,0.102295,-17.926830,-29.268293,-52.865856
1548434810199,-0.870300,-0.477234,0.104370,-14.329268,-29.756098,-53.292683
1548434810213,-0.868958,-0.494385,0.116943,-10.121951,-30.487806,-53.719513
1548434810222,-0.861572,-0.537415,0.130737,-6.585366,-30.853659,-55.121952
1548434810229,-0.849121,-0.542297,0.135132,-3.353659,-30.731709,-55.731709
1548434810244,-0.847656,-0.562500,0.139404,-1.280488,-30.609756,-54.695122
1548434810252,-0.850647,-0.597229,0.145081,-1.951220,-30.487806,-54.634148
1548434810259,-0.848022,-0.603516,0.142090,-5.060976,-30.365854,-54.451221
1548434810274,-0.836426,-0.603149,0.140503,-10.365854,-29.939026,-53.658539
1548434810282,-0.833496,-0.615173,0.151733,-16.341463,-29.512196,-53.231709
1548434810289,-0.828552,-0.632446,0.166077,-21.524391,-29.390245,-53.109756
1548434810305,-0.819946,-0.612183,0.176941,-25.304878,-28.902439,-52.621952
1548434810312,-0.815186,-0.590942,0.183777,-27.073172,-28.414635,-51.829269
1548434810319,-0.808472,-0.589111,0.182983,-25.000000,-27.560976,-52.134148
1548434810334,-0.801880,-0.582214,0.172485,-17.682928,-27.134148,-52.073174
1548434810342,-0.799133,-0.597473,0.163574,-7.439024,-27.256098,-51.707317
1548434810349,-0.796509,-0.631958,0.158691,1.890244,-27.317074,-52.134148
1548434810365,-0.791748,-0.663635,0.169067,7.865854,-27.560976,-52.500000
1548434810372,-0.781494,-0.709229,0.177002,9.146341,-27.621952,-52.073174
1548434810379,-0.769531,-0.738281,0.179138,5.731708,-27.621952,-51.524391
1548434810394,-0.757690,-0.741455,0.174316,-1.646341,-27.317074,-50.243904
1548434810402,-0.753113,-0.740784,0.172607,-11.097561,-26.768293,-48.902439
1548434810410,-0.744019,-0.729675,0.178955,-20.670732,-26.341463,-48.292683
1548434810424,-0.730774,-0.695923,0.185181,-29.024391,-26.097561,-47.500000
1548434810432,-0.727417,-0.669800,0.186035,-35.731709,-26.097561,-47.256100
1548434810440,-0.727539,-0.656494,0.178955,-40.548782,-25.914635,-48.353661
1548434810454,-0.722717,-0.648071,0.178345,-42.378048,-25.731709,-49.573174
1548434810462,-0.710571,-0.671753,0.175598,-38.353661,-24.756098,-50.000000
1548434810470,-0.699341,-0.694458,0.165222,-27.865854,-24.207317,-50.121952
1548434810485,-0.698120,-0.714355,0.159668,-14.573171,-24.512196,-50.000000
1548434810492,-0.697021,-0.760254,0.171265,-2.195122,-25.365854,-50.121952
1548434810499,-0.691406,-0.799744,0.180969,5.304878,-26.219513,-50.548782
1548434810514,-0.685486,-0.795044,0.183044,6.280488,-26.524391,-50.121952
1548434810522,-0.689819,-0.792725,0.206055,1.524390,-26.524391,-49.207317
1548434810529,-0.683533,-0.805786,0.232971,-5.548780,-26.280489,-48.902439
1548434810544,-0.664917,-0.822083,0.240051,-12.926829,-25.548780,-48.048782
1548434810552,-0.661316,-0.836548,0.242554,-20.670732,-24.390244,-47.439026
1548434810559,-0.663696,-0.827148,0.238342,-27.500000,-23.292683,-46.158539
1548434810574,-0.657104,-0.795898,0.224670,-30.609756,-22.073172,-44.390244
1548434810582,-0.645020,-0.768738,0.203125,-27.256098,-20.731709,-43.231709
1548434810589,-0.642395,-0.766968,0.182678,-16.524391,-20.365854,-41.890244
1548434810605,-0.643250,-0.789490,0.173645,-1.158537,-21.280489,-41.036587
1548434810612,-0.643005,-0.816040,0.173035,12.317074,-22.743902,-40.853661
1548434810619,-0.638855,-0.853333,0.191406,20.000000,-23.902439,-40.426830
1548434810635,-0.623962,-0.872925,0.221741,21.402439,-24.451220,-39.817074
1548434810642,-0.608459,-0.897461,0.252197,16.585365,-24.085367,-38.414635
1548434810649,-0.599304,-0.907349,0.274658,7.439024,-23.231709,-37.500000
1548434810664,-0.592346,-0.882141,0.284119,-3.658537,-21.829269,-36.158539
1548434810672,-0.585815,-0.862671,0.281616,-13.231708,-19.512196,-34.817074
1548434810679,-0.579041,-0.846313,0.269531,-18.292683,-17.804878,-34.634148
1548434810694,-0.577087,-0.832703,0.262268,-17.682928,-16.646341,-33.780487
1548434810702,-0.577087,-0.841431,0.248169,-11.341464,-15.731708,-32.560978
1548434810709,-0.576416,-0.847229,0.238525,-0.243902,-15.304878,-31.585367
1548434810724,-0.581360,-0.853638,0.231201,12.439025,-15.365854,-30.426830
1548434810732,-0.579529,-0.862244,0.222351,23.170732,-15.731708,-29.817074
1548434810739,-0.576660,-0.863831,0.221375,30.853659,-16.219513,-29.451220
1548434810754,-0.571960,-0.864807,0.227783,34.817074,-16.829269,-28.780489
1548434810762,-0.568909,-0.859253,0.232727,34.634148,-17.500000,-27.926830
1548434810769,-0.563416,-0.850769,0.245239,30.243902,-17.865854,-27.073172
1548434810784,-0.554932,-0.826294,0.263245,22.560976,-17.987804,-26.829269
1548434810792,-0.544922,-0.802063,0.275391,12.804878,-18.048780,-27.560976
1548434810799,-0.526489,-0.794067,0.280273,1.707317,-16.951220,-28.292683
1548434810814,-0.513733,-0.800964,0.270203,-7.317073,-15.365854,-28.963415
1548434810822,-0.503906,-0.813538,0.257629,-11.768293,-14.207317,-29.817074
1548434810830,-0.496826,-0.808655,0.238220,-11.707317,-13.597561,-30.060976
1548434810845,-0.491699,-0.796753,0.219788,-9.817074,-13.719513,-30.548780
1548434810852,-0.491821,-0.805908,0.219116,-6.890244,-14.390244,-31.951220
1548434810859,-0.486938,-0.827026,0.227173,-2.926829,-15.426829,-33.719513
1548434810874,-0.479248,-0.825623,0.227173,0.975610,-16.402439,-35.000000
1548434810882,-0.474060,-0.821655,0.243896,3.719512,-17.439024,-35.609756
1548434810889,-0.471130,-0.825500,0.265686,3.963415,-18.536585,-36.646343
1548434810904,-0.458618,-0.841492,0.279236,1.463415,-19.024391,-37.804878
1548434810912,-0.446960,-0.872314,0.289551,-3.292683,-18.780489,-38.841465
1548434810919,-0.440857,-0.895874,0.290588,-9.207317,-18.353659,-39.451221
1548434810934,-0.433838,-0.897827,0.286621,-15.304878,-17.439024,-39.146343
1548434810942,-0.434998,-0.885498,0.274841,-20.487804,-16.768293,-38.719513
1548434810949,-0.434387,-0.863586,0.261719,-23.780489,-16.646341,-39.390244
1548434810964,-0.433044,-0.846558,0.242920,-23.841463,-16.646341,-40.060978
1548434810972,-0.434265,-0.837585,0.229248,-21.219513,-17.134148,-40.609756
1548434810979,-0.434753,-0.842285,0.216797,-17.256098,-17.865854,-41.585365
1548434810994,-0.426453,-0.857178,0.214722,-13.780488,-18.963415,-42.621952
1548434811002,-0.410522,-0.881165,0.223755,-12.012196,-19.817074,-43.780487
1548434811009,-0.386780,-0.901184,0.233704,-12.682927,-20.243902,-45.121952
1548434811024,-0.365234,-0.906799,0.244324,-15.304878,-20.182928,-45.975613
1548434811032,-0.350159,-0.910767,0.254089,-19.756098,-19.939024,-46.707317
1548434811040,-0.339111,-0.913879,0.260681,-25.853659,-19.329269,-47.743904
1548434811054,-0.324646,-0.921265,0.258423,-32.378048,-18.292683,-48.780487
1548434811062,-0.313843,-0.933777,0.253357,-37.621952,-17.073172,-49.329269
1548434811069,-0.303345,-0.927185,0.235779,-39.085365,-16.097561,-49.512196
1548434811084,-0.297852,-0.915894,0.219421,-36.768295,-15.426829,-49.207317
1548434811092,-0.299927,-0.913696,0.205750,-31.463415,-15.365854,-49.390244
1548434811099,-0.300354,-0.919861,0.200684,-24.268293,-16.158537,-50.609756
1548434811114,-0.294922,-0.933655,0.196899,-16.768293,-16.768293,-51.158539
1548434811122,-0.288513,-0.929626,0.204468,-10.365854,-17.439024,-51.707317
1548434811129,-0.284241,-0.918701,0.218689,-6.951220,-18.109756,-52.378052
1548434811144,-0.272278,-0.944397,0.234192,-6.524390,-18.536585,-53.536587
1548434811152,-0.247620,-0.986755,0.240234,-7.134147,-18.231709,-54.146343
1548434811159,-0.227478,-0.996826,0.238220,-8.048780,-17.682928,-53.231709
1548434811174,-0.226501,-0.985840,0.230408,-10.243902,-17.560976,-51.524391
1548434811182,-0.231567,-0.989319,0.221191,-14.756098,-17.500000,-51.097561
1548434811189,-0.232239,-0.983582,0.213013,-20.121952,-17.621952,-51.524391
1548434811204,-0.223572,-0.989136,0.207947,-25.060976,-17.500000,-51.524391
1548434811212,-0.208496,-0.985046,0.201965,-28.414635,-16.951220,-51.341465
1548434811219,-0.198303,-0.962158,0.201782,-28.780489,-16.524391,-51.585365
1548434811234,-0.195862,-0.959167,0.216370,-26.829269,-16.219513,-52.012196
1548434811242,-0.176208,-0.956665,0.236816,-21.219513,-15.548780,-53.353661
1548434811249,-0.141235,-0.948181,0.240967,-10.426829,-14.573171,-53.414635
1548434811264,-0.133667,-0.983948,0.240173,1.341463,-13.597561,-53.048782
1548434811272,-0.135254,-1.029236,0.236206,10.853659,-13.170732,-53.902439
1548434811279,-0.132690,-1.028870,0.218628,16.158537,-12.317074,-53.170734
1548434811294,-0.131470,-1.044678,0.205444,16.829269,-10.914635,-51.768295
1548434811302,-0.133545,-1.077515,0.194092,13.902439,-9.817074,-51.402439
1548434811309,-0.126343,-1.081299,0.190918,8.841464,-9.024390,-50.548782
1548434811324,-0.120911,-1.068848,0.190369,1.768293,-8.475610,-48.963417
1548434811332,-0.118164,-1.073608,0.200806,-5.548780,-8.170732,-47.804878
1548434811339,-0.103210,-1.068604,0.215576,-10.304878,-8.109756,-46.707317
1548434811356,-0.081543,-1.032959,0.224548,-11.463415,-7.804878,-45.000000
1548434811364,-0.070190,-1.015991,0.223816,-10.548780,-7.195122,-44.024391
1548434811370,-0.066772,-1.019165,0.220276,-7.256098,-7.195122,-43.963417
1548434811401,-0.056396,-1.027771,0.208374,-2.195122,-7.682927,-42.926830
1548434811401,-0.049438,-1.040161,0.189636,1.341463,-7.743903,-41.585365
1548434811403,-0.052551,-1.051086,0.176636,2.682927,-7.987805,-40.304878
1548434811416,-0.051636,-1.050171,0.168579,2.012195,-8.719512,-38.719513
1548434811430,-0.045593,-1.055481,0.171448,-0.548781,-9.268292,-36.829269
1548434811431,-0.033142,-1.070496,0.176208,-2.926829,-9.939025,-35.060978
1548434811476,-0.013123,-1.059998,0.179321,-2.682927,-10.548780,-32.926830
1548434811476,-0.012512,-1.026917,0.181946,-0.792683,-11.585366,-31.829269
1548434811476,-0.013245,-0.993225,0.185181,0.365854,-12.926829,-31.158537
1548434811478,-0.004150,-0.985229,0.177917,3.475610,-13.475610,-30.487806
1548434811481,0.001709,-0.988647,0.171997,9.573171,-14.207317,-30.304878
1548434811489,-0.004944,-1.006592,0.180298,13.414635,-15.487805,-30.121952
1548434811517,0.010803,-1.005310,0.180176,11.402439,-16.219513,-30.060976
1548434811519,0.026306,-1.008423,0.171570,7.378049,-15.853659,-29.268293
1548434811519,0.033081,-1.023499,0.174805,2.012195,-14.878049,-30.304878
1548434811534,0.046448,-1.024963,0.173706,-2.317073,-14.573171,-30.914635
1548434811541,0.058838,-0.977783,0.174194,-5.975610,-14.390244,-30.609756
1548434811549,0.060547,-0.949646,0.178650,-7.621952,-14.573171,-29.939026
1548434811563,0.060608,-0.976501,0.190125,-4.878049,-15.060976,-30.365854
1548434811571,0.057800,-0.984436,0.198792,-1.463415,-15.426829,-31.524391
1548434811578,0.062195,-0.954956,0.203979,0.121951,-15.731708,-31.463415
1548434811594,0.065308,-0.936707,0.210083,0.000000,-16.097561,-31.402439
1548434811601,0.060608,-0.927673,0.218262,-0.365854,-16.402439,-33.109756
1548434811609,0.066895,-0.901917,0.221924,-0.609756,-16.646341,-34.390244
1548434811624,0.079285,-0.879089,0.224365,0.243902,-16.646341,-35.731709
1548434811632,0.084534,-0.890869,0.231934,5.182927,-17.134148,-37.743904
1548434811639,0.098022,-0.900208,0.237671,11.524390,-17.439024,-40.060978
1548434811655,0.116577,-0.895081,0.255798,16.219513,-16.890244,-42.621952
1548434811662,0.142700,-0.919800,0.269470,23.048780,-16.646341,-43.414635
1548434811669,0.161865,-0.955505,0.285767,35.304878,-17.317074,-43.658539
1548434811685,0.172974,-1.000916,0.275085,52.378052,-20.060976,-40.853661
1548434811692,0.147888,-1.112488,0.260315,69.024391,-22.804878,-38.963417
1548434811699,0.127197,-1.326782,0.226135,84.268295,-27.621952,-35.304878
1548434811714,0.112366,-1.587463,0.201233,95.000000,-30.853659,-26.646341
1548434811722,0.116516,-1.577454,0.277283,92.500000,-32.317074,-18.719513
1548434811729,0.130249,-1.231750,0.382935,77.439026,-30.487806,-11.280488
1548434811745,0.103516,-0.948669,0.408813,49.512196,-23.292683,-8.597561
1548434811752,0.102295,-0.903015,0.403931,30.731709,-17.560976,-6.707317
1548434811759,0.132446,-0.946045,0.385498,30.609756,-13.780488,-6.402439
1548434811774,0.142456,-0.955750,0.372559,35.731709,-11.280488,-6.585366
1548434811782,0.137451,-0.925842,0.357300,32.804878,-9.634147,-6.219512
1548434811789,0.141846,-0.871460,0.348633,21.219513,-7.926829,-7.378049
1548434811804,0.159668,-0.866577,0.341553,10.365854,-5.914634,-8.780488
1548434811812,0.176880,-0.935181,0.330933,2.743902,-4.207317,-11.036586
1548434811819,0.181702,-1.007080,0.328430,1.158537,-3.658537,-12.865854
1548434811834,0.187012,-0.982056,0.329041,3.109756,-5.182927,-11.036586
1548434811842,0.178772,-0.965942,0.316162,8.780488,-6.280488,-8.048780
1548434811849,0.163452,-0.987061,0.323486,14.634147,-7.317073,-7.500000
1548434811864,0.166321,-0.978577,0.327515,16.524391,-8.353659,-7.804878
1548434811872,0.174438,-0.951111,0.327881,12.378049,-7.621952,-7.682927
1548434811879,0.186951,-0.932434,0.339172,7.317073,-7.317073,-7.073171
1548434811894,0.194763,-0.938293,0.346375,7.012195,-7.804878,-6.402439
1548434811902,0.186829,-0.948914,0.353516,10.487805,-8.475610,-5.670732
1548434811909,0.189575,-0.947998,0.345032,11.463415,-9.024390,-4.085366
1548434811924,0.186584,-0.931641,0.345215,9.695122,-8.963415,-3.048780
1548434811932,0.191528,-0.927368,0.339417,7.743903,-8.780488,-1.829268
1548434811939,0.186218,-0.939575,0.340759,9.451220,-8.353659,-1.280488
1548434811954,0.182922,-0.950256,0.344727,11.585366,-8.292683,-0.548781
1548434811962,0.180969,-0.942932,0.351990,11.463415,-8.170732,-0.121951
1548434811969,0.181091,-0.938965,0.353882,9.878049,-7.500000,0.304878
1548434811984,0.181824,-0.940979,0.350464,8.902439,-6.768293,0.365854
1548434811992,0.178772,-0.938538,0.355591,8.414635,-6.463415,0.243902
1548434811999,0.180786,-0.948975,0.352722,7.560976,-5.914634,0.182927
1548434812017,0.174988,-0.940918,0.357300,6.463415,-5.487805,-0.304878
1548434812021,0.176331,-0.932800,0.354858,4.329268,-5.000000,-0.365854
1548434812029,0.180420,-0.941956,0.352966,3.414634,-4.390244,-0.853659
1548434812044,0.180664,-0.944031,0.353027,3.170732,-4.329268,-1.585366
1548434812051,0.182373,-0.943054,0.348511,1.646341,-3.902439,-1.707317
1548434812059,0.179810,-0.935974,0.349915,-0.182927,-3.475610,-1.890244
1548434812074,0.184631,-0.931274,0.352478,-1.463415,-3.170732,-1.951220
1548434812081,0.188354,-0.933777,0.351196,-1.951220,-2.804878,-2.256098
1548434812089,0.187683,-0.935120,0.348022,-1.463415,-2.500000,-2.378049
1548434812104,0.186951,-0.935547,0.344543,-1.097561,-2.317073,-2.195122
1548434812112,0.189575,-0.934143,0.345032,-1.036585,-2.195122,-1.890244
1548434812119,0.190918,-0.933289,0.342590,-1.097561,-2.073171,-1.524390
1548434812134,0.190613,-0.932495,0.342590,-0.426829,-1.951220,-1.158537
1548434812142,0.189026,-0.932495,0.339722,-0.121951,-1.890244,-0.853659
1548434812149,0.188721,-0.935120,0.339661,0.121951,-1.829268,-0.792683
1548434812164,0.188660,-0.932861,0.340149,0.304878,-1.768293,-0.731707
1548434812171,0.192444,-0.932251,0.341675,0.670732,-1.890244,-0.487805
1548434812179,0.189331,-0.936340,0.341797,0.792683,-1.951220,-0.365854
1548434812194,0.189087,-0.941528,0.339539,0.426829,-2.073171,-0.426829
1548434812202,0.188110,-0.933838,0.340576,-0.853659,-2.134146,-0.304878
1548434812209,0.190552,-0.934448,0.339783,-2.743902,-2.256098,-0.182927
1548434812224,0.187378,-0.926453,0.342834,-2.804878,-2.195122,-0.304878
1548434812231,0.188477,-0.929016,0.339905,-2.256098,-2.195122,-0.243902
1548434812239,0.189209,-0.935791,0.338501,-1.158537,-2.195122,-0.609756
1548434812254,0.189087,-0.936035,0.339844,-0.060976,-2.134146,-0.609756
1548434812261,0.190613,-0.935547,0.338928,0.121951,-2.073171,-0.731707
1548434812269,0.191223,-0.936523,0.339905,0.182927,-2.012195,-0.853659
1548434812284,0.190918,-0.939758,0.338562,0.121951,-1.890244,-0.914634
1548434812291,0.190186,-0.939209,0.338074,-0.487805,-1.890244,-0.914634
1548434812303,0.195190,-0.934387,0.338074,-1.951220,-1.890244,-0.792683
1548434812327,0.190308,-0.930969,0.341370,-2.317073,-1.768293,-0.731707
1548434812328,0.192383,-0.930847,0.339722,-1.829268,-1.707317,-0.426829
1548434812335,0.192139,-0.935486,0.337158,-1.219512,-1.585366,-0.487805
1548434812347,0.191101,-0.936035,0.338318,-0.914634,-1.646341,-0.487805
1548434812351,0.190186,-0.935425,0.337036,-1.463415,-1.707317,-0.365854
1548434812358,0.191833,-0.934875,0.337524,-1.951220,-1.585366,-0.548781
1548434812373,0.191101,-0.933655,0.337036,-1.951220,-1.585366,-0.426829
1548434812381,0.190369,-0.934692,0.340942,-1.585366,-1.524390,-0.304878
1548434812389,0.196045,-0.934998,0.340149,-1.646341,-1.585366,-0.731707
1548434812404,0.193298,-0.934448,0.338623,-1.158537,-1.463415,-0.975610
1548434812411,0.194885,-0.933960,0.337830,-0.853659,-1.646341,-0.853659
1548434812419,0.195984,-0.934814,0.336853,-0.731707,-1.524390,-0.853659
1548434812434,0.193787,-0.934692,0.336548,-0.365854,-1.402439,-0.609756
1548434812441,0.193420,-0.934509,0.337158,-0.121951,-1.341463,-0.426829
1548434812449,0.194641,-0.936279,0.334351,0.000000,-1.219512,-0.304878
1548434812463,0.194824,-0.938049,0.335022,0.000000,-1.158537,-0.365854
1548434812471,0.193787,-0.936890,0.335632,0.000000,-1.036585,-0.243902
1548434812478,0.196350,-0.937012,0.334961,-0.182927,-1.097561,-0.243902
1548434812494,0.195312,-0.938110,0.335144,-0.304878,-1.097561,-0.243902
1548434812501,0.193542,-0.936096,0.334595,-0.365854,-1.036585,-0.060976
1548434812509,0.194519,-0.936462,0.334534,-0.548781,-0.975610,0.000000
1548434812542,0.194031,-0.935242,0.334412,-0.670732,-0.975610,-0.060976
1548434812542,0.195496,-0.934082,0.333618,-0.426829,-1.036585,0.060976
1548434812543,0.195801,-0.935303,0.333435,-0.182927,-0.975610,-0.060976
1548434812554,0.193970,-0.933899,0.331665,-0.182927,-1.036585,-0.060976
1548434812561,0.194885,-0.934204,0.332214,0.000000,-0.975610,0.121951
1548434812568,0.196289,-0.937500,0.335083,0.060976,-0.914634,0.000000
1548434812583,0.197083,-0.936462,0.335571,0.182927,-0.853659,0.243902
1548434812591,0.195129,-0.934570,0.332153,0.365854,-0.731707,0.426829
1548434812598,0.195068,-0.935120,0.330627,0.487805,-0.853659,0.670732
1548434812613,0.195007,-0.935059,0.332520,0.609756,-0.853659,1.036585
1548434812621,0.192505,-0.937561,0.334534,0.914634,-0.975610,1.158537
1548434812628,0.192078,-0.936035,0.333740,0.975610,-0.914634,1.097561
1548434812643,0.191406,-0.936584,0.334473,1.036585,-0.914634,0.914634
1548434812651,0.193115,-0.936462,0.333191,1.280488,-0.914634,0.731707
1548434812658,0.192932,-0.936768,0.335266,1.463415,-0.914634,0.548781
1548434812673,0.194153,-0.938110,0.335999,1.646341,-0.914634,0.365854
1548434812681,0.194580,-0.939941,0.337646,1.585366,-1.036585,0.182927
1548434812688,0.193909,-0.940002,0.338562,1.219512,-1.036585,0.060976
1548434812703,0.193481,-0.939697,0.336243,0.853659,-0.975610,0.060976
1548434812711,0.195862,-0.938843,0.336731,0.731707,-0.975610,0.060976
1548434812719,0.194092,-0.939148,0.338501,0.548781,-1.036585,0.121951
1548434812733,0.195251,-0.938782,0.336975,0.121951,-0.792683,0.182927
1548434812741,0.194458,-0.938232,0.337097,-0.182927,-0.731707,0.243902
1548434812748,0.194458,-0.937195,0.335022,-0.304878,-0.792683,0.182927
1548434812764,0.194336,-0.936096,0.331848,-0.609756,-0.731707,0.182927
1548434812771,0.193665,-0.933228,0.332031,-0.548781,-0.731707,0.121951
1548434812779,0.194580,-0.935303,0.332642,-0.182927,-0.731707,0.060976
1548434812794,0.195435,-0.934265,0.331970,0.304878,-0.792683,0.000000
1548434812801,0.196899,-0.935486,0.332520,0.731707,-0.853659,0.000000
1548434812808,0.195557,-0.938171,0.335266,0.975610,-0.975610,0.000000
1548434812824,0.194702,-0.938354,0.333740,1.158537,-1.097561,-0.060976
1548434812831,0.194458,-0.938049,0.334473,0.975610,-1.219512,0.243902
1548434812839,0.193481,-0.937439,0.335266,0.731707,-1.219512,0.426829
1548434812853,0.192444,-0.937683,0.337585,0.609756,-1.097561,0.548781
1548434812861,0.192200,-0.935974,0.334473,0.487805,-1.036585,0.487805
1548434812868,0.191284,-0.935425,0.333984,0.426829,-1.036585,0.243902
1548434812883,0.192749,-0.937683,0.337341,0.426829,-0.975610,0.182927
1548434812891,0.193298,-0.938721,0.335754,0.548781,-0.914634,0.121951
1548434812898,0.192200,-0.937439,0.335022,0.609756,-0.792683,0.000000
1548434812913,0.194092,-0.938171,0.338440,0.487805,-0.792683,0.000000
1548434812921,0.196716,-0.939331,0.339355,0.304878,-0.792683,0.000000
1548434812929,0.194763,-0.936462,0.337769,0.182927,-0.670732,0.060976
1548434812944,0.195007,-0.938293,0.337036,-0.060976,-0.731707,0.182927
1548434812951,0.195679,-0.938660,0.334412,-0.243902,-0.731707,0.365854
1548434812959,0.193420,-0.936890,0.335144,-0.426829,-0.853659,0.426829
1548434812974,0.194519,-0.937988,0.334106,-0.487805,-0.792683,0.487805
1548434812981,0.192749,-0.936218,0.333801,-0.365854,-0.792683,0.365854
1548434812989,0.192566,-0.936157,0.336792,-0.243902,-0.914634,0.365854
1548434813004,0.193420,-0.936951,0.335938,0.000000,-0.853659,0.365854
1548434813011,0.194092,-0.935181,0.335815,-0.121951,-0.853659,0.426829
1548434813019,0.193848,-0.933044,0.335571,-0.182927,-0.914634,0.304878
1548434813033,0.191467,-0.933411,0.335144,-0.182927,-0.853659,0.121951
1548434813041,0.192688,-0.934998,0.334045,-0.060976,-0.853659,-0.121951
1548434813049,0.195923,-0.936157,0.335510,0.182927,-0.914634,-0.121951
1548434813064,0.195923,-0.937073,0.334961,0.365854,-0.792683,-0.243902
1548434813071,0.195740,-0.937134,0.334229,0.426829,-0.853659,-0.243902
1548434813078,0.197083,-0.936707,0.336304,0.304878,-0.853659,-0.121951
1548434813094,0.195190,-0.939392,0.335693,0.121951,-0.792683,0.000000
1548434813101,0.195007,-0.936707,0.333984,-0.182927,-0.670732,0.060976
1548434813109,0.197937,-0.935486,0.333984,-0.365854,-0.731707,0.121951
1548434813123,0.196777,-0.932556,0.331909,-0.487805,-0.670732,0.243902
1548434813131,0.194885,-0.933167,0.332214,-0.548781,-0.731707,0.426829
1548434813138,0.194824,-0.934631,0.332703,-0.426829,-0.853659,0.548781
1548434813153,0.194031,-0.934021,0.334961,-0.060976,-0.914634,0.670732
1548434813161,0.194824,-0.934814,0.331482,0.060976,-0.975610,0.670732
1548434813168,0.193909,-0.936646,0.332642,0.243902,-1.036585,0.731707
1548434813183,0.192749,-0.934875,0.335144,0.670732,-1.036585,0.670732
1548434813191,0.192078,-0.936218,0.332458,0.670732,-0.975610,0.670732
1548434813198,0.193176,-0.937561,0.335144,0.609756,-0.975610,0.548781
1548434813213,0.192383,-0.936584,0.336914,0.487805,-0.853659,0.426829
1548434813221,0.191406,-0.937622,0.336365,0.243902,-0.853659,0.304878
1548434813229,0.194092,-0.939087,0.335938,0.121951,-0.731707,0.243902
1548434813243,0.195557,-0.938965,0.337402,-0.060976,-0.426829,0.243902
1548434813251,0.195496,-0.936829,0.334595,-0.182927,-0.304878,0.548781
1548434813258,0.195984,-0.935242,0.329956,-0.243902,-0.182927,0.853659
1548434813273,0.194458,-0.930054,0.323975,0.182927,0.121951,1.280488
