timestamp, accel_x, accel_y, accel_z, gyro_x, gyro_y, gyro_z
1548439399778,-0.720459,0.557739,-0.263367,12.621951,-11.036586,6.341464
1548439399786,-0.714355,0.562988,-0.260681,14.756098,-10.548780,5.975610
1548439399800,-0.695251,0.568970,-0.255310,16.341463,-10.365854,5.060976
1548439399808,-0.678833,0.570679,-0.245239,17.439024,-9.817074,4.024390
1548439399815,-0.671570,0.564758,-0.241699,19.390244,-9.939025,2.560976
1548439399830,-0.654968,0.561035,-0.244202,21.646341,-9.634147,0.731707
1548439399838,-0.643005,0.559631,-0.255676,22.987806,-9.146341,-1.036585
1548439399845,-0.645935,0.555054,-0.265015,23.658537,-9.268292,-2.621951
1548439399861,-0.640137,0.549377,-0.258911,23.536587,-9.451220,-4.207317
1548439399868,-0.638977,0.547424,-0.253662,22.256098,-9.207317,-5.914634
1548439399875,-0.638367,0.548523,-0.242126,20.060976,-8.719512,-7.500000
1548439399890,-0.629028,0.536499,-0.232483,17.987804,-7.804878,-9.512196
1548439399898,-0.628540,0.528564,-0.227478,17.012196,-6.707317,-11.585366
1548439399906,-0.628540,0.531494,-0.234131,16.585365,-5.304878,-13.780488
1548439399921,-0.629700,0.528992,-0.239502,17.073172,-4.329268,-16.402439
1548439399928,-0.633179,0.521667,-0.242249,19.329269,-3.658537,-19.085367
1548439399935,-0.642944,0.510925,-0.247253,23.048780,-2.987805,-21.524391
1548439399950,-0.633850,0.489807,-0.246277,27.134148,-2.378049,-23.902439
1548439399958,-0.623169,0.471069,-0.244690,31.219513,-1.707317,-25.975611
1548439399965,-0.629700,0.452454,-0.242554,34.573170,-1.463415,-27.926830
1548439399980,-0.642883,0.441223,-0.244690,36.646343,-0.914634,-29.817074
1548439399988,-0.651550,0.432861,-0.258728,38.780487,0.000000,-31.585367
1548439399995,-0.659424,0.426453,-0.269836,39.390244,0.731707,-33.414635
1548439400011,-0.669189,0.418396,-0.279846,39.085365,1.829268,-35.609756
1548439400018,-0.669434,0.416382,-0.278259,39.451221,2.560976,-38.109756
1548439400025,-0.673218,0.402771,-0.283142,41.097561,2.865854,-40.792683
1548439400040,-0.667847,0.381409,-0.272827,43.963417,3.353659,-43.414635
1548439400048,-0.653687,0.383545,-0.253662,47.560978,4.390244,-45.975613
1548439400056,-0.674866,0.396545,-0.252930,52.926830,5.243903,-48.963417
1548439400071,-0.715759,0.387939,-0.276062,60.914635,6.158537,-51.768295
1548439400078,-0.731812,0.346863,-0.291992,70.975609,8.292683,-53.536587
1548439400085,-0.750366,0.310120,-0.303833,78.109756,10.182927,-55.000000
1548439400100,-0.767578,0.289551,-0.331665,77.926834,11.219512,-56.524391
1548439400108,-0.770325,0.272461,-0.355835,73.292686,12.378049,-57.804878
1548439400115,-0.768860,0.260498,-0.378296,68.597565,13.536586,-59.268295
1548439400131,-0.782837,0.242371,-0.399475,64.085365,14.512196,-60.792683
1548439400138,-0.797668,0.221313,-0.423218,60.853661,14.878049,-62.560978
1548439400145,-0.813049,0.248718,-0.444946,58.536587,15.243903,-64.146339
1548439400160,-0.835571,0.258972,-0.461426,56.463417,15.243903,-65.487808
1548439400168,-0.847046,0.209290,-0.460754,57.378052,14.634147,-67.804878
1548439400175,-0.847656,0.177795,-0.451111,61.768295,13.841464,-69.390244
1548439400190,-0.841675,0.154419,-0.452881,66.402443,13.231708,-70.182930
1548439400198,-0.831299,0.119080,-0.476135,68.841469,12.439025,-71.341469
1548439400206,-0.813110,0.104980,-0.496521,70.426834,11.890244,-72.987808
1548439400220,-0.794617,0.110168,-0.504089,70.731712,11.219512,-75.060974
1548439400228,-0.806213,0.119873,-0.497192,71.158539,9.939025,-77.743904
1548439400235,-0.833252,0.090210,-0.463318,74.573174,8.658537,-81.097565
1548439400251,-0.850403,0.050049,-0.413269,81.646347,8.170732,-84.451225
1548439400258,-0.883728,0.006775,-0.367920,88.231712,8.231708,-86.585365
1548439400266,-0.911377,-0.042358,-0.369629,94.634148,10.060976,-87.560974
1548439400280,-0.934387,-0.067566,-0.434753,101.219513,13.536586,-87.195122
1548439400288,-0.959656,-0.083740,-0.510986,101.585365,17.012196,-85.731712
1548439400296,-0.966370,-0.096069,-0.590210,97.012199,21.951220,-85.365852
1548439400311,-0.941284,-0.073730,-0.603516,91.036591,25.121952,-84.634148
1548439400318,-0.958252,-0.107727,-0.715942,84.512199,27.865854,-82.012199
1548439400326,-0.933838,-0.119263,-0.641907,90.609756,31.219513,-83.963417
1548439400341,-0.926880,-0.131165,-0.599609,77.134148,21.646341,-77.804878
1548439400348,-0.921448,-0.129150,-0.574097,75.731712,18.902439,-77.134148
1548439400356,-0.924377,-0.131104,-0.567810,80.000000,18.170732,-78.963417
1548439400371,-0.942688,-0.131165,-0.583069,83.231712,18.658537,-80.365852
1548439400378,-0.955566,-0.102966,-0.588013,85.365852,20.609756,-80.975609
1548439400386,-0.941650,-0.121887,-0.586365,87.256096,23.292683,-80.792686
1548439400400,-0.935181,-0.171326,-0.585449,88.841469,25.243902,-79.085365
1548439400408,-0.931885,-0.191406,-0.587708,87.682930,26.219513,-77.012199
1548439400416,-0.932983,-0.237061,-0.591553,81.707321,27.134148,-76.097565
1548439400430,-0.935547,-0.283386,-0.608948,75.243904,27.256098,-75.914635
1548439400438,-0.945984,-0.291748,-0.657104,70.548782,26.097561,-75.548782
1548439400446,-0.957825,-0.282898,-0.706543,66.585365,26.097561,-75.365852
1548439400461,-0.970947,-0.295410,-0.725525,66.158539,25.792683,-75.243904
1548439400468,-0.977661,-0.279480,-0.726135,68.963417,24.085367,-73.963417
1548439400476,-0.967285,-0.301331,-0.711609,71.219513,22.987806,-72.682930
1548439400491,-0.962830,-0.338867,-0.704651,70.304878,22.012196,-70.731712
1548439400498,-0.962769,-0.361206,-0.678528,67.743904,19.939024,-67.012199
1548439400506,-0.957153,-0.388367,-0.646423,61.402439,18.536585,-62.865856
1548439400520,-0.950134,-0.413452,-0.659119,53.658539,18.231709,-58.414635
1548439400528,-0.943542,-0.387329,-0.661865,48.475613,17.682928,-55.609756
1548439400535,-0.925049,-0.379395,-0.677673,45.182926,18.597561,-53.109756
1548439400551,-0.906128,-0.392883,-0.689514,45.426830,19.207317,-51.585365
1548439400558,-0.899902,-0.331848,-0.649719,48.597561,18.170732,-49.817074
1548439400565,-0.895691,-0.369019,-0.658630,50.426830,18.658537,-48.902439
1548439400581,-0.878174,-0.440369,-0.640137,53.109756,18.780489,-48.658539
1548439400588,-0.865845,-0.461731,-0.649658,56.951221,17.073172,-47.073174
1548439400596,-0.831299,-0.464600,-0.619995,59.268295,15.853659,-44.756100
1548439400611,-0.800842,-0.386108,-0.535095,59.390244,15.609756,-42.987804
1548439400618,-0.826538,-0.417175,-0.542297,52.439026,16.646341,-43.963417
1548439400626,-0.837219,-0.578979,-0.589783,49.695122,18.658537,-45.121952
1548439400641,-0.848816,-0.612915,-0.642761,52.804878,19.695122,-41.280487
1548439400648,-0.843567,-0.585876,-0.689026,45.060978,21.402439,-36.707317
1548439400655,-0.826904,-0.576904,-0.701599,37.134148,21.402439,-33.841465
1548439400671,-0.823792,-0.552734,-0.685791,37.743904,20.243902,-30.304878
1548439400678,-0.825012,-0.548645,-0.657837,45.121952,18.170732,-25.365854
1548439400686,-0.792419,-0.584961,-0.670898,53.963417,16.402439,-22.439024
1548439400701,-0.779053,-0.542175,-0.661987,54.573174,14.268293,-20.000000
1548439400708,-0.760925,-0.522705,-0.664612,45.853661,13.658537,-18.963415
1548439400715,-0.742859,-0.460510,-0.648010,38.292683,11.890244,-17.682928
1548439400731,-0.744446,-0.373779,-0.604431,33.109756,9.512196,-17.865854
1548439400738,-0.744019,-0.406738,-0.606140,26.890245,8.597561,-20.304878
1548439400745,-0.735046,-0.481079,-0.625488,29.817074,7.378049,-22.439024
1548439400760,-0.715698,-0.493652,-0.589417,40.853661,5.975610,-22.134148
1548439400768,-0.707703,-0.530029,-0.545715,44.451221,6.036585,-23.109756
1548439400775,-0.703674,-0.621704,-0.570374,40.000000,6.707317,-25.182928
1548439400791,-0.701660,-0.680908,-0.578918,40.000000,5.426829,-24.207317
1548439400798,-0.705688,-0.723083,-0.522766,38.536587,3.109756,-21.585367
1548439400813,-0.695068,-0.709778,-0.487671,27.621952,1.646341,-20.000000
1548439400821,-0.686401,-0.633057,-0.453186,11.036586,2.500000,-18.780489
1548439400828,-0.684448,-0.596008,-0.434143,-2.073171,4.634146,-17.256098
1548439400836,-0.687866,-0.572205,-0.441406,-4.146341,6.219512,-15.731708
1548439400850,-0.680298,-0.558716,-0.458984,-0.243902,7.682927,-15.121951
1548439400858,-0.680054,-0.571594,-0.465698,5.670732,9.329268,-15.121951
1548439400865,-0.681580,-0.629700,-0.448425,13.414635,10.365854,-14.878049
1548439400880,-0.687134,-0.663330,-0.447754,20.975611,12.012196,-14.390244
1548439400888,-0.693848,-0.687988,-0.471008,24.634148,13.414635,-13.048780
1548439400895,-0.691895,-0.725403,-0.478638,27.621952,13.048780,-10.853659
1548439400911,-0.687256,-0.725098,-0.470764,30.365854,12.012196,-8.170732
1548439400918,-0.677490,-0.661255,-0.436584,28.780489,11.951220,-5.548780
1548439400925,-0.672791,-0.621033,-0.421692,23.963415,12.987805,-4.207317
1548439400941,-0.683655,-0.629517,-0.418823,22.682928,13.780488,-3.353659
1548439400948,-0.687988,-0.650696,-0.445190,23.170732,14.085366,-2.439024
1548439400956,-0.662659,-0.641724,-0.480652,20.487804,15.182927,-1.402439
1548439400971,-0.619751,-0.547852,-0.492798,16.219513,15.304878,-0.670732
1548439400978,-0.601379,-0.496704,-0.510132,8.902439,15.426829,-2.439024
1548439400986,-0.605286,-0.530518,-0.536377,5.182927,15.365854,-5.914634
1548439401001,-0.587891,-0.519531,-0.618164,8.048780,14.573171,-7.073171
1548439401008,-0.587952,-0.504944,-0.524353,11.036586,12.073171,-9.329268
1548439401015,-0.608704,-0.629578,-0.516785,9.939025,9.024390,-13.719513
1548439401030,-0.627563,-0.722229,-0.510376,6.280488,10.853659,-15.182927
1548439401038,-0.638000,-0.770569,-0.496216,10.487805,9.756098,-12.500000
1548439401046,-0.642517,-0.737793,-0.528015,7.804878,11.585366,-10.487805
1548439401060,-0.631226,-0.683411,-0.535522,3.170732,11.768293,-8.353659
1548439401068,-0.633789,-0.593140,-0.578857,1.463415,12.560976,-7.804878
1548439401076,-0.623108,-0.546143,-0.612305,5.182927,12.439025,-7.317073
1548439401090,-0.608459,-0.563721,-0.624451,13.719513,9.878049,-8.780488
1548439401098,-0.597290,-0.575317,-0.618896,20.548780,7.256098,-10.731708
1548439401105,-0.584961,-0.586731,-0.600037,25.304878,4.756098,-12.500000
1548439401121,-0.581665,-0.625549,-0.562683,28.597561,2.743902,-14.756098
1548439401128,-0.584045,-0.658325,-0.542358,30.304878,1.219512,-15.975610
1548439401135,-0.581421,-0.689697,-0.512634,31.097561,0.182927,-16.585365
1548439401150,-0.591003,-0.679565,-0.490784,31.036587,-1.097561,-17.012196
1548439401158,-0.603149,-0.671875,-0.492249,28.048780,-0.731707,-18.048780
1548439401166,-0.607727,-0.667542,-0.497498,24.512196,-0.121951,-18.841463
1548439401180,-0.606567,-0.630737,-0.501038,23.414635,0.487805,-19.390244
1548439401188,-0.598328,-0.641113,-0.491943,22.865854,0.426829,-20.182928
1548439401196,-0.600769,-0.652283,-0.502441,23.475611,0.243902,-20.609756
1548439401211,-0.604980,-0.649719,-0.514343,24.512196,0.243902,-21.158537
1548439401218,-0.607361,-0.661316,-0.506226,25.182928,-0.304878,-21.585367
1548439401225,-0.608521,-0.672180,-0.493530,25.243902,-0.975610,-21.829269
1548439401241,-0.611206,-0.677002,-0.486694,25.792683,-1.280488,-21.890244
1548439401248,-0.611572,-0.708984,-0.489075,27.804878,-1.341463,-21.951220
1548439401255,-0.612000,-0.739319,-0.498840,29.451220,-1.341463,-21.707317
1548439401270,-0.610840,-0.750305,-0.504028,28.597561,-1.341463,-20.731709
1548439401278,-0.582703,-0.730896,-0.498291,26.341463,-0.975610,-19.451220
1548439401285,-0.605530,-0.779602,-0.464294,24.878050,-1.768293,-18.170732
1548439401300,-0.605530,-0.821777,-0.489563,24.329269,-0.731707,-17.134148
1548439401308,-0.602966,-0.816406,-0.466858,24.268293,-1.402439,-13.292684
1548439401315,-0.606445,-0.821228,-0.489197,19.573172,-1.341463,-11.463415
1548439401331,-0.599243,-0.798828,-0.434998,13.963415,-1.768293,-9.329268
1548439401338,-0.599243,-0.749512,-0.406128,5.731708,-2.256098,-7.256098
1548439401345,-0.602539,-0.742004,-0.397400,-3.109756,-1.158537,-5.914634
1548439401360,-0.574585,-0.635620,-0.444092,-7.012195,-0.243902,-4.695122
1548439401368,-0.554504,-0.508484,-0.453308,-9.024390,0.243902,-5.548780
1548439401375,-0.552612,-0.639648,-0.401733,-2.256098,0.792683,-10.121951
1548439401391,-0.592529,-0.683594,-0.389832,9.573171,2.012195,-12.804878
1548439401398,-0.630127,-0.767334,-0.400146,10.304878,3.231707,-13.963415
1548439401405,-0.608093,-0.930969,-0.435242,7.743903,3.536585,-14.329268
1548439401420,-0.567200,-0.841187,-0.433289,2.621951,4.207317,-10.487805
1548439401428,-0.553833,-0.726440,-0.445801,-8.780488,4.756098,-7.560976
1548439401435,-0.574646,-0.758728,-0.483337,-9.756098,5.121951,-7.865854
1548439401450,-0.575745,-0.800415,-0.526794,0.853659,4.085366,-6.768293
1548439401458,-0.579224,-0.743408,-0.536255,9.512196,1.951220,-3.902439
1548439401465,-0.572510,-0.714050,-0.535156,13.292684,0.243902,-3.536585
1548439401481,-0.558960,-0.725220,-0.523254,15.853659,-1.768293,-4.756098
1548439401488,-0.563721,-0.728821,-0.516602,17.743902,-3.902439,-5.853659
1548439401495,-0.568176,-0.743469,-0.493713,17.804878,-5.609756,-6.158537
1548439401510,-0.562866,-0.775879,-0.484863,16.768293,-7.256098,-6.097561
1548439401518,-0.561035,-0.757507,-0.482117,12.439025,-8.353659,-6.280488
1548439401525,-0.557251,-0.738342,-0.477844,5.670732,-8.231708,-6.585366
1548439401541,-0.552246,-0.742310,-0.475403,2.682927,-7.682927,-6.707317
1548439401548,-0.555115,-0.759460,-0.473572,3.597561,-7.439024,-6.829268
1548439401555,-0.565613,-0.765198,-0.477661,4.573171,-6.951220,-6.768293
1548439401571,-0.568481,-0.765442,-0.477905,5.060976,-6.585366,-6.463415
1548439401578,-0.567078,-0.764648,-0.456787,5.243903,-6.097561,-6.280488
1548439401586,-0.564819,-0.762878,-0.437805,5.000000,-5.182927,-6.097561
1548439401601,-0.563660,-0.772705,-0.418457,5.975610,-4.146341,-5.975610
1548439401608,-0.561707,-0.786804,-0.402344,7.621952,-3.109756,-5.548780
1548439401616,-0.559814,-0.784485,-0.394226,8.414635,-1.707317,-4.695122
1548439401631,-0.549866,-0.776123,-0.392029,7.317073,-0.243902,-4.146341
1548439401638,-0.546936,-0.777100,-0.396240,6.524390,1.097561,-3.841464
1548439401646,-0.552002,-0.776855,-0.407654,6.951220,1.646341,-3.109756
1548439401661,-0.555969,-0.776978,-0.403381,7.682927,1.463415,-2.256098
1548439401668,-0.519531,-0.747009,-0.472168,8.292683,1.402439,-1.829268
1548439401676,-0.481079,-0.587402,-0.531921,8.109756,0.548781,-2.256098
1548439401690,-0.516724,-0.654358,-0.397949,13.109756,-3.841464,-6.585366
1548439401698,-0.548462,-0.784607,-0.457642,17.317074,-3.902439,-10.792684
1548439401706,-0.564758,-0.798401,-0.303101,11.463415,-4.512195,-10.426829
1548439401721,-0.558899,-0.820801,-0.203918,1.585366,-5.914634,-10.243902
1548439401728,-0.567200,-0.790771,-0.352173,-10.060976,2.500000,-10.304878
1548439401736,-0.555542,-0.887390,-0.310791,-5.731708,2.195122,-8.475610
1548439401750,-0.544128,-0.817444,-0.376221,-6.829268,3.963415,-6.036585
1548439401758,-0.559143,-0.783020,-0.455994,-15.792684,8.170732,-2.743902
1548439401766,-0.555725,-0.816284,-0.457581,-3.414634,6.707317,-1.219512
1548439401781,-0.567627,-0.810486,-0.422058,12.987805,5.182927,0.731707
1548439401788,-0.551086,-0.862061,-0.396851,21.158537,4.817073,2.682927
1548439401796,-0.554382,-0.791138,-0.427917,24.146341,3.963415,4.146341
1548439401811,-0.561279,-0.753967,-0.435486,18.658537,2.195122,4.085366
1548439401818,-0.550842,-0.737976,-0.436401,14.878049,1.280488,3.597561
1548439401826,-0.544739,-0.723083,-0.433472,15.182927,0.365854,3.109756
1548439401841,-0.545593,-0.734741,-0.428284,17.439024,-0.670732,2.256098
1548439401848,-0.544739,-0.748047,-0.431885,20.914635,-0.975610,1.463415
1548439401856,-0.550842,-0.748047,-0.433716,23.780489,-1.097561,0.853659
1548439401871,-0.556580,-0.749146,-0.433838,24.695122,-1.524390,0.304878
1548439401879,-0.557068,-0.768372,-0.419800,24.878050,-1.707317,-0.182927
1548439401886,-0.562256,-0.792969,-0.406677,24.817074,-1.768293,-0.670732
1548439401901,-0.565002,-0.809326,-0.398499,23.841463,-1.585366,-0.914634
1548439401909,-0.562012,-0.808655,-0.390625,21.158537,-0.914634,-0.853659
1548439401916,-0.556946,-0.812195,-0.390076,18.170732,-0.182927,-0.914634
1548439401931,-0.545593,-0.817017,-0.394409,16.646341,0.975610,-0.792683
1548439401939,-0.543701,-0.825073,-0.385742,17.073172,2.317073,-0.548781
1548439401947,-0.532227,-0.839905,-0.398682,16.707317,3.292683,0.000000
1548439401961,-0.447571,-0.779724,-0.588745,13.536586,4.390244,0.731707
1548439401969,-0.434265,-0.656189,-0.377319,10.243902,0.426829,0.731707
1548439401977,-0.456116,-0.651550,-0.325623,1.219512,-1.890244,-4.268293
1548439401991,-0.517517,-0.757507,-0.310913,-11.890244,0.853659,-9.878049
1548439401998,-0.532227,-0.902710,-0.314636,-15.426829,-0.670732,-11.829268
1548439402006,-0.555359,-0.807739,-0.441833,-26.402439,2.439024,-10.121951
1548439402021,-0.605530,-0.723267,-0.335510,-38.963417,5.000000,-8.658537
1548439402028,-0.590515,-1.052368,-0.186462,-18.841463,6.158537,-9.695122
1548439402036,-0.532959,-1.122498,-0.309692,23.597561,12.073171,-5.182927
1548439402051,-0.485046,-0.722595,-0.399292,26.463415,10.731708,2.256098
1548439402059,-0.488281,-0.564880,-0.502991,-9.695122,8.841464,2.926829
1548439402067,-0.506042,-0.672852,-0.568176,-23.231709,9.146341,-4.390244
1548439402081,-0.521667,-0.777649,-0.523132,-4.634146,2.560976,-4.878049
1548439402089,-0.507874,-0.789062,-0.459045,17.987804,-4.512195,-2.500000
1548439402096,-0.502014,-0.825012,-0.417175,30.426830,-6.951220,-1.768293
1548439402112,-0.523193,-0.870300,-0.384094,31.524391,-9.146341,-2.987805
1548439402118,-0.530212,-0.827087,-0.352661,23.170732,-9.817074,-3.170732
1548439402126,-0.525208,-0.763306,-0.353394,17.134148,-9.146341,-2.073171
1548439402141,-0.532227,-0.741821,-0.350952,20.304878,-9.268292,-1.524390
1548439402148,-0.541748,-0.760559,-0.341980,28.597561,-8.902439,-1.951220
1548439402157,-0.543579,-0.774780,-0.342529,35.853661,-6.829268,-2.500000
1548439402171,-0.547852,-0.764771,-0.342957,40.182926,-4.817073,-2.439024
1548439402179,-0.551208,-0.760132,-0.325317,42.378048,-3.719512,-2.560976
1548439402186,-0.552551,-0.783325,-0.301147,44.878048,-2.378049,-3.109756
1548439402201,-0.510071,-0.818115,-0.250122,47.012196,0.243902,-3.475610
1548439402208,-0.500549,-0.927917,-0.141602,45.121952,3.658537,-3.719512
1548439402216,-0.506042,-1.073181,-0.161011,32.804878,10.182927,-4.390244
1548439402231,-0.539978,-1.121460,-0.105225,12.804878,13.536586,-2.439024
1548439402239,-0.562500,-1.058167,-0.281128,-14.634147,18.231709,0.182927
1548439402246,-0.545532,-0.706482,-0.339661,-42.439026,21.951220,4.939024
1548439402261,-0.551270,-0.399353,-0.518188,-56.524391,20.548780,5.914634
1548439402269,-0.536682,-0.717957,-0.590637,-34.756100,19.817074,-2.500000
1548439402277,-0.510986,-0.996643,-0.334290,17.560976,13.353659,0.000000
1548439402291,-0.551453,-0.963562,-0.183044,32.804878,9.512196,4.878049
1548439402299,-0.522705,-0.921021,-0.211121,4.695122,12.317074,3.292683
1548439402306,-0.511169,-0.841980,-0.249634,-26.585367,16.158537,2.560976
1548439402322,-0.518677,-0.795776,-0.283997,-51.036587,17.134148,3.292683
1548439402329,-0.519653,-0.758972,-0.366638,-64.634148,20.304878,4.817073
1548439402336,-0.536560,-0.699158,-0.449402,-66.829269,21.097561,6.280488
1548439402351,-0.530823,-0.704712,-0.479065,-58.475613,20.792683,6.890244
1548439402359,-0.504517,-0.759766,-0.446289,-42.682926,20.243902,5.426829
1548439402366,-0.498230,-0.730286,-0.428894,-35.060978,19.573172,4.451220
1548439402381,-0.492371,-0.626709,-0.438904,-40.000000,20.487804,2.804878
1548439402389,-0.492859,-0.615906,-0.435364,-45.975613,21.707317,0.000000
1548439402396,-0.505554,-0.646423,-0.448059,-42.865856,21.219513,-3.658537
1548439402412,-0.489014,-0.588074,-0.499634,-30.304878,19.512196,-8.353659
1548439402418,-0.475952,-0.614380,-0.523804,-13.048780,17.682928,-12.073171
1548439402426,-0.493225,-0.732483,-0.492004,5.853659,15.548780,-11.524390
1548439402441,-0.514832,-0.823242,-0.435608,29.329269,14.451220,-8.719512
1548439402448,-0.496887,-0.833008,-0.409607,56.036587,13.231708,-6.219512
1548439402456,-0.484497,-0.826233,-0.439331,80.121956,12.804878,-3.780488
1548439402471,-0.463379,-0.826172,-0.512268,92.926834,11.707317,-2.560976
1548439402479,-0.450928,-0.713989,-0.545898,97.317078,8.475610,-0.487805
1548439402486,-0.448975,-0.618225,-0.491211,102.500000,4.756098,-1.158537
1548439402501,-0.415344,-0.584717,-0.440857,117.012199,1.463415,-5.487805
1548439402509,-0.389343,-0.630920,-0.396057,138.109756,-4.024390,-12.134147
1548439402516,-0.376770,-0.723511,-0.328247,148.475616,-9.451220,-19.146341
1548439402531,-0.349731,-0.798523,-0.284363,142.987808,-10.975610,-23.780489
1548439402539,-0.345398,-0.820496,-0.222107,132.804886,-11.280488,-26.402439
1548439402546,-0.349854,-0.814514,-0.163635,122.500000,-11.158537,-28.780489
1548439402561,-0.371826,-0.853149,-0.127441,111.707321,-10.426829,-33.658539
1548439402568,-0.363403,-0.941772,-0.148499,102.317078,-10.304878,-35.609756
1548439402576,-0.316284,-1.041687,-0.181885,93.475609,-9.268292,-36.158539
1548439402591,-0.307922,-1.000916,-0.213257,83.414635,-8.109756,-35.792683
1548439402599,-0.337585,-0.954163,-0.185486,68.353661,-7.378049,-35.000000
1548439402606,-0.325012,-0.946655,-0.176331,53.719513,-6.951220,-35.365856
1548439402621,-0.313538,-0.933105,-0.211121,45.609756,-6.707317,-36.829269
1548439402629,-0.330994,-0.803772,-0.247803,41.951221,-7.195122,-37.987804
1548439402636,-0.328003,-0.711304,-0.268921,38.719513,-8.292683,-43.170734
1548439402651,-0.308594,-0.743408,-0.242310,38.902439,-9.390244,-50.914635
1548439402659,-0.294250,-0.794250,-0.214294,40.670734,-10.365854,-56.646343
1548439402666,-0.292297,-0.793884,-0.204407,36.768295,-11.890244,-60.609756
1548439402681,-0.301270,-0.775696,-0.203552,27.012196,-12.987805,-64.756096
1548439402689,-0.310547,-0.762573,-0.208618,17.926830,-13.170732,-69.329269
1548439402696,-0.315979,-0.731384,-0.224182,12.743903,-13.231708,-74.085365
1548439402711,-0.318909,-0.669067,-0.227966,10.792684,-13.841464,-79.268295
1548439402719,-0.319397,-0.612122,-0.229736,12.134147,-14.573171,-85.304878
1548439402726,-0.313477,-0.576233,-0.229370,17.195122,-15.365854,-92.865852
1548439402741,-0.291199,-0.565491,-0.237366,24.512196,-17.134148,-101.524391
1548439402749,-0.266479,-0.572815,-0.237854,31.585367,-19.573172,-111.036591
1548439402756,-0.240662,-0.604004,-0.225281,36.402439,-22.987806,-120.487808
1548439402771,-0.196594,-0.699280,-0.184082,36.219513,-26.890245,-129.939026
1548439402779,-0.143738,-0.770020,-0.147949,33.170731,-29.939026,-138.902435
1548439402786,-0.102295,-0.778137,-0.118958,29.451220,-33.048782,-144.817078
1548439402801,-0.082520,-0.803650,-0.087708,23.658537,-36.097561,-148.780487
1548439402808,-0.063232,-0.832214,-0.068420,18.109756,-38.414635,-153.048782
1548439402816,-0.040833,-0.842773,-0.059998,14.451220,-40.243904,-157.073181
1548439402831,-0.010071,-0.854065,-0.062439,14.207317,-42.012196,-160.426834
1548439402839,0.022583,-0.900146,-0.065857,18.231709,-43.475613,-162.926834
1548439402846,0.055481,-0.953430,-0.067993,24.695122,-45.304878,-164.756104
1548439402861,0.087646,-1.019104,-0.063843,31.585367,-47.439026,-166.036591
1548439402869,0.130615,-1.076477,-0.051941,37.804878,-49.268295,-166.646347
1548439402876,0.176697,-1.115845,-0.034851,42.256100,-51.219513,-165.670731
1548439402892,0.201477,-1.105469,-0.030945,41.524391,-53.475613,-163.841461
1548439402899,0.207153,-1.050964,-0.016418,36.341465,-56.097561,-162.317078
1548439402906,0.214417,-0.965820,-0.000610,31.036587,-58.719513,-161.280487
1548439402922,0.250610,-0.892822,-0.002808,31.829269,-60.670734,-160.487808
1548439402929,0.280945,-0.846741,0.000854,40.548782,-62.439026,-159.817078
1548439402936,0.309692,-0.829285,0.004517,57.926830,-64.207321,-160.670731
1548439402952,0.362488,-0.812927,0.018677,87.500000,-65.670731,-160.426834
1548439402959,0.442810,-0.985718,0.087830,127.378052,-67.682930,-158.414642
1548439402967,0.509888,-1.248230,0.126038,152.560974,-69.939026,-156.158539
1548439402981,0.544678,-1.327515,0.113342,148.231705,-71.646339,-153.414642
1548439402989,0.565125,-1.235596,0.114319,117.073174,-74.329269,-149.390244
1548439402996,0.565186,-1.107849,0.146667,73.048782,-76.219513,-146.097565
1548439403011,0.589661,-1.021423,0.181213,38.048782,-75.548782,-144.451218
1548439403019,0.616882,-0.958618,0.191833,21.341463,-72.439026,-141.890244
1548439403026,0.627075,-0.925415,0.224060,16.646341,-68.658539,-138.353668
1548439403041,0.643677,-0.900818,0.256042,16.646341,-63.414635,-135.426834
1548439403050,0.675415,-0.871887,0.260559,23.902439,-56.341465,-132.743912
1548439403056,0.709534,-0.858154,0.250244,37.073170,-50.548782,-130.670731
1548439403071,0.728394,-0.876770,0.220276,52.195122,-46.097561,-128.780487
1548439403079,0.737000,-0.904541,0.194092,65.426834,-42.378048,-126.768295
1548439403086,0.749146,-0.916931,0.177124,72.621956,-40.487804,-124.756104
1548439403101,0.757935,-0.913940,0.166992,73.292686,-40.121952,-122.987808
1548439403109,0.758606,-0.897278,0.179260,69.878052,-40.670734,-120.609756
1548439403116,0.775879,-0.874329,0.210632,66.768295,-42.195122,-117.439026
1548439403131,0.793152,-0.861755,0.251953,66.890244,-43.231709,-113.170731
1548439403139,0.802429,-0.860474,0.281860,69.817078,-43.719513,-109.268295
1548439403146,0.821106,-0.852661,0.295715,72.804878,-43.292683,-104.390244
1548439403161,0.833008,-0.837769,0.288879,72.743904,-41.951221,-99.573174
1548439403169,0.836304,-0.820618,0.275330,67.682930,-40.121952,-94.146347
1548439403176,0.830811,-0.805237,0.255554,58.658539,-38.170734,-88.963417
1548439403192,0.829407,-0.789124,0.238342,46.585365,-36.463417,-84.207321
1548439403199,0.825500,-0.768799,0.227539,32.743904,-34.817074,-78.902443
1548439403206,0.820740,-0.741089,0.224976,18.475611,-33.414635,-73.902443
1548439403221,0.821228,-0.713196,0.230225,5.243903,-31.707317,-69.512199
1548439403229,0.811707,-0.680725,0.232666,-5.000000,-29.512196,-65.853661
1548439403237,0.805054,-0.649719,0.228088,-12.134147,-27.073172,-62.804878
1548439403251,0.801880,-0.630615,0.214294,-16.829269,-24.146341,-60.487804
1548439403259,0.799927,-0.612000,0.202637,-19.451220,-21.097561,-59.207317
1548439403267,0.805054,-0.598083,0.186584,-19.573172,-18.048780,-58.231709
1548439403281,0.812012,-0.592346,0.161682,-16.341463,-15.060976,-57.439026
1548439403289,0.820435,-0.576904,0.144470,-10.548780,-11.890244,-56.646343
1548439403297,0.829834,-0.573730,0.142944,-2.439024,-9.268292,-55.000000
1548439403311,0.841614,-0.595215,0.139709,7.560976,-7.926829,-52.865856
1548439403319,0.847229,-0.628845,0.141418,17.317074,-7.012195,-50.365856
1548439403326,0.841858,-0.650879,0.146423,22.987806,-5.853659,-47.743904
1548439403341,0.835083,-0.653381,0.148193,23.536587,-4.695122,-44.756100
1548439403348,0.830139,-0.646912,0.139099,19.634148,-3.597561,-41.524391
1548439403356,0.824402,-0.640686,0.126465,14.451220,-2.256098,-38.170734
1548439403371,0.820679,-0.627747,0.116516,9.756098,-0.975610,-34.512196
1548439403378,0.823364,-0.618591,0.103638,6.036585,0.182927,-30.792685
1548439403386,0.830200,-0.615845,0.092651,3.475610,1.341463,-27.500000
1548439403401,0.835449,-0.612061,0.086060,1.524390,2.012195,-24.878050
1548439403408,0.836792,-0.607605,0.084351,-0.365854,2.500000,-22.560976
1548439403416,0.835876,-0.602539,0.076294,-2.195122,2.682927,-20.731709
1548439403431,0.831543,-0.590576,0.065857,-4.268293,2.987805,-19.329269
1548439403439,0.828796,-0.576721,0.062073,-6.219512,2.926829,-18.048780
1548439403446,0.825500,-0.570068,0.060181,-7.804878,2.500000,-17.134148
1548439403461,0.824951,-0.558594,0.054565,-9.207317,2.012195,-16.585365
1548439403469,0.828552,-0.548279,0.045837,-10.731708,1.707317,-16.219513
1548439403476,0.833618,-0.541321,0.041321,-11.951220,1.158537,-16.219513
1548439403491,0.838440,-0.535095,0.039856,-13.231708,0.365854,-16.707317
1548439403499,0.842896,-0.530457,0.039307,-14.512196,-0.487805,-17.560976
1548439403506,0.846985,-0.518921,0.040161,-16.097561,-0.914634,-18.658537
1548439403521,0.848267,-0.513672,0.037598,-17.134148,-1.341463,-19.695122
1548439403529,0.852783,-0.508911,0.036743,-16.707317,-2.317073,-20.304878
1548439403536,0.838440,-0.367432,-0.003723,-15.853659,-3.048780,-20.853659
1548439403551,0.835571,-0.385376,-0.010559,-7.317073,-4.085366,-22.256098
1548439403559,0.896362,-0.713379,-0.021729,37.621952,-11.707317,-31.402439
1548439403566,0.867126,-0.713440,0.006287,63.597561,-8.048780,-30.487806
1548439403581,0.886353,-0.532654,0.007629,43.475613,-8.536586,-22.987806
1548439403588,0.902161,-0.540833,0.026245,34.451221,-9.085366,-24.573172
1548439403596,0.893982,-0.576233,0.049011,41.158539,-9.268292,-23.170732
1548439403611,0.883667,-0.566223,0.066040,43.536587,-10.304878,-19.085367
1548439403619,0.884949,-0.559265,0.088623,40.487804,-10.548780,-16.158537
1548439403626,0.880066,-0.583374,0.099060,35.548782,-9.756098,-12.865854
1548439403642,0.863098,-0.610901,0.099426,24.756098,-8.902439,-9.146341
1548439403648,0.871399,-0.626892,0.099670,3.597561,-6.951220,-6.036585
1548439403656,0.868713,-0.382874,0.099426,-32.865856,-3.719512,-2.378049
1548439403671,0.879456,-0.483459,0.087036,-46.707317,-3.597561,-3.170732
1548439403679,0.872925,-0.504089,0.106384,-36.585365,-4.939024,-3.048780
1548439403686,0.863892,-0.464050,0.088806,-46.890244,-1.158537,1.219512
1548439403709,0.880676,-0.277161,0.100830,-55.670734,-1.585366,0.609756
1548439403709,0.843140,-0.380310,0.080078,-54.695122,0.060976,0.182927
1548439403716,0.919250,-0.582703,0.105896,-17.500000,-6.829268,-5.426829
1548439403731,0.819641,-0.278625,0.078430,-39.451221,5.304878,-0.548781
1548439403739,0.883728,-0.328979,0.088379,-46.463417,-2.743902,-3.292683
1548439403746,0.896240,-0.396179,0.100037,-26.768293,-3.597561,-6.707317
1548439403761,0.858154,-0.377686,0.095276,-13.597561,-1.707317,-7.195122
1548439403769,0.848145,-0.335449,0.097351,-9.817074,-2.926829,-7.682927
1548439403776,0.852356,-0.364929,0.099304,-1.768293,-4.146341,-8.231708
1548439403791,0.859070,-0.422241,0.098206,14.207317,-7.560976,-9.085366
1548439403799,0.855042,-0.426514,0.080933,22.317074,-7.682927,-9.329268
1548439403806,0.853760,-0.426697,0.081360,23.963415,-7.195122,-9.268292
1548439403822,0.852417,-0.453430,0.076477,26.524391,-7.195122,-9.512196
1548439403829,0.844604,-0.486511,0.067078,28.597561,-6.341464,-9.573171
1548439403836,0.864380,-0.492188,0.065674,26.646341,-6.341464,-7.378049
1548439403851,0.876892,-0.497375,0.070862,24.573172,-5.792683,-5.975610
1548439403859,0.875061,-0.502258,0.068604,23.170732,-5.365854,-5.000000
1548439403866,0.878540,-0.502136,0.065002,20.792683,-4.817073,-3.597561
1548439403881,0.882446,-0.502563,0.066772,17.621952,-4.268293,-2.073171
1548439403889,0.879456,-0.503113,0.071167,14.390244,-3.963415,-0.304878
1548439403896,0.875977,-0.513123,0.070374,11.707317,-3.902439,1.463415
1548439403911,0.874390,-0.515564,0.069702,8.963415,-3.780488,3.109756
1548439403919,0.873291,-0.504761,0.070618,5.000000,-3.414634,4.451220
1548439403926,0.873352,-0.493591,0.070618,1.463415,-3.048780,5.426829
1548439403942,0.873047,-0.479614,0.072998,-1.463415,-2.682927,6.341464
1548439403948,0.869690,-0.466125,0.080566,-4.390244,-2.256098,7.012195
1548439403956,0.859985,-0.457825,0.087524,-7.317073,-2.012195,7.500000
1548439403971,0.856506,-0.454651,0.087952,-10.487805,-1.707317,7.500000
1548439403978,0.858826,-0.435181,0.090088,-15.548780,-0.975610,7.256098
1548439403986,0.863525,-0.418213,0.086609,-19.878050,-0.426829,6.585366
1548439404001,0.871216,-0.408386,0.084106,-21.341463,-0.426829,5.853659
1548439404009,0.883911,-0.404846,0.084534,-19.878050,-0.548781,5.243903
1548439404016,0.884094,-0.401306,0.085938,-17.743902,-1.097561,4.573171
1548439404031,0.882812,-0.400513,0.085693,-15.792684,-2.073171,3.902439
1548439404038,0.880188,-0.405884,0.089294,-14.146341,-2.987805,3.170732
1548439404046,0.873901,-0.413330,0.081787,-12.987805,-3.658537,2.134146
1548439404053,0.864990,-0.417480,0.070068,-12.317074,-4.085366,1.219512
1548439404068,0.854126,-0.439331,0.048401,-12.378049,-4.329268,0.304878
1548439404076,0.848694,-0.448730,0.028442,-14.756098,-4.390244,0.182927
1548439404084,0.871460,-0.444702,0.021118,-20.304878,-4.085366,1.219512
1548439404099,0.881226,-0.439697,0.012451,-23.658537,-4.451220,1.768293
1548439404106,0.886169,-0.460510,0.009888,-22.682928,-5.243903,0.670732
1548439404113,0.887695,-0.469055,0.006531,-20.487804,-5.853659,1.158537
1548439404129,0.887390,-0.474426,0.000427,-19.024391,-6.585366,1.646341
1548439404136,0.880249,-0.465332,0.004639,-18.170732,-7.134147,1.768293
1548439404144,0.877380,-0.458862,0.007507,-17.256098,-7.865854,2.439024
1548439404159,0.867615,-0.452942,0.013611,-15.548780,-7.743903,2.560976
1548439404166,0.871887,-0.445923,0.013367,-13.841464,-7.804878,2.865854
1548439404174,0.874695,-0.444946,0.015076,-11.768293,-7.195122,3.414634
1548439404189,0.874268,-0.438354,0.018982,-9.939025,-7.012195,4.024390
1548439404196,0.870789,-0.426697,0.020325,-8.292683,-7.012195,4.573171
1548439404204,0.861267,-0.420593,0.022156,-6.219512,-7.134147,5.304878
1548439404219,0.855347,-0.414673,0.022705,-3.841464,-7.134147,6.036585
1548439404226,0.847961,-0.408691,0.028137,-1.036585,-6.463415,6.219512
1548439404235,0.846680,-0.411499,0.031982,2.256098,-5.731708,6.219512
1548439404249,0.848389,-0.420471,0.036682,5.243903,-4.817073,6.158537
1548439404256,0.849915,-0.429932,0.038269,7.134147,-4.207317,6.036585
1548439404264,0.849548,-0.438416,0.038940,7.865854,-3.841464,5.853659
1548439404279,0.843323,-0.447144,0.037170,7.926829,-3.841464,5.548780
1548439404286,0.855774,-0.463623,0.024841,7.439024,-3.841464,6.158537
1548439404293,0.851257,-0.467285,0.013672,7.012195,-2.926829,6.951220
1548439404308,0.852417,-0.468262,0.008911,6.402439,-2.804878,5.609756
1548439404316,0.860901,-0.477844,0.007874,6.402439,-2.073171,5.365854
1548439404324,0.860657,-0.482361,0.011780,6.890244,-1.646341,5.548780
1548439404339,0.862488,-0.482727,0.015503,6.646342,-1.463415,5.853659
1548439404346,0.864258,-0.485474,0.015442,6.280488,-1.280488,6.280488
1548439404354,0.867432,-0.485779,0.014832,5.853659,-1.402439,6.707317
1548439404369,0.867859,-0.484741,0.012878,5.060976,-1.829268,7.256098
1548439404376,0.869324,-0.485657,0.009888,4.573171,-2.317073,7.926829
1548439404383,0.864197,-0.478455,0.012756,4.268293,-2.926829,8.536586
1548439404398,0.853394,-0.471863,0.014526,4.329268,-3.353659,8.780488
1548439404406,0.844910,-0.473816,0.017029,5.060976,-3.536585,8.841464
1548439404414,0.840088,-0.476501,0.018066,6.036585,-3.292683,8.841464
1548439404428,0.836609,-0.470398,0.024536,6.585366,-2.439024,8.414635
1548439404436,0.836060,-0.464783,0.025757,7.012195,-1.524390,7.743903
1548439404443,0.835754,-0.456238,0.032715,7.439024,-0.426829,6.829268
1548439404459,0.837463,-0.449829,0.037781,8.353659,0.487805,5.914634
1548439404466,0.840271,-0.456482,0.035522,9.451220,1.158537,4.634146
1548439404474,0.843262,-0.467468,0.033081,10.243902,1.402439,3.170732
1548439404489,0.843994,-0.474060,0.037109,10.914635,1.341463,1.829268
1548439404496,0.851257,-0.473206,0.036987,11.036586,1.219512,0.731707
1548439404504,0.853516,-0.473145,0.039490,10.792684,0.914634,-0.243902
1548439404519,0.855591,-0.473999,0.035217,10.426829,0.792683,-0.975610
1548439404526,0.856079,-0.477478,0.033325,10.000000,0.609756,-1.524390
1548439404533,0.865479,-0.483154,0.032776,9.329268,0.365854,-2.073171
1548439404549,0.870117,-0.490784,0.031128,8.658537,0.304878,-2.317073
1548439404556,0.871033,-0.500061,0.027771,8.048780,-0.060976,-2.134146
1548439404563,0.870117,-0.499939,0.025940,6.951220,-0.609756,-1.524390
1548439404579,0.870117,-0.497681,0.029602,5.609756,-1.097561,-0.731707
1548439404586,0.867554,-0.493958,0.031128,4.329268,-1.524390,0.182927
1548439404594,0.864319,-0.488525,0.023315,2.987805,-1.951220,1.402439
1548439404609,0.867065,-0.494202,0.019775,1.524390,-2.317073,2.439024
1548439404616,0.864624,-0.505615,0.021851,1.219512,-2.621951,3.536585
1548439404623,0.857788,-0.507874,0.027222,0.853659,-3.353659,4.695122
1548439404639,0.850708,-0.503113,0.027344,-0.609756,-4.024390,5.853659
1548439404646,0.842285,-0.492249,0.031128,-2.560976,-4.024390,6.829268
1548439404654,0.832214,-0.479248,0.033569,-5.000000,-3.841464,7.378049
1548439404668,0.827454,-0.458984,0.036804,-7.500000,-3.170732,6.951220
1548439404676,0.837036,-0.453796,0.043945,-8.292683,-1.402439,5.853659
1548439404691,0.843323,-0.456543,0.045654,-7.378049,0.914634,3.902439
1548439404699,0.842468,-0.462952,0.040161,-5.670732,2.987805,1.646341
1548439404706,0.839111,-0.476257,0.040222,-2.926829,4.573171,-0.182927
1548439404714,0.832703,-0.465698,0.041992,-1.768293,4.878049,-1.524390
1548439404729,0.831177,-0.477051,0.035095,-2.073171,4.268293,-2.439024
1548439404736,0.826355,-0.492737,0.031006,-1.829268,4.024390,-3.353659
1548439404744,0.817932,-0.496094,0.035095,-1.036585,4.024390,-4.146341
1548439404758,0.820007,-0.493713,0.030884,-0.487805,4.390244,-4.634146
1548439404766,0.828613,-0.500488,0.030273,0.609756,5.304878,-5.243903
1548439404773,0.840515,-0.507874,0.038757,1.707317,6.219512,-5.914634
1548439404788,0.852295,-0.504761,0.045898,1.707317,6.646342,-6.463415
1548439404803,0.867371,-0.504150,0.040405,-0.304878,6.341464,-6.951220
1548439404804,0.867310,-0.496704,0.036011,-4.512195,5.731708,-9.939025
1548439404818,0.868774,-0.477722,0.040222,-9.329268,3.841464,-14.695123
1548439404826,0.881958,-0.487366,0.040466,-10.000000,3.231707,-10.853659
1548439404834,0.898743,-0.487488,0.028076,-10.487805,2.073171,-6.097561
1548439404848,0.887390,-0.417603,0.031982,-13.414635,0.914634,-3.536585
1548439404856,0.891602,-0.450623,0.033997,-14.512196,-0.548781,-3.719512
1548439404864,0.886963,-0.456360,0.021973,-11.341464,-1.463415,-1.341463
1548439404878,0.878113,-0.406860,0.027466,-12.500000,-3.170732,-1.585366
1548439404886,0.873169,-0.397766,0.019531,-12.926829,-4.695122,-2.560976
1548439404893,0.864868,-0.420044,0.001038,-9.390244,-4.634146,-2.987805
1548439404908,0.864990,-0.435303,0.004456,-2.500000,-4.634146,-2.804878
1548439404916,0.854126,-0.441284,0.003601,1.646341,-5.243903,-3.597561
1548439404923,0.836060,-0.437866,-0.014160,2.195122,-5.914634,-4.939024
1548439404938,0.832092,-0.456482,-0.020081,2.134146,-6.829268,-6.280488
1548439404946,0.841187,-0.485657,-0.002502,2.804878,-7.256098,-7.378049
1548439404954,0.846924,-0.518555,-0.008911,3.109756,-6.707317,-5.365854
1548439404968,0.851013,-0.556885,-0.016968,3.353659,-4.939024,-2.621951
1548439404976,0.857788,-0.564941,-0.021667,-0.914634,-4.695122,-1.402439
1548439404983,0.852234,-0.585632,-0.031006,-9.329268,-4.573171,0.487805
1548439404998,0.867920,-0.572937,-0.042236,-22.804878,-5.000000,4.634146
1548439405013,0.892334,-0.566589,-0.055603,-39.878048,-5.243903,7.865854
1548439405014,0.925293,-0.510437,-0.038025,-53.353661,-4.939024,10.182927
1548439405028,0.883301,-0.381592,-0.037292,-61.707317,-2.439024,14.146341
1548439405036,0.891296,-0.562683,-0.032898,-43.597561,-5.121951,13.170732
1548439405043,0.903687,-0.661316,-0.035400,-10.853659,-8.963415,11.646341
1548439405058,0.900085,-0.610168,-0.008484,-10.670732,-7.195122,14.085366
1548439405066,0.899841,-0.587830,0.019531,-26.158537,-6.036585,15.182927
1548439405074,0.872314,-0.599426,0.023193,-31.097561,-3.475610,17.682928
1548439405088,0.861572,-0.627075,0.011780,-29.024391,-2.500000,20.731709
1548439405096,0.854736,-0.618958,-0.001404,-27.682928,-2.256098,22.560976
1548439405103,0.843079,-0.614929,0.002319,-27.621952,-1.890244,24.512196
1548439405118,0.823608,-0.648865,0.018127,-24.878050,-1.585366,26.585367
1548439405126,0.813110,-0.700867,0.049255,-23.475611,-1.463415,29.817074
1548439405133,0.817993,-0.755981,0.069641,-30.670732,-1.341463,33.963417
1548439405148,0.830933,-0.744263,0.046936,-46.097561,-0.365854,38.292683
1548439405156,0.818359,-0.719849,0.017578,-57.134148,1.585366,41.585365
1548439405163,0.824341,-0.718323,-0.013245,-58.109756,1.951220,46.158539
1548439405178,0.835999,-0.736450,-0.032166,-51.036587,1.890244,51.829269
1548439405186,0.826660,-0.763672,-0.044373,-41.158539,1.585366,57.682930
1548439405193,0.834045,-0.790527,-0.063293,-31.646341,0.975610,63.780491
1548439405209,0.838196,-0.792236,-0.058472,-24.146341,0.243902,70.060974
1548439405216,0.830444,-0.787170,-0.050659,-18.170732,-0.975610,75.609756
1548439405223,0.834534,-0.812134,-0.054504,-12.743903,-1.951220,80.243904
1548439405238,0.837402,-0.851624,-0.053284,-10.060976,-3.658537,84.451225
1548439405246,0.836548,-0.835144,-0.075073,-14.573171,-4.939024,88.841469
1548439405253,0.835571,-0.801636,-0.094482,-21.768293,-5.731708,92.987808
1548439405268,0.838623,-0.784363,-0.112061,-26.219513,-7.073171,97.256104
1548439405276,0.835449,-0.809509,-0.112061,-26.036587,-8.597561,101.768295
1548439405283,0.840088,-0.796082,-0.121826,-26.341463,-10.792684,105.853661
1548439405298,0.837219,-0.765930,-0.135437,-27.743902,-11.341464,110.365860
1548439405306,0.828369,-0.761230,-0.150574,-24.634148,-12.073171,116.402443
1548439405313,0.812378,-0.771851,-0.144653,-16.646341,-13.658537,120.548782
1548439405328,0.789185,-0.771973,-0.137024,-10.426829,-15.365854,122.987808
1548439405336,0.761719,-0.758423,-0.123169,-7.987805,-16.524391,124.268295
1548439405343,0.750977,-0.737244,-0.110901,-7.439024,-17.682928,124.817078
1548439405358,0.743774,-0.739746,-0.110107,-6.951220,-18.414635,124.817078
1548439405366,0.718567,-0.747070,-0.112854,-7.134147,-18.902439,124.512199
1548439405373,0.691528,-0.756165,-0.118286,-7.439024,-19.634148,123.719513
1548439405389,0.681885,-0.764465,-0.115845,-9.085366,-21.036587,122.804878
1548439405396,0.672424,-0.755798,-0.118347,-12.560976,-21.646341,121.524391
1548439405404,0.644165,-0.753662,-0.106873,-15.304878,-22.195122,119.634148
1548439405419,0.634155,-0.757019,-0.093689,-15.670732,-23.536587,118.597565
1548439405426,0.615845,-0.764526,-0.084595,-13.231708,-23.170732,118.231712
1548439405434,0.593872,-0.792358,-0.084351,-10.243902,-22.743902,116.890244
1548439405449,0.571106,-0.791382,-0.086914,-8.475610,-23.048780,114.756104
1548439405464,0.549622,-0.772156,-0.085754,-8.353659,-23.048780,112.743904
1548439405464,0.527222,-0.788025,-0.080994,-3.231707,-22.195122,110.670731
1548439405479,0.516418,-0.804932,-0.085144,4.878049,-21.402439,109.024391
1548439405487,0.499023,-0.827271,-0.092346,11.585366,-19.939024,108.353661
1548439405494,0.471863,-0.861084,-0.086060,15.487805,-18.658537,107.560982
1548439405509,0.453735,-0.878967,-0.086060,17.560976,-17.804878,106.768295
1548439405516,0.448547,-0.879944,-0.085327,18.719513,-16.890244,106.219513
1548439405524,0.425415,-0.889099,-0.078735,20.121952,-15.670732,105.670731
1548439405538,0.400818,-0.913452,-0.074280,20.243902,-14.573171,104.939026
1548439405546,0.383423,-0.917847,-0.070923,18.048780,-13.658537,103.902443
1548439405554,0.372131,-0.927979,-0.075928,16.097561,-12.317074,103.658539
1548439405569,0.359192,-0.979126,-0.082275,15.853659,-11.463415,103.658539
1548439405576,0.333557,-0.981140,-0.095154,12.682927,-11.402439,104.329269
1548439405584,0.307007,-0.939697,-0.094727,5.914634,-10.975610,103.841469
1548439405599,0.289551,-0.898682,-0.099792,0.426829,-10.792684,102.560982
1548439405606,0.265015,-0.876709,-0.099243,-0.121951,-10.426829,101.097565
1548439405613,0.233093,-0.881836,-0.099243,2.987805,-10.182927,99.390244
1548439405629,0.209167,-0.892517,-0.101868,7.560976,-9.939025,97.500000
1548439405636,0.196106,-0.884460,-0.112122,12.073171,-9.390244,95.548782
1548439405643,0.183838,-0.867676,-0.114319,16.585365,-8.841464,93.048782
1548439405659,0.165894,-0.865662,-0.102234,19.939024,-9.024390,90.000000
1548439405674,0.151306,-0.856201,-0.096008,20.304878,-9.268292,86.890244
1548439405675,0.130432,-0.841431,-0.096558,18.475611,-8.719512,83.658539
1548439405689,0.110046,-0.839905,-0.091248,16.402439,-8.109756,80.182930
1548439405696,0.104431,-0.851379,-0.091003,15.731708,-7.682927,76.646347
1548439405704,0.096924,-0.842346,-0.105286,14.085366,-6.646342,72.804878
1548439405719,0.078491,-0.829102,-0.106628,11.646341,-5.548780,68.719513
1548439405726,0.063782,-0.818604,-0.102966,10.914635,-5.000000,64.451218
1548439405734,0.049011,-0.830139,-0.094910,11.524390,-4.329268,60.365856
1548439405749,0.034302,-0.853394,-0.075378,11.524390,-3.841464,56.768295
1548439405756,0.023010,-0.883484,-0.082214,9.939025,-3.231707,53.963417
1548439405764,0.010437,-0.910461,-0.100708,7.256098,-2.012195,50.731709
1548439405778,-0.002197,-0.930298,-0.110107,4.207317,-1.280488,48.109756
1548439405786,-0.021179,-0.954590,-0.117615,2.073171,-1.158537,45.975613
1548439405793,-0.031799,-0.955261,-0.122559,0.792683,-1.097561,43.963417
1548439405808,-0.046021,-0.934082,-0.128113,-0.548781,-1.219512,42.195122
1548439405816,-0.067505,-0.923523,-0.129700,-2.621951,-1.463415,40.060978
1548439405824,-0.094910,-0.931274,-0.114990,-2.682927,-1.768293,38.719513
1548439405839,-0.119995,-0.941833,-0.102966,0.670732,-1.829268,38.231709
1548439405847,-0.135437,-0.943115,-0.094482,5.000000,-1.707317,37.378048
1548439405853,-0.147339,-0.930298,-0.083313,6.341464,-1.341463,35.487804
1548439405868,-0.162537,-0.919922,-0.074707,5.670732,-0.548781,33.170731
1548439405876,-0.179749,-0.933716,-0.065002,4.451220,0.731707,30.914635
1548439405884,-0.187805,-0.934509,-0.058655,3.719512,2.317073,29.024391
1548439405899,-0.195496,-0.902344,-0.050354,2.378049,4.207317,26.829269
1548439405907,-0.210083,-0.890137,-0.040466,-1.768293,5.670732,23.353659
1548439405914,-0.210571,-0.884216,-0.037720,-7.682927,6.951220,19.634148
1548439405929,-0.204651,-0.844604,-0.037292,-13.170732,8.658537,15.853659
1548439405936,-0.204102,-0.806213,-0.053955,-17.439024,10.487805,11.402439
1548439405944,-0.189575,-0.783997,-0.074463,-20.060976,11.890244,6.219512
1548439405959,-0.179504,-0.762939,-0.073730,-19.939024,12.500000,1.341463
1548439405966,-0.175842,-0.750000,-0.074524,-17.012196,12.560976,-2.621951
1548439405974,-0.169922,-0.742737,-0.078430,-12.012196,12.926829,-6.219512
1548439405988,-0.153320,-0.756287,-0.075256,-6.646342,13.170732,-11.097561
1548439405996,-0.142944,-0.780762,-0.083862,-1.646341,14.024390,-15.060976
1548439406003,-0.135559,-0.778687,-0.095215,1.585366,14.878049,-18.780489
1548439406018,-0.131165,-0.764038,-0.094543,3.414634,15.365854,-22.621952
1548439406033,-0.124573,-0.776855,-0.097107,6.341464,15.975610,-27.012196
1548439406034,-0.120544,-0.804810,-0.095032,10.914635,16.219513,-31.036587
1548439406048,-0.101074,-0.842224,-0.094482,19.878050,15.426829,-34.634148
1548439406056,-0.077576,-0.858582,-0.107910,29.817074,15.304878,-39.146343
1548439406063,-0.063477,-0.846985,-0.138611,33.475609,14.512196,-43.719513
1548439406078,-0.053467,-0.830078,-0.163086,32.012196,12.865854,-47.317074
1548439406086,-0.059082,-0.818970,-0.174744,30.548780,11.341464,-49.451221
1548439406093,-0.061035,-0.814514,-0.171448,30.243902,9.695122,-51.463417
1548439406108,-0.053833,-0.840698,-0.161499,31.097561,8.109756,-54.207317
1548439406116,-0.034851,-0.882202,-0.144043,33.170731,6.341464,-57.134148
1548439406123,-0.007202,-0.924988,-0.120728,34.878048,4.207317,-59.939026
1548439406138,0.008484,-0.973022,-0.100403,29.451220,2.134146,-63.841465
1548439406146,0.025879,-0.949707,-0.117615,14.817074,-0.121951,-68.292686
1548439406153,0.042236,-0.899536,-0.137756,-0.731707,-1.524390,-72.621956
1548439406168,0.057190,-0.892029,-0.149475,-10.914635,-2.743902,-76.829269
1548439406183,0.074890,-0.895203,-0.161194,-15.914635,-3.963415,-81.463417
1548439406184,0.085510,-0.907654,-0.161560,-18.414635,-4.756098,-86.402443
1548439406198,0.114807,-0.920349,-0.145935,-17.926830,-6.280488,-90.487808
1548439406206,0.152222,-0.928162,-0.131592,-13.475610,-7.560976,-93.292686
1548439406213,0.185364,-0.930298,-0.122559,-9.878049,-7.804878,-95.670731
1548439406228,0.212646,-0.946960,-0.109253,-10.121951,-7.256098,-97.256104
1548439406236,0.230652,-0.985779,-0.102844,-13.780488,-6.707317,-97.804878
1548439406251,0.251587,-0.997925,-0.108826,-20.121952,-5.914634,-97.682930
1548439406258,0.268738,-0.979126,-0.124329,-27.439026,-4.329268,-97.378052
1548439406266,0.289734,-0.979736,-0.127136,-32.560978,-2.804878,-97.682930
1548439406273,0.315857,-1.017395,-0.119507,-33.231709,-1.524390,-98.414635
1548439406288,0.332153,-1.036438,-0.105774,-29.451220,-0.792683,-97.926834
1548439406303,0.350769,-1.030090,-0.092224,-24.329269,-0.914634,-96.707321
1548439406304,0.370422,-0.999634,-0.079468,-19.390244,-0.304878,-95.670731
1548439406318,0.385864,-0.965881,-0.063416,-15.243903,1.097561,-94.878052
1548439406326,0.394531,-0.951721,-0.064453,-11.280488,2.743902,-94.085365
1548439406333,0.404541,-0.941162,-0.070129,-7.621952,4.085366,-92.865852
1548439406348,0.412109,-0.925537,-0.087097,-6.585366,4.695122,-91.768295
1548439406356,0.427002,-0.904602,-0.107849,-9.085366,5.121951,-91.097565
1548439406363,0.439270,-0.889771,-0.134583,-12.195122,5.914634,-90.609756
1548439406378,0.432434,-0.876709,-0.143860,-14.817074,5.914634,-90.182930
1548439406386,0.442322,-0.873840,-0.125671,-15.975610,5.121951,-90.609756
1548439406393,0.467041,-0.866882,-0.106567,-14.329268,4.146341,-91.219513
1548439406408,0.488403,-0.837219,-0.091064,-10.792684,3.536585,-92.500000
1548439406416,0.508423,-0.798340,-0.081970,-7.012195,2.865854,-94.329269
1548439406423,0.526550,-0.774780,-0.074829,-3.414634,2.317073,-96.341469
1548439406438,0.542725,-0.762878,-0.080017,0.670732,2.073171,-98.170731
1548439406446,0.564331,-0.753662,-0.089294,6.097561,1.890244,-99.451225
1548439406453,0.581909,-0.739868,-0.093689,12.682927,2.134146,-100.609756
1548439406468,0.598328,-0.743774,-0.096008,19.512196,2.378049,-102.195122
1548439406476,0.621887,-0.750671,-0.099426,25.792683,2.378049,-102.987808
1548439406483,0.649353,-0.758423,-0.092651,31.280489,2.134146,-103.170731
1548439406498,0.672241,-0.757263,-0.090271,36.829269,1.768293,-103.536591
1548439406506,0.681946,-0.779663,-0.073242,39.756100,1.219512,-104.451225
1548439406513,0.692139,-0.835754,-0.049316,36.768295,-0.243902,-105.914635
1548439406528,0.716919,-0.845398,-0.037598,28.109756,-1.890244,-107.073174
1548439406536,0.732605,-0.837708,-0.031921,17.012196,-2.804878,-106.768295
1548439406543,0.756042,-0.836365,-0.049988,5.670732,-3.109756,-105.731712
1548439406558,0.774841,-0.810425,-0.074768,-2.987805,-1.890244,-103.841469
1548439406566,0.780579,-0.783691,-0.088013,-8.414635,-0.853659,-101.097565
1548439406573,0.782349,-0.767456,-0.096375,-10.060976,-0.365854,-98.170731
1548439406588,0.794189,-0.758789,-0.105408,-8.841464,0.365854,-95.000000
1548439406596,0.795532,-0.749268,-0.112000,-6.463415,1.219512,-91.646347
1548439406603,0.786316,-0.741577,-0.106079,-2.865854,1.341463,-88.414635
1548439406618,0.787170,-0.737488,-0.090576,2.073171,0.792683,-85.914635
1548439406625,0.787354,-0.738037,-0.078247,7.317073,0.914634,-84.146347
1548439406633,0.789062,-0.737610,-0.070984,11.280488,0.914634,-82.926834
1548439406648,0.797485,-0.713440,-0.071655,14.146341,0.304878,-81.768295
1548439406655,0.801514,-0.689697,-0.082947,15.914635,0.121951,-80.487808
1548439406663,0.800293,-0.681335,-0.096008,17.743902,-0.609756,-79.024391
1548439406686,0.808289,-0.676758,-0.109009,20.365854,-1.219512,-77.621956
1548439406686,0.810425,-0.675537,-0.109375,24.390244,-1.768293,-76.036591
1548439406693,0.809509,-0.671204,-0.103760,29.146341,-2.560976,-74.634148
1548439406708,0.814941,-0.662354,-0.100952,33.475609,-3.536585,-72.987808
1548439406716,0.825928,-0.661194,-0.105835,36.951221,-4.207317,-71.768295
1548439406723,0.827026,-0.663879,-0.103882,39.268295,-5.365854,-70.731712
1548439406738,0.830383,-0.668274,-0.100403,40.426830,-6.890244,-69.634148
1548439406746,0.851318,-0.679688,-0.099426,40.182926,-7.865854,-67.926834
1548439406753,0.856873,-0.692749,-0.094788,38.292683,-8.475610,-65.914635
1548439406768,0.854919,-0.696350,-0.088989,34.817074,-9.451220,-63.841465
1548439406776,0.858032,-0.687195,-0.077942,29.268293,-9.878049,-61.585369
1548439406783,0.867554,-0.683899,-0.070679,22.256098,-10.121951,-59.268295
1548439406799,0.866699,-0.678284,-0.070129,15.914635,-9.939025,-56.585365
1548439406806,0.857422,-0.667053,-0.067810,10.975610,-9.329268,-53.475613
1548439406813,0.859497,-0.655701,-0.062317,6.768293,-9.024390,-50.243904
1548439406828,0.859131,-0.647095,-0.051819,3.719512,-8.597561,-47.378052
1548439406836,0.857300,-0.639771,-0.044678,1.036585,-7.743903,-44.451221
1548439406843,0.861206,-0.626526,-0.034302,-2.621951,-7.317073,-41.158539
1548439406858,0.860962,-0.612854,-0.027527,-6.524390,-6.768293,-37.317074
1548439406866,0.865723,-0.606689,-0.017456,-9.146341,-5.914634,-33.292683
1548439406873,0.863708,-0.603088,-0.013123,-9.756098,-4.878049,-29.207317
1548439406888,0.858093,-0.597717,-0.007568,-9.756098,-3.963415,-25.182928
1548439406903,0.861938,-0.594116,-0.005493,-10.365854,-2.926829,-21.219513
1548439406904,0.862854,-0.588562,-0.007202,-11.768293,-1.585366,-17.195122
1548439406918,0.863159,-0.585022,-0.013367,-13.292684,-0.731707,-13.231708
1548439406926,0.867859,-0.585999,-0.021423,-13.963415,0.487805,-9.268292
1548439406933,0.870789,-0.582275,-0.032288,-13.780488,1.402439,-5.000000
1548439406948,0.866943,-0.586487,-0.038330,-12.134147,2.073171,-0.548781
1548439406956,0.867310,-0.591370,-0.035645,-8.963415,2.134146,3.841464
1548439406963,0.868652,-0.597778,-0.030090,-5.670732,2.073171,7.987805
1548439406979,0.866638,-0.603088,-0.027893,-3.109756,2.256098,12.073171
1548439406986,0.863586,-0.616394,-0.027771,-1.219512,2.256098,16.341463
1548439406993,0.863159,-0.624146,-0.032776,-0.182927,2.500000,20.731709
1548439407008,0.866882,-0.630188,-0.045654,-0.304878,2.987805,24.939026
1548439407017,0.872742,-0.640137,-0.062683,-0.304878,3.231707,29.512196
1548439407023,0.867615,-0.647034,-0.072266,0.853659,3.109756,34.024391
1548439407038,0.857971,-0.654663,-0.068237,3.109756,2.743902,38.719513
1548439407046,0.857483,-0.661804,-0.062927,4.512195,2.682927,43.170734
1548439407053,0.867249,-0.670227,-0.064087,4.634146,2.804878,47.500000
1548439407076,0.861084,-0.679321,-0.056274,4.207317,3.170732,52.012196
1548439407076,0.847595,-0.688721,-0.053772,5.121951,3.414634,56.402439
1548439407083,0.855591,-0.697144,-0.058716,6.768293,3.902439,60.609756
1548439407098,0.857056,-0.713379,-0.073181,8.109756,4.207317,64.695122
1548439407106,0.850525,-0.726196,-0.074890,9.695122,3.902439,69.085365
1548439407113,0.846985,-0.736084,-0.061340,11.646341,3.841464,73.414635
1548439407128,0.844666,-0.748657,-0.051575,13.170732,4.207317,77.804878
1548439407136,0.842468,-0.771973,-0.047302,13.292684,4.817073,82.073174
1548439407143,0.844238,-0.793091,-0.047607,11.951220,5.243903,86.463417
1548439407158,0.835449,-0.806946,-0.045776,10.243902,5.670732,90.853661
1548439407166,0.822876,-0.804565,-0.036438,7.926829,5.914634,94.878052
1548439407173,0.822510,-0.798645,-0.025330,4.695122,6.402439,98.597565
1548439407188,0.826660,-0.807617,-0.026001,2.378049,7.378049,101.768295
1548439407196,0.837708,-0.812317,-0.033508,1.463415,8.414635,105.426834
1548439407203,0.831848,-0.816345,-0.032471,0.365854,9.512196,109.085365
1548439407218,0.824219,-0.821289,-0.022095,-0.548781,10.243902,112.560982
1548439407226,0.814819,-0.817505,-0.017761,-0.365854,11.097561,116.097565
1548439407233,0.810181,-0.814575,-0.015564,0.243902,12.256098,119.573174
1548439407248,0.806519,-0.823792,-0.022278,1.890244,13.292684,123.170738
1548439407256,0.796936,-0.847961,-0.026978,5.365854,14.024390,127.134148
1548439407263,0.784729,-0.882019,-0.019897,8.780488,14.756098,131.036591
1548439407278,0.764343,-0.904114,-0.013733,10.365854,15.792684,135.060974
1548439407286,0.755798,-0.912964,-0.007874,9.146341,16.158537,138.841461
1548439407293,0.751343,-0.902466,-0.003845,5.792683,15.792684,141.646347
1548439407308,0.738159,-0.904053,-0.011658,1.707317,15.487805,144.512192
1548439407316,0.710693,-0.924194,-0.017578,-1.219512,15.060976,147.012192
1548439407323,0.696045,-0.922119,-0.022522,-2.621951,13.719513,148.902435
1548439407338,0.678894,-0.917053,-0.034180,-3.292683,13.048780,150.670731
1548439407353,0.643127,-0.919861,-0.029724,-4.268293,12.378049,152.012192
1548439407354,0.620300,-0.901367,-0.011230,-2.743902,10.853659,153.414642
1548439407368,0.604858,-0.887756,-0.015930,0.000000,9.939025,154.268295
1548439407376,0.562195,-0.888611,-0.026672,0.000000,9.634147,154.329269
1548439407383,0.530212,-0.890808,-0.029297,-0.365854,8.536586,154.695129
1548439407398,0.506165,-0.876343,-0.026184,1.829268,7.926829,154.573181
1548439407406,0.469482,-0.870178,-0.019653,4.512195,7.560976,153.841461
1548439407413,0.445312,-0.876770,-0.003662,6.158537,6.829268,152.012192
1548439407428,0.422974,-0.872009,0.005554,6.646342,6.585366,150.182938
1548439407436,0.396912,-0.853638,0.008484,5.975610,6.707317,148.292679
1548439407443,0.362976,-0.843201,0.008728,4.390244,6.463415,145.792679
1548439407458,0.318359,-0.836914,0.009644,3.292683,6.158537,142.804886
1548439407466,0.286255,-0.827820,0.009644,4.207317,6.097561,139.634155
1548439407473,0.259033,-0.812622,0.008545,7.560976,6.524390,135.731705
1548439407488,0.243469,-0.817200,0.008850,10.243902,7.743903,130.853668
1548439407496,0.235535,-0.816406,0.003540,12.134147,8.719512,125.975616
1548439407503,0.214233,-0.828003,-0.003662,14.207317,9.512196,121.707321
1548439407518,0.187195,-0.846497,-0.009888,14.512196,10.243902,117.195122
1548439407525,0.163635,-0.835876,-0.012329,13.292684,10.000000,112.865860
1548439407533,0.135925,-0.822327,0.000916,10.853659,9.695122,108.658539
1548439407548,0.120056,-0.818359,0.018066,8.231708,9.207317,104.207321
1548439407556,0.112610,-0.836426,0.017151,6.036585,8.841464,100.060982
1548439407563,0.090637,-0.869995,0.002930,3.719512,8.170732,96.951225
1548439407578,0.066101,-0.881775,-0.012146,2.073171,7.012195,94.451225
1548439407586,0.039978,-0.861145,-0.016174,3.231707,6.463415,91.524391
1548439407593,0.006226,-0.851379,-0.013367,6.341464,5.914634,87.621956
1548439407608,-0.019653,-0.844910,-0.008057,9.512196,5.365854,83.414635
1548439407616,-0.039246,-0.821594,-0.003723,12.256098,5.121951,79.451218
1548439407623,-0.055969,-0.829956,0.001831,13.902439,5.182927,75.243904
1548439407638,-0.070129,-0.847351,0.012878,14.146341,5.060976,70.975609
1548439407646,-0.086731,-0.841003,0.021362,11.158537,4.878049,66.463417
1548439407653,-0.111389,-0.823242,0.023621,4.634146,4.573171,61.646343
1548439407668,-0.128357,-0.819458,0.025696,-0.487805,3.780488,57.256100
1548439407675,-0.134949,-0.823975,0.027954,-2.743902,3.292683,52.926830
1548439407683,-0.153259,-0.831299,0.029541,-5.000000,3.414634,48.414635
1548439407698,-0.153931,-0.835693,0.021912,-7.804878,3.414634,43.963417
1548439407706,-0.166260,-0.844116,0.011719,-8.780488,3.597561,39.878048
1548439407713,-0.177551,-0.849609,0.007080,-7.865854,3.292683,35.975609
1548439407728,-0.192566,-0.838135,0.007935,-4.146341,3.109756,32.317074
1548439407736,-0.212402,-0.838501,0.010376,1.341463,2.378049,28.719513
1548439407743,-0.220642,-0.857849,0.036255,6.280488,2.378049,25.304878
1548439407758,-0.220093,-0.884949,0.054871,8.780488,3.109756,21.951220
1548439407766,-0.227722,-0.906494,0.038208,6.341464,4.329268,19.268293
1548439407773,-0.243225,-0.903259,0.014526,-0.121951,4.573171,16.341463
1548439407788,-0.244385,-0.862488,-0.000671,-7.317073,4.451220,13.414635
1548439407796,-0.248657,-0.828979,-0.018250,-12.865854,4.329268,10.243902
1548439407803,-0.262024,-0.818787,-0.033569,-15.853659,3.353659,6.768293
1548439407818,-0.266907,-0.813538,-0.035461,-15.487805,2.134146,3.658537
1548439407826,-0.264893,-0.797241,-0.047791,-12.439025,1.036585,0.548781
1548439407833,-0.263306,-0.788879,-0.051514,-7.439024,-0.060976,-2.865854
1548439407848,-0.268066,-0.809937,-0.048279,-1.402439,-1.097561,-6.585366
1548439407856,-0.271912,-0.834656,-0.048096,5.060976,-2.073171,-10.000000
1548439407863,-0.264526,-0.844360,-0.050781,10.000000,-3.292683,-13.292684
1548439407878,-0.256287,-0.868652,-0.045715,11.829268,-4.390244,-17.073172
1548439407886,-0.246155,-0.884888,-0.036133,9.512196,-5.731708,-20.853659
1548439407893,-0.232666,-0.891907,-0.036987,3.231707,-7.743903,-24.207317
1548439407908,-0.218384,-0.931030,-0.033875,-5.365854,-9.329268,-27.682928
1548439407916,-0.204590,-0.954956,-0.031372,-10.914635,-10.365854,-30.121952
1548439407923,-0.197571,-0.935181,-0.027954,-11.707317,-11.036586,-31.768293
1548439407938,-0.190002,-0.919189,-0.019897,-9.024390,-11.463415,-33.475609
1548439407946,-0.181152,-0.938354,-0.014343,-2.378049,-11.097561,-34.573170
1548439407953,-0.170166,-0.973145,-0.004395,5.731708,-10.243902,-34.939026
1548439407968,-0.167847,-0.983093,0.002014,11.890244,-9.329268,-35.182926
1548439407983,-0.164246,-0.989197,0.006226,14.268293,-8.536586,-35.731709
1548439407984,-0.159424,-0.997437,0.005432,14.024390,-7.865854,-36.646343
1548439407998,-0.153442,-0.994019,0.005554,11.463415,-7.560976,-37.500000
1548439408006,-0.146423,-0.992554,-0.002441,4.573171,-7.073171,-38.902439
1548439408013,-0.137695,-0.996277,-0.010864,-3.475610,-6.524390,-40.426830
1548439408028,-0.133179,-0.967224,-0.017090,-8.963415,-6.158537,-41.890244
1548439408036,-0.114075,-0.921692,-0.011719,-12.439025,-5.731708,-44.207317
1548439408043,-0.092285,-0.904907,0.000488,-13.658537,-5.060976,-47.378052
1548439408058,-0.074768,-0.893005,0.001343,-11.890244,-4.634146,-49.756100
1548439408066,-0.059265,-0.891602,0.000244,-8.780488,-3.963415,-51.646343
1548439408073,-0.041931,-0.918152,-0.008301,-4.878049,-3.414634,-53.780491
1548439408088,-0.024231,-0.925903,-0.016541,-1.402439,-3.170732,-55.609756
1548439408096,-0.007874,-0.919312,-0.025879,0.000000,-3.475610,-57.926830
1548439408103,0.009033,-0.935913,-0.030396,0.121951,-3.780488,-60.548782
1548439408118,0.023315,-0.958740,-0.030701,-0.975610,-4.146341,-62.439026
1548439408125,0.035889,-0.945618,-0.036011,-4.085366,-5.060976,-64.024391
1548439408133,0.049744,-0.947205,-0.029846,-8.109756,-6.158537,-65.975609
1548439408148,0.062744,-0.937988,-0.026428,-9.207317,-6.829268,-67.621956
1548439408156,0.072754,-0.932495,-0.011169,-7.378049,-7.439024,-69.085365
1548439408163,0.089722,-0.957092,0.011902,-4.939024,-7.743903,-70.731712
1548439408178,0.100708,-0.961670,0.021790,-1.890244,-7.987805,-71.951218
1548439408186,0.110718,-0.960815,0.026001,0.792683,-8.292683,-72.926834
1548439408193,0.122437,-0.968384,0.018311,3.048780,-8.231708,-73.963417
1548439408208,0.137390,-0.993713,0.013733,5.121951,-7.500000,-75.000000
1548439408215,0.162415,-1.004456,0.000366,4.817073,-6.890244,-76.280487
1548439408223,0.178528,-0.990784,-0.014648,2.926829,-6.829268,-77.073174
1548439408238,0.184265,-0.988647,-0.020447,0.365854,-6.951220,-77.621956
1548439408246,0.194458,-0.991272,-0.011230,-1.646341,-6.890244,-78.109756
1548439408253,0.211426,-0.970032,0.001282,-0.609756,-7.073171,-78.353661
1548439408268,0.220947,-0.944641,0.011780,1.707317,-7.256098,-78.780487
1548439408276,0.227417,-0.941101,0.026306,3.353659,-7.378049,-79.451218
1548439408283,0.249512,-0.956116,0.034729,4.390244,-7.073171,-79.573174
1548439408298,0.271118,-0.985046,0.037292,5.121951,-6.524390,-79.268295
1548439408305,0.299866,-1.026611,0.032776,3.841464,-6.219512,-79.390244
1548439408313,0.321716,-1.039307,0.008728,-0.426829,-5.975610,-79.268295
1548439408336,0.324402,-1.010132,-0.013489,-5.243903,-6.463415,-78.353661
1548439408336,0.331665,-0.998352,-0.020020,-8.780488,-6.951220,-77.378052
1548439408343,0.351013,-0.978271,-0.022583,-7.682927,-7.073171,-75.914635
1548439408358,0.361267,-0.946533,-0.031372,-2.073171,-7.439024,-74.390244
1548439408366,0.366760,-0.954285,-0.017517,5.243903,-7.743903,-73.536591
1548439408373,0.377380,-0.969849,-0.003479,13.109756,-7.865854,-73.109756
1548439408388,0.385803,-0.963501,0.003174,18.597561,-8.231708,-72.195122
1548439408403,0.390320,-0.942383,0.025085,19.634148,-8.536586,-71.646339
1548439408404,0.406433,-0.938538,0.041504,17.804878,-8.780488,-71.402443
1548439408418,0.421021,-0.959412,0.024780,13.658537,-8.658537,-70.609756
1548439408433,0.422363,-0.959412,0.000793,8.658537,-8.841464,-69.024391
1548439408434,0.422363,-0.940186,-0.017212,4.878049,-9.451220,-67.500000
1548439408448,0.429138,-0.927795,-0.028687,2.378049,-10.000000,-67.012199
1548439408456,0.430298,-0.910278,-0.034119,1.951220,-10.609756,-67.195122
1548439408463,0.431885,-0.893494,-0.030762,2.743902,-11.707317,-67.743904
1548439408478,0.440674,-0.884766,-0.021851,4.634146,-12.378049,-68.536591
1548439408494,0.457397,-0.883972,-0.015259,8.231708,-12.987805,-69.451218
1548439408494,0.466309,-0.872437,-0.013977,12.500000,-13.292684,-70.365852
1548439408509,0.477295,-0.870789,-0.009155,15.914635,-13.719513,-71.097565
1548439408516,0.491455,-0.894714,0.002502,17.500000,-13.963415,-71.524391
1548439408524,0.505005,-0.896484,0.007935,16.158537,-13.658537,-71.219513
1548439408539,0.516357,-0.879700,0.001953,11.097561,-13.353659,-70.792686
1548439408546,0.522644,-0.865173,-0.005493,5.060976,-13.292684,-70.548782
1548439408554,0.525574,-0.841064,-0.006042,0.731707,-13.170732,-70.365852
1548439408569,0.532898,-0.816650,-0.007141,-1.341463,-13.292684,-70.792686
1548439408576,0.548340,-0.812744,-0.003296,-0.487805,-13.353659,-71.768295
1548439408584,0.567444,-0.829224,-0.001038,2.621951,-13.231708,-72.804878
1548439408599,0.591736,-0.837524,-0.001160,6.402439,-13.231708,-73.536591
1548439408606,0.606079,-0.833435,-0.003296,8.414635,-13.353659,-73.963417
1548439408614,0.619995,-0.845825,-0.002319,8.841464,-13.292684,-74.329269
1548439408636,0.635376,-0.855835,0.000549,8.292683,-12.804878,-74.085365
1548439408637,0.641235,-0.837097,0.001343,5.243903,-12.500000,-73.414635
1548439408644,0.643738,-0.812256,0.006104,0.060976,-12.500000,-72.621956
1548439408659,0.645447,-0.783813,0.009216,-4.451220,-12.256098,-72.134148
1548439408666,0.649414,-0.749573,0.013733,-6.890244,-12.134147,-72.134148
1548439408674,0.654175,-0.728027,0.015747,-7.439024,-12.256098,-72.195122
1548439408689,0.664917,-0.723938,0.009460,-6.402439,-12.378049,-72.560974
1548439408696,0.675903,-0.719421,0.003113,-2.987805,-12.378049,-72.987808
1548439408704,0.687683,-0.716064,-0.004150,1.097561,-12.378049,-73.597565
1548439408719,0.703552,-0.710266,-0.014099,4.573171,-12.500000,-74.390244
1548439408726,0.716125,-0.712585,-0.022156,7.256098,-12.378049,-74.817078
1548439408734,0.721252,-0.705322,-0.028687,9.085366,-12.195122,-74.878052
1548439408749,0.725464,-0.697876,-0.030701,10.182927,-12.256098,-74.878052
1548439408756,0.734558,-0.695862,-0.028992,10.487805,-12.743903,-75.000000
1548439408764,0.743469,-0.695618,-0.027466,10.000000,-13.109756,-75.121956
1548439408779,0.754944,-0.691223,-0.024658,7.804878,-13.536586,-75.609756
1548439408786,0.756531,-0.685120,-0.022400,5.060976,-13.963415,-76.219513
1548439408794,0.768005,-0.680542,-0.020630,3.353659,-14.512196,-76.524391
1548439408809,0.792114,-0.675842,-0.023743,2.500000,-14.939025,-76.585365
1548439408816,0.801758,-0.669312,-0.027893,2.804878,-15.000000,-76.646347
1548439408824,0.809875,-0.672546,-0.033630,4.085366,-15.060976,-76.280487
1548439408839,0.830811,-0.689087,-0.038879,5.487805,-14.939025,-75.731712
1548439408846,0.859009,-0.719543,-0.029663,7.560976,-14.878049,-73.780487
1548439408854,0.871948,-0.752930,-0.026367,10.731708,-14.390244,-71.097565
1548439408869,0.871155,-0.762695,-0.021179,12.560976,-13.902439,-67.743904
1548439408877,0.874634,-0.771240,-0.016113,11.036586,-13.719513,-62.804878
1548439408891,0.866516,-0.777344,-0.009460,6.341464,-12.804878,-56.890244
1548439408899,0.866272,-0.776062,-0.006897,-0.914634,-12.134147,-50.792683
1548439408907,0.872131,-0.762268,0.006531,-8.536586,-11.158537,-44.817074
1548439408914,0.870483,-0.738220,0.015930,-14.085366,-9.939025,-38.109756
1548439408929,0.862427,-0.709412,0.020752,-16.585365,-8.719512,-31.585367
1548439408951,0.850098,-0.691345,0.017578,-17.378050,-7.926829,-25.731709
1548439408952,0.834412,-0.679138,0.011414,-16.829269,-7.012195,-19.878050
1548439408959,0.819458,-0.659363,0.022156,-14.451220,-6.402439,-14.512196
1548439408966,0.815002,-0.646912,0.040222,-10.365854,-5.609756,-10.000000
1548439408974,0.809265,-0.645020,0.050293,-4.695122,-4.268293,-6.280488
1548439408989,0.801331,-0.648621,0.058533,0.487805,-3.231707,-3.048780
1548439408996,0.800354,-0.658691,0.065247,3.109756,-2.134146,-0.121951
1548439409004,0.804993,-0.665588,0.058472,3.109756,-0.792683,3.353659
1548439409019,0.803833,-0.682922,0.047974,1.585366,0.365854,7.134147
1548439409026,0.802856,-0.698120,0.030579,-1.463415,1.158537,11.219512
1548439409034,0.801880,-0.704285,0.018982,-4.390244,1.951220,15.426829
1548439409049,0.801758,-0.714050,0.012573,-6.158537,2.926829,19.207317
1548439409056,0.799377,-0.706421,0.000366,-7.743903,3.658537,22.378050
1548439409063,0.796448,-0.701477,-0.006531,-8.475610,3.841464,25.426830
1548439409079,0.794861,-0.704224,-0.012817,-7.256098,4.146341,28.536587
1548439409086,0.795227,-0.713318,-0.023560,-4.207317,4.573171,31.768293
1548439409094,0.796997,-0.724976,-0.027954,-0.731707,4.878049,35.060978
1548439409109,0.795715,-0.746826,-0.030762,1.890244,5.182927,38.658539
1548439409116,0.795227,-0.768127,-0.036377,3.170732,5.670732,42.804878
1548439409124,0.791321,-0.777527,-0.038635,3.231707,5.670732,47.073174
1548439409139,0.791626,-0.774475,-0.037231,1.890244,5.548780,51.158539
1548439409146,0.795105,-0.772522,-0.042297,0.182927,5.365854,54.939026
1548439409154,0.795166,-0.776917,-0.046997,-0.914634,5.243903,58.780491
1548439409169,0.790833,-0.777588,-0.044983,-0.121951,5.243903,63.109756
1548439409176,0.778137,-0.776306,-0.040283,2.256098,5.426829,67.256096
1548439409184,0.769836,-0.770569,-0.033142,5.853659,5.304878,70.914635
1548439409199,0.770325,-0.793579,-0.026428,10.365854,5.731708,74.329269
1548439409206,0.765015,-0.819214,-0.015625,14.024390,6.402439,77.560974
1548439409214,0.765320,-0.841187,-0.004822,15.243903,6.829268,81.341469
1548439409228,0.766968,-0.862671,-0.005554,13.048780,7.256098,85.060974
1548439409236,0.765381,-0.885803,-0.014404,9.207317,7.500000,89.024391
1548439409244,0.752136,-0.912415,-0.017700,4.268293,7.743903,93.414635
1548439409259,0.748596,-0.939392,-0.030640,0.487805,7.743903,98.109756
1548439409267,0.758911,-0.953735,-0.035217,-2.195122,7.378049,102.865852
1548439409274,0.760681,-0.944885,-0.044861,-5.182927,7.256098,107.378052
1548439409288,0.746826,-0.935303,-0.037842,-7.378049,7.317073,111.158539
1548439409297,0.728821,-0.930420,-0.025940,-7.256098,7.195122,114.634148
1548439409303,0.715942,-0.922424,-0.030945,-5.304878,7.378049,118.231712
1548439409318,0.702820,-0.906799,-0.032532,-3.841464,7.743903,120.426834
1548439409326,0.691223,-0.919739,-0.035522,-3.170732,8.292683,122.500000
1548439409333,0.677612,-0.935791,-0.034668,-0.121951,8.841464,125.731712
1548439409348,0.663147,-0.935608,-0.035645,4.085366,8.597561,128.841461
1548439409356,0.647034,-0.946106,-0.026489,6.951220,7.743903,131.219513
1548439409364,0.630920,-0.946899,-0.013245,8.902439,7.865854,134.207321
1548439409378,0.622070,-0.965698,-0.007996,10.121951,8.475610,136.951218
1548439409386,0.609375,-0.996826,-0.013245,9.573171,8.780488,139.329269
1548439409393,0.594849,-1.029602,-0.010315,6.951220,8.780488,142.378052
1548439409408,0.581543,-1.041443,0.001465,3.963415,9.085366,145.792679
1548439409416,0.559204,-1.044861,0.018005,3.475610,9.756098,149.268295
1548439409423,0.540649,-1.070679,0.028992,4.878049,10.426829,151.951218
1548439409438,0.510315,-1.064636,0.040161,4.573171,12.073171,154.451218
1548439409446,0.471191,-1.056763,0.046387,0.182927,13.536586,156.280487
1548439409453,0.451965,-1.057678,0.040771,-4.695122,14.573171,157.560974
1548439409468,0.435364,-1.009277,0.026917,-6.890244,15.609756,158.719513
1548439409476,0.399353,-0.954590,0.008362,-6.890244,16.402439,158.475616
1548439409484,0.350891,-0.946899,0.004150,-3.780488,16.280489,157.987808
1548439409498,0.330505,-0.950195,-0.002686,2.682927,15.792684,158.414642
1548439409506,0.310547,-0.972534,-0.016602,7.256098,16.036585,158.475616
1548439409513,0.292114,-0.996826,-0.029175,9.634147,16.097561,158.109756
1548439409529,0.282959,-0.996887,-0.036011,10.365854,15.426829,157.621948
1548439409536,0.257629,-1.010498,-0.038147,10.060976,14.268293,157.134155
1548439409543,0.236267,-1.037659,-0.012573,7.500000,12.743903,156.890244
1548439409559,0.221680,-1.004456,0.005554,1.585366,12.012196,156.585373
1548439409566,0.179688,-0.926941,0.016052,-6.768293,10.914635,155.243912
1548439409574,0.145630,-0.884216,0.028137,-13.475610,9.573171,153.475616
1548439409588,0.125977,-0.880066,0.017700,-15.853659,9.268292,151.585373
1548439409597,0.085754,-0.851807,0.004456,-15.121951,9.207317,149.329269
1548439409603,0.057129,-0.806213,0.018127,-13.536586,8.841464,145.609756
1548439409619,0.049072,-0.757019,0.020874,-10.487805,9.268292,141.219513
1548439409626,0.009521,-0.741089,0.018860,-6.158537,10.000000,136.768295
1548439409634,-0.033203,-0.765137,0.040771,-1.280488,10.000000,132.621948
1548439409649,-0.047913,-0.787476,0.037048,1.524390,10.731708,127.926834
1548439409656,-0.073181,-0.794250,0.028564,2.865854,11.219512,123.658539
1548439409664,-0.108765,-0.765808,0.026550,4.268293,11.097561,119.024391
1548439409679,-0.143738,-0.744934,0.021606,4.756098,11.829268,113.597565
1548439409686,-0.195007,-0.757446,0.007874,4.573171,12.865854,108.658539
1548439409694,-0.206238,-0.787537,0.017334,5.975610,13.536586,104.512199
1548439409708,-0.208740,-0.828369,0.025085,0.548781,15.000000,99.512199
1548439409716,-0.239502,-0.767944,-0.002258,-11.646341,16.036585,94.207321
1548439409724,-0.266846,-0.706665,-0.033386,-21.951220,15.000000,88.292686
1548439409739,-0.294800,-0.661865,-0.061890,-25.121952,13.841464,82.804878
1548439409747,-0.325500,-0.637207,-0.062622,-20.853659,12.439025,77.621956
1548439409754,-0.348328,-0.630005,-0.034119,-12.560976,11.768293,71.951218
1548439409769,-0.354980,-0.671265,0.004517,-2.804878,12.317074,66.585365
1548439409776,-0.355835,-0.714478,0.015442,4.939024,13.048780,61.219513
1548439409784,-0.362854,-0.762634,0.026855,6.646342,13.414635,56.158539
1548439409799,-0.378784,-0.804871,0.011047,0.731707,13.841464,51.341465
1548439409806,-0.392944,-0.789612,-0.031006,-7.317073,13.353659,47.439026
1548439409814,-0.406738,-0.775940,-0.065125,-14.268293,12.134147,44.085365
1548439409828,-0.456482,-0.747253,-0.065002,-18.658537,11.585366,42.560978
1548439409836,-0.459473,-0.734985,-0.078552,-18.414635,10.914635,39.207317
1548439409843,-0.465881,-0.727600,-0.094421,-14.390244,10.731708,35.000000
1548439409858,-0.504700,-0.711243,-0.077637,-10.853659,9.329268,31.219513
1548439409866,-0.484924,-0.714844,-0.093567,-9.512196,8.231708,26.585367
1548439409874,-0.481445,-0.716492,-0.123596,-7.560976,7.926829,21.036587
1548439409888,-0.493591,-0.701355,-0.137451,-4.756098,5.121951,16.036585
1548439409903,-0.487122,-0.707031,-0.151733,-5.487805,3.048780,10.182927
1548439409904,-0.484619,-0.718140,-0.159668,-6.402439,0.792683,4.268293
1548439409918,-0.494873,-0.701050,-0.171448,-9.512196,-2.378049,-1.280488
1548439409926,-0.499512,-0.677612,-0.164307,-15.182927,-5.365854,-6.890244
1548439409933,-0.478821,-0.662109,-0.187622,-19.756098,-7.195122,-12.195122
1548439409949,-0.500000,-0.658508,-0.190186,-19.634148,-8.658537,-17.500000
1548439409956,-0.493347,-0.666321,-0.180481,-13.475610,-10.975610,-23.414635
1548439409963,-0.473694,-0.703491,-0.165405,-5.304878,-11.097561,-29.756098
1548439409978,-0.459473,-0.766357,-0.137390,3.658537,-11.829268,-36.158539
1548439409986,-0.442017,-0.807861,-0.097168,9.451220,-12.134147,-41.829269
1548439409993,-0.425781,-0.839539,-0.064575,8.963415,-11.768293,-46.585365
1548439410008,-0.409302,-0.855774,-0.042297,2.439024,-11.768293,-50.853661
1548439410016,-0.373474,-0.884277,-0.034851,-6.829268,-10.792684,-53.902439
1548439410023,-0.385803,-0.878479,-0.029053,-14.390244,-9.085366,-54.390244
1548439410038,-0.385193,-0.832520,-0.025574,-19.451220,-7.073171,-54.146343
1548439410046,-0.367798,-0.831421,-0.028320,-17.560976,-4.878049,-57.439026
1548439410053,-0.364380,-0.838379,-0.024902,-10.060976,-2.378049,-58.963417
1548439410068,-0.339233,-0.839233,-0.015625,-1.829268,-0.121951,-61.768295
1548439410076,-0.321533,-0.848328,-0.012573,4.634146,2.500000,-63.414635
1548439410083,-0.298401,-0.844604,-0.020935,7.804878,4.146341,-65.548782
1548439410098,-0.287231,-0.827454,-0.024109,7.804878,5.304878,-68.536591
1548439410106,-0.268311,-0.808533,-0.037781,4.695122,5.975610,-71.890244
1548439410113,-0.248657,-0.808594,-0.059814,0.670732,6.036585,-75.365852
1548439410128,-0.216064,-0.860840,-0.065796,-2.743902,5.365854,-79.207321
1548439410136,-0.183777,-0.865173,-0.076965,-4.634146,4.695122,-83.109756
1548439410143,-0.186462,-0.842712,-0.096680,-4.451220,3.597561,-87.073174
1548439410158,-0.179565,-0.858032,-0.088684,-1.036585,1.463415,-90.731712
1548439410166,-0.155945,-0.855530,-0.079102,5.548780,0.182927,-93.719513
1548439410173,-0.149475,-0.851013,-0.073059,13.963415,-0.487805,-96.219513
1548439410189,-0.135376,-0.882629,-0.056458,21.951220,-1.829268,-98.414635
1548439410196,-0.129822,-0.887085,-0.045227,25.000000,-2.378049,-100.182930
1548439410203,-0.127808,-0.870361,-0.052368,22.073172,-2.865854,-102.743904
1548439410218,-0.120117,-0.877686,-0.065613,13.658537,-3.780488,-105.853661
1548439410226,-0.085266,-0.908081,-0.078918,-1.463415,-4.573171,-108.963417
1548439410233,-0.075745,-0.864075,-0.095337,-17.865854,-5.121951,-110.853661
1548439410248,-0.035583,-0.833252,-0.106323,-28.963415,-5.792683,-115.487808
1548439410256,-0.004578,-0.879028,-0.087463,-27.926830,-5.670732,-120.731712
1548439410263,0.036316,-0.894287,-0.059937,-19.756098,-5.243903,-124.024391
1548439410279,0.084045,-0.909790,-0.059509,-11.341464,-3.719512,-127.256104
1548439410286,0.112061,-0.945496,-0.065491,-4.329268,-1.829268,-129.451218
1548439410293,0.122192,-0.970337,-0.069214,1.463415,-0.487805,-129.573181
1548439410308,0.139954,-0.968445,-0.081726,2.439024,0.792683,-129.634155
1548439410316,0.161194,-0.926880,-0.073547,-2.926829,2.256098,-130.792679
1548439410323,0.202942,-0.911438,-0.045837,-10.731708,3.536585,-134.085373
1548439410338,0.249207,-0.882690,-0.040649,-18.048780,4.756098,-137.317078
1548439410346,0.282715,-0.898804,-0.066650,-21.219513,5.060976,-138.719513
1548439410353,0.320190,-0.983826,-0.081970,-17.012196,4.878049,-139.390244
1548439410368,0.368286,-1.033264,-0.074097,-8.536586,5.609756,-139.268295
1548439410376,0.409363,-1.071716,-0.087646,-1.524390,5.853659,-139.878052
1548439410383,0.422607,-1.064636,-0.112549,0.548781,5.121951,-139.878052
1548439410398,0.425842,-1.031677,-0.130554,-2.012195,3.902439,-138.780487
1548439410406,0.433777,-0.975708,-0.127930,-8.597561,3.231707,-138.231705
1548439410413,0.439087,-0.890991,-0.091919,-14.695123,3.048780,-137.804886
1548439410435,0.447998,-0.846863,-0.070801,-18.719513,4.024390,-137.378052
1548439410436,0.470337,-0.862732,-0.082153,-19.207317,4.756098,-137.073181
1548439410443,0.501953,-0.890503,-0.107239,-16.097561,4.329268,-136.829269
1548439410458,0.546997,-0.887756,-0.118408,-11.646341,3.658537,-138.292679
1548439410465,0.595764,-0.895630,-0.112061,-6.158537,3.414634,-141.036591
1548439410473,0.648010,-0.953796,-0.119202,-0.182927,3.231707,-142.195129
1548439410488,0.686218,-1.004822,-0.141052,2.134146,2.682927,-140.914642
1548439410496,0.693176,-0.990723,-0.164307,-3.414634,1.280488,-137.256104
1548439410503,0.683228,-0.965393,-0.167297,-13.231708,-0.670732,-132.560974
1548439410518,0.673767,-0.939331,-0.147034,-19.573172,-2.560976,-128.902435
1548439410526,0.677979,-0.883850,-0.142151,-22.987806,-3.170732,-126.219513
1548439410533,0.667603,-0.787048,-0.132324,-26.158537,-3.170732,-123.780487
1548439410548,0.681641,-0.701477,-0.116333,-23.597561,-3.658537,-122.682930
1548439410556,0.688843,-0.717041,-0.106262,-9.573171,-2.621951,-124.634148
1548439410564,0.721863,-0.777466,-0.105957,15.731708,-2.987805,-122.926834
1548439410578,0.780945,-0.848938,-0.096802,41.890244,-4.756098,-119.939026
1548439410586,0.830566,-0.868469,-0.088928,57.317074,-5.365854,-118.658539
1548439410593,0.829407,-0.825928,-0.096924,55.548782,-4.268293,-118.963417
1548439410608,0.795227,-0.767639,-0.099243,44.756100,-3.170732,-118.231712
1548439410616,0.816101,-0.760925,-0.094482,44.573174,-5.060976,-114.390244
1548439410623,0.825195,-0.754578,-0.056519,49.451221,-6.951220,-111.341469
1548439410638,0.819702,-0.770935,-0.019531,53.353661,-8.536586,-108.353661
1548439410653,0.829834,-0.800964,-0.009583,49.329269,-10.304878,-106.463417
1548439410661,0.843994,-0.811340,-0.023743,36.463417,-10.670732,-102.987808
1548439410668,0.858948,-0.794189,-0.031189,23.841463,-10.548780,-97.987808
1548439410676,0.878967,-0.805664,-0.025208,17.317074,-9.329268,-93.475609
1548439410683,0.888977,-0.809570,-0.036865,15.548780,-7.317073,-87.317078
1548439410698,0.887329,-0.803101,-0.039124,14.878049,-6.463415,-79.939026
1548439410706,0.876465,-0.804749,-0.035645,12.682927,-5.792683,-72.621956
1548439410713,0.863403,-0.797791,-0.028442,8.170732,-5.000000,-65.609756
1548439410728,0.851501,-0.763916,-0.028259,2.621951,-4.451220,-59.390244
1548439410736,0.840149,-0.727478,-0.024963,-1.646341,-4.085366,-54.085365
1548439410743,0.828186,-0.711670,-0.028259,-4.024390,-3.841464,-49.573174
1548439410758,0.822876,-0.694763,-0.036743,-3.780488,-3.597561,-45.792683
1548439410766,0.813721,-0.675110,-0.035095,-1.768293,-3.658537,-42.256100
1548439410773,0.812744,-0.678223,-0.037415,1.707317,-3.536585,-39.512196
1548439410788,0.819153,-0.708740,-0.047119,6.829268,-3.231707,-36.402439
1548439410796,0.820190,-0.729431,-0.056885,11.402439,-3.109756,-32.439026
1548439410803,0.818176,-0.748352,-0.058228,13.719513,-3.231707,-27.621952
1548439410818,0.821594,-0.773010,-0.057190,12.378049,-3.475610,-22.682928
1548439410833,0.820923,-0.779358,-0.061340,6.890244,-3.475610,-17.378050
1548439410834,0.815308,-0.755127,-0.061401,-0.060976,-3.048780,-11.402439
1548439410848,0.812866,-0.736084,-0.056763,-5.182927,-2.621951,-5.548780
1548439410856,0.812500,-0.732666,-0.065002,-6.158537,-2.012195,-0.243902
1548439410863,0.813110,-0.717712,-0.076172,-3.658537,-1.463415,5.121951
1548439410878,0.809998,-0.711548,-0.084412,0.000000,-1.463415,10.000000
1548439410886,0.807556,-0.738831,-0.073853,4.024390,-1.646341,14.207317
1548439410893,0.809570,-0.768433,-0.076538,7.073171,-1.402439,19.146341
1548439410908,0.807495,-0.771362,-0.086121,6.951220,-1.707317,23.597561
1548439410916,0.803894,-0.751953,-0.088135,2.682927,-2.256098,27.500000
1548439410923,0.800232,-0.728271,-0.082886,-2.134146,-2.621951,31.036587
1548439410938,0.806702,-0.725159,-0.080933,-4.268293,-2.500000,34.512196
1548439410946,0.809631,-0.741394,-0.084900,-3.841464,-2.378049,38.231709
1548439410953,0.814209,-0.746033,-0.085876,-1.951220,-2.621951,42.073174
1548439410968,0.814392,-0.750610,-0.076660,-0.121951,-2.926829,45.670734
1548439410976,0.816284,-0.757324,-0.071960,0.548781,-3.048780,49.451221
1548439410983,0.819336,-0.752625,-0.070312,0.243902,-2.926829,53.536587
1548439410998,0.814514,-0.737305,-0.073669,-0.548781,-3.109756,57.621952
1548439411006,0.812683,-0.734314,-0.077698,-1.768293,-3.231707,61.341465
1548439411013,0.810913,-0.738647,-0.080933,-3.048780,-3.292683,65.182930
1548439411028,0.809570,-0.743225,-0.082764,-3.292683,-3.658537,68.780487
1548439411036,0.807678,-0.745056,-0.078857,-3.658537,-3.902439,71.951218
1548439411043,0.804443,-0.747437,-0.077087,-4.085366,-3.963415,75.182930
1548439411058,0.797913,-0.748718,-0.076660,-3.414634,-4.146341,78.170731
1548439411066,0.787598,-0.755371,-0.068176,-2.317073,-4.146341,81.219513
1548439411073,0.784241,-0.768738,-0.060364,-0.975610,-4.085366,84.085365
1548439411088,0.776123,-0.773315,-0.068787,0.792683,-3.841464,86.890244
1548439411096,0.765808,-0.786194,-0.069702,2.743902,-3.475610,89.695122
1548439411103,0.752502,-0.790100,-0.066528,4.573171,-2.926829,92.439026
1548439411125,0.740417,-0.794189,-0.065186,5.975610,-2.560976,95.121956
1548439411126,0.733398,-0.820251,-0.067627,6.036585,-2.134146,97.378052
1548439411133,0.724854,-0.835754,-0.076477,2.987805,-1.829268,99.573174
1548439411148,0.709961,-0.819641,-0.076782,-2.500000,-2.560976,101.585365
1548439411156,0.692505,-0.809814,-0.067810,-8.292683,-3.353659,102.378052
1548439411163,0.677124,-0.804443,-0.064636,-11.402439,-3.231707,103.475609
1548439411178,0.661011,-0.806824,-0.066406,-10.792684,-3.414634,104.573174
1548439411186,0.640137,-0.817322,-0.063416,-8.292683,-4.146341,105.426834
1548439411193,0.627441,-0.824951,-0.070862,-5.000000,-4.573171,105.731712
1548439411208,0.611511,-0.842285,-0.072021,0.182927,-4.146341,106.280487
1548439411216,0.594971,-0.866394,-0.058472,5.853659,-3.902439,106.768295
1548439411223,0.572021,-0.865845,-0.044250,8.841464,-3.536585,107.134148
1548439411238,0.549561,-0.881775,-0.043945,8.170732,-2.682927,107.439026
1548439411246,0.531494,-0.902100,-0.058472,3.719512,-1.829268,107.500000
1548439411253,0.509033,-0.890930,-0.067200,-2.926829,-1.585366,107.621956
1548439411269,0.490295,-0.868896,-0.069092,-9.634147,-1.524390,106.829269
1548439411275,0.471313,-0.836487,-0.074036,-13.902439,-1.585366,105.609756
1548439411283,0.448425,-0.833679,-0.074158,-14.268293,-1.585366,104.207321
1548439411298,0.436523,-0.847046,-0.068848,-10.365854,-1.097561,103.475609
1548439411306,0.426575,-0.873840,-0.063354,-2.682927,-0.792683,102.865852
1548439411313,0.410217,-0.911011,-0.069458,4.268293,-0.548781,101.768295
1548439411334,0.391968,-0.917786,-0.066833,7.317073,-0.426829,100.609756
1548439411336,0.374207,-0.907410,-0.056641,5.975610,-0.487805,99.512199
1548439411344,0.360596,-0.926147,-0.060059,2.378049,-0.243902,97.987808
1548439411358,0.344116,-0.927490,-0.056091,-1.707317,-0.182927,97.134148
1548439411366,0.324829,-0.909912,-0.056641,-5.182927,-0.060976,96.463417
1548439411373,0.300903,-0.897888,-0.069153,-6.890244,0.060976,95.121956
1548439411389,0.281616,-0.890076,-0.077881,-7.500000,-0.487805,93.841469
1548439411404,0.275452,-0.899048,-0.079285,-7.865854,-0.548781,92.317078
1548439411404,0.270630,-0.898621,-0.067383,-4.573171,-0.121951,91.341469
1548439411419,0.266235,-0.904846,-0.066528,3.963415,-0.060976,90.121956
1548439411426,0.238525,-0.916931,-0.060486,15.609756,0.060976,89.085365
1548439411434,0.213074,-0.963989,-0.042725,25.670732,0.243902,88.109756
1548439411449,0.196533,-0.974548,-0.041016,29.573172,1.036585,87.195122
1548439411456,0.180420,-0.976929,-0.036743,25.975611,1.463415,86.158539
1548439411464,0.170471,-1.003235,-0.042358,15.487805,1.646341,84.756096
1548439411479,0.176575,-0.981750,-0.048889,3.109756,2.256098,84.085365
1548439411486,0.166077,-0.960266,-0.059326,-4.817073,3.231707,83.841469
1548439411494,0.139648,-0.957642,-0.067444,-5.060976,3.780488,83.353661
1548439411509,0.118042,-0.938782,-0.059814,0.731707,3.963415,83.231712
1548439411516,0.107056,-0.965881,-0.054993,8.048780,4.756098,82.682930
1548439411523,0.093872,-1.003357,-0.056030,13.536586,6.097561,82.134148
1548439411539,0.083069,-1.000793,-0.057922,15.609756,6.890244,82.012199
1548439411547,0.064819,-0.995178,-0.053955,13.841464,7.560976,81.341469
1548439411554,0.043091,-1.005798,-0.063354,9.451220,8.475610,80.121956
1548439411569,0.026917,-0.990723,-0.084106,2.682927,8.780488,79.146347
1548439411576,0.014343,-0.965515,-0.096191,-4.878049,8.658537,78.292686
1548439411584,0.006470,-0.948425,-0.093140,-8.963415,8.475610,77.073174
1548439411599,0.004089,-0.962585,-0.091736,-7.439024,8.292683,75.609756
1548439411606,-0.003784,-0.976013,-0.087280,-2.500000,7.621952,74.512199
1548439411614,-0.016296,-0.993469,-0.081360,3.475610,7.378049,74.024391
1548439411636,-0.023254,-1.039307,-0.081299,9.756098,7.987805,73.902443
1548439411637,-0.036865,-1.067139,-0.085083,13.658537,7.987805,74.451218
1548439411644,-0.051331,-1.083435,-0.083679,11.158537,7.743903,75.243904
1548439411659,-0.068787,-1.067688,-0.091919,2.500000,7.682927,75.670731
1548439411666,-0.083862,-1.050232,-0.077087,-8.231708,6.890244,75.914635
1548439411675,-0.082703,-1.016785,-0.074097,-16.951220,6.341464,76.158539
1548439411689,-0.106628,-1.010681,-0.081848,-19.817074,6.341464,76.646347
1548439411696,-0.131348,-0.993164,-0.090271,-16.463415,5.670732,77.500000
1548439411706,-0.164062,-0.922852,-0.105347,-9.451220,5.426829,77.987808
1548439411719,-0.193237,-0.901184,-0.109436,-2.439024,4.878049,77.317078
1548439411726,-0.200378,-0.931152,-0.107544,4.634146,4.451220,75.731712
1548439411734,-0.210266,-0.960571,-0.110901,9.451220,4.878049,74.756096
1548439411749,-0.227234,-0.938293,-0.111267,8.475610,4.939024,73.658539
1548439411756,-0.246216,-0.896118,-0.110229,1.280488,4.329268,71.768295
1548439411764,-0.253723,-0.894714,-0.111023,-7.378049,3.780488,69.512199
1548439411786,-0.262939,-0.869568,-0.115356,-14.329268,3.048780,67.378052
1548439411787,-0.274292,-0.824341,-0.115906,-18.841463,1.951220,64.817078
1548439411794,-0.286865,-0.808044,-0.112427,-19.451220,0.792683,61.524391
1548439411809,-0.297058,-0.804688,-0.105347,-15.792684,0.365854,58.414635
1548439411817,-0.311707,-0.807678,-0.104858,-9.573171,0.182927,55.792683
1548439411824,-0.323242,-0.818726,-0.100220,-3.902439,-0.121951,52.500000
1548439411839,-0.320984,-0.813965,-0.091797,0.000000,0.060976,48.780487
1548439411846,-0.327026,-0.814331,-0.087708,3.292683,0.365854,45.121952
1548439411854,-0.332092,-0.853027,-0.086609,4.573171,0.243902,41.768295
1548439411869,-0.329224,-0.876648,-0.094116,2.378049,0.365854,38.597561
1548439411876,-0.337280,-0.859497,-0.097229,-3.658537,0.121951,35.853661
1548439411885,-0.343933,-0.850830,-0.099609,-11.768293,-0.243902,32.926830
1548439411899,-0.354858,-0.839050,-0.103760,-17.926830,-0.975610,29.878050
1548439411907,-0.366455,-0.814514,-0.101257,-21.463415,-1.890244,27.134148
1548439411914,-0.372192,-0.786133,-0.093811,-20.243902,-1.524390,24.512196
1548439411929,-0.376892,-0.784302,-0.097412,-13.109756,-0.853659,21.524391
1548439411936,-0.386780,-0.803589,-0.101318,-4.085366,-0.548781,18.292683
1548439411944,-0.390137,-0.792419,-0.103699,2.804878,-0.060976,14.939025
1548439411959,-0.393799,-0.787964,-0.103699,7.378049,0.365854,11.341464
1548439411966,-0.392578,-0.805237,-0.099915,9.817074,0.487805,7.743903
1548439411974,-0.395142,-0.803162,-0.109924,7.926829,0.609756,4.146341
1548439411989,-0.398865,-0.786987,-0.119263,1.585366,0.243902,0.365854
1548439411996,-0.395752,-0.765320,-0.116760,-6.341464,-0.426829,-4.024390
1548439412004,-0.393555,-0.744568,-0.120911,-12.195122,-0.487805,-8.353659
1548439412019,-0.391296,-0.726624,-0.127686,-14.634147,-0.853659,-12.987805
1548439412026,-0.382141,-0.728210,-0.123657,-12.682927,-0.792683,-17.804878
1548439412034,-0.367310,-0.769226,-0.116333,-6.890244,-0.853659,-22.743902
1548439412049,-0.348145,-0.803162,-0.108948,1.219512,-0.853659,-27.256098
1548439412056,-0.336121,-0.853333,-0.107666,10.304878,-0.731707,-30.975611
1548439412065,-0.327637,-0.922607,-0.104980,18.109756,-0.792683,-33.536587
1548439412079,-0.322510,-0.969482,-0.094788,20.060976,-1.097561,-34.817074
1548439412087,-0.318481,-0.996155,-0.092285,13.353659,-1.402439,-35.426830
1548439412094,-0.317566,-0.975464,-0.106201,1.097561,-1.829268,-35.731709
1548439412110,-0.317444,-0.929565,-0.110168,-10.000000,-2.500000,-35.975609
1548439412116,-0.316467,-0.908569,-0.106567,-15.609756,-2.439024,-36.280487
1548439412124,-0.319641,-0.896301,-0.108337,-15.121951,-1.768293,-36.890244
1548439412139,-0.315979,-0.886902,-0.110596,-10.975610,-1.463415,-38.109756
1548439412146,-0.305298,-0.882935,-0.108276,-5.670732,-1.097561,-40.060978
1548439412154,-0.299072,-0.885376,-0.113342,-0.304878,-0.792683,-42.256100
1548439412169,-0.291565,-0.892395,-0.110291,3.963415,-0.853659,-44.329269
1548439412176,-0.277832,-0.922607,-0.106201,5.060976,-0.487805,-46.158539
1548439412184,-0.263916,-0.937378,-0.117798,2.012195,-0.121951,-47.743904
1548439412199,-0.250671,-0.933411,-0.132874,-4.329268,0.121951,-49.085365
1548439412206,-0.237732,-0.931274,-0.145447,-11.585366,0.182927,-50.487804
1548439412214,-0.224670,-0.931335,-0.145813,-17.378050,-0.121951,-52.134148
1548439412229,-0.210693,-0.928101,-0.135864,-21.219513,-0.243902,-53.780491
1548439412236,-0.197876,-0.911926,-0.135315,-21.585367,-0.243902,-55.609756
1548439412244,-0.192444,-0.887512,-0.135315,-16.951220,-0.365854,-57.621952
1548439412259,-0.181458,-0.896057,-0.133179,-6.707317,-0.487805,-59.512196
1548439412267,-0.170959,-0.915955,-0.119629,7.560976,0.000000,-60.792683
1548439412274,-0.160583,-0.936035,-0.107239,21.890244,0.670732,-61.158539
1548439412289,-0.147095,-0.993835,-0.111450,30.487806,0.853659,-61.097561
1548439412296,-0.135193,-1.017578,-0.119324,29.634148,0.121951,-61.158539
1548439412304,-0.126404,-1.003296,-0.127380,20.365854,-0.487805,-61.585369
1548439412319,-0.120728,-0.995056,-0.119202,7.560976,-1.280488,-62.682930
1548439412326,-0.106262,-0.970337,-0.118286,-5.182927,-2.378049,-64.146339
1548439412334,-0.095032,-0.942932,-0.120972,-15.182927,-2.865854,-65.731712
1548439412349,-0.072693,-0.937744,-0.124817,-18.658537,-3.231707,-67.439026
1548439412356,-0.057617,-0.894775,-0.124023,-12.743903,-3.292683,-69.268295
1548439412364,-0.046021,-0.891541,-0.108276,2.804878,-3.353659,-71.158539
1548439412379,-0.017639,-0.979309,-0.076050,23.170732,-3.414634,-72.500000
1548439412386,0.011475,-1.079773,-0.064636,39.085365,-2.439024,-71.646339
1548439412394,0.016174,-1.130615,-0.075684,42.195122,-2.073171,-69.573174
1548439412409,0.018188,-1.162903,-0.081726,30.426830,-2.682927,-68.048782
1548439412417,0.026917,-1.141357,-0.096008,6.402439,-2.743902,-66.829269
1548439412425,0.022034,-1.097961,-0.099609,-20.426830,-2.865854,-65.853661
1548439412439,0.027222,-1.042419,-0.102783,-43.353661,-3.109756,-64.878052
1548439412446,0.039246,-0.979187,-0.107544,-55.487804,-2.073171,-64.268295
1548439412455,0.048401,-0.912354,-0.121155,-51.463417,-0.487805,-64.207321
1548439412469,0.054993,-0.907288,-0.131409,-32.073170,0.914634,-64.939026
1548439412476,0.066162,-0.964966,-0.117371,-5.304878,1.707317,-65.853661
1548439412485,0.080811,-1.005127,-0.091431,15.975610,2.378049,-66.463417
1548439412499,0.112366,-1.077515,-0.092651,23.536587,3.292683,-66.402443
1548439412507,0.121033,-1.105042,-0.116821,15.914635,3.658537,-65.365852
1548439412514,0.113525,-1.052368,-0.144348,-1.646341,3.353659,-63.475613
1548439412529,0.110474,-0.991211,-0.150391,-20.000000,2.926829,-62.804878
1548439412537,0.117676,-0.964661,-0.152405,-33.902439,2.256098,-63.109756
1548439412544,0.138123,-0.931213,-0.156189,-41.524391,1.768293,-64.085365
1548439412559,0.155640,-0.883179,-0.158813,-39.390244,1.768293,-65.182930
1548439412567,0.173157,-0.877075,-0.149658,-24.329269,2.012195,-66.341461
1548439412574,0.191162,-0.913818,-0.124512,1.036585,2.317073,-67.134148
1548439412589,0.204041,-0.953857,-0.107849,26.890245,2.621951,-66.951218
1548439412596,0.220581,-1.026062,-0.094666,43.536587,2.926829,-66.158539
1548439412604,0.234253,-1.083313,-0.104553,46.646343,2.378049,-65.060974
1548439412619,0.237305,-1.068726,-0.129761,36.341465,1.341463,-63.597561
1548439412626,0.239685,-1.023560,-0.132507,18.170732,-0.182927,-62.926830
1548439412634,0.244812,-0.978455,-0.123352,1.524390,-0.975610,-62.804878
1548439412649,0.247070,-0.928772,-0.129395,-8.841464,-1.341463,-62.865856
1548439412656,0.257141,-0.914001,-0.128174,-12.500000,-2.317073,-63.414635
1548439412664,0.284790,-0.920898,-0.121155,-8.841464,-2.682927,-64.451218
1548439412679,0.301147,-0.905701,-0.119202,1.829268,-2.378049,-64.695122
1548439412686,0.306213,-0.927246,-0.114441,15.609756,-2.195122,-65.121956
1548439412694,0.321167,-0.975464,-0.099243,25.548780,-2.378049,-65.731712
1548439412709,0.330933,-0.987366,-0.095581,25.853659,-1.829268,-65.914635
1548439412717,0.339050,-0.990906,-0.100403,16.158537,-1.524390,-65.548782
1548439412724,0.340149,-0.969849,-0.111572,0.121951,-1.341463,-65.304878
1548439412739,0.349731,-0.927307,-0.122559,-16.036585,-1.341463,-65.182930
1548439412746,0.360718,-0.885864,-0.118103,-26.463415,-0.975610,-65.548782
1548439412754,0.379761,-0.866150,-0.114258,-28.597561,-0.060976,-66.402443
1548439412769,0.401001,-0.840210,-0.121765,-21.524391,0.609756,-67.439026
1548439412776,0.422729,-0.854553,-0.119202,-7.682927,0.609756,-68.719513
1548439412784,0.442444,-0.907410,-0.101562,8.231708,0.731707,-69.939026
1548439412800,0.467285,-0.967224,-0.097839,19.695122,0.853659,-69.878052
1548439412806,0.486877,-1.002380,-0.109985,20.365854,0.731707,-68.963417
1548439412814,0.495361,-0.992676,-0.121643,11.646341,0.182927,-67.012199
1548439412829,0.503540,-0.968201,-0.123779,0.060976,-0.304878,-64.573174
1548439412836,0.506165,-0.935303,-0.117859,-8.780488,-0.365854,-62.621952
1548439412844,0.498901,-0.895142,-0.110840,-13.719513,-0.731707,-60.914635
1548439412859,0.491943,-0.867615,-0.112488,-15.914635,-1.219512,-59.939026
1548439412867,0.490295,-0.845581,-0.112488,-16.463415,-1.280488,-60.060978
1548439412874,0.498657,-0.835632,-0.106689,-15.731708,-1.219512,-60.792683
1548439412889,0.509766,-0.826294,-0.109680,-13.292684,-1.036585,-62.073174
1548439412896,0.522095,-0.813660,-0.110657,-9.329268,-0.731707,-63.292683
1548439412904,0.535278,-0.843689,-0.111633,-2.865854,0.243902,-63.597561
1548439412919,0.552979,-0.885254,-0.124634,3.597561,1.280488,-62.804878
1548439412926,0.558228,-0.898499,-0.136108,4.878049,1.463415,-61.219513
1548439412934,0.565369,-0.891479,-0.137573,-0.853659,1.524390,-59.878052
1548439412949,0.571655,-0.869568,-0.139160,-9.512196,2.500000,-58.292683
1548439412957,0.569458,-0.840454,-0.139587,-17.378050,2.743902,-56.951221
1548439412964,0.568909,-0.812622,-0.133179,-22.743902,2.804878,-56.463417
1548439412979,0.581238,-0.786560,-0.122986,-23.780489,3.353659,-56.280491
1548439412986,0.588745,-0.760193,-0.130432,-19.390244,3.963415,-56.646343
1548439412994,0.597290,-0.749390,-0.132874,-11.219512,4.085366,-57.317074
1548439413016,0.615906,-0.781128,-0.124023,0.121951,3.719512,-57.865856
1548439413017,0.636963,-0.822815,-0.116638,10.487805,3.109756,-57.743904
1548439413024,0.650513,-0.846313,-0.128906,15.000000,2.378049,-56.646343
1548439413039,0.660095,-0.849670,-0.141296,12.926829,1.463415,-54.817074
1548439413048,0.664307,-0.833862,-0.135864,7.500000,0.548781,-52.682926
1548439413054,0.667664,-0.814758,-0.128479,2.987805,0.365854,-50.548782
1548439413069,0.666382,-0.799438,-0.130920,1.524390,0.365854,-48.536587
1548439413076,0.660278,-0.774231,-0.135437,1.280488,0.121951,-46.585365
1548439413084,0.658813,-0.761536,-0.128296,1.402439,-0.365854,-45.243904
1548439413099,0.658447,-0.753662,-0.115845,3.170732,-0.060976,-44.512196
1548439413107,0.661926,-0.742065,-0.111511,6.158537,0.304878,-43.902439
1548439413114,0.665039,-0.746460,-0.111145,8.719512,0.243902,-43.719513
1548439413129,0.672546,-0.752747,-0.112427,9.756098,0.121951,-43.536587
1548439413136,0.680298,-0.748596,-0.113953,9.451220,0.243902,-43.353661
1548439413144,0.685120,-0.745422,-0.115845,7.865854,0.365854,-43.170734
1548439413159,0.687927,-0.733582,-0.117920,5.731708,0.365854,-42.560978
1548439413166,0.687866,-0.716492,-0.120483,3.719512,0.365854,-41.890244
1548439413174,0.694519,-0.709106,-0.117188,1.951220,0.243902,-41.341465
1548439413189,0.697632,-0.682495,-0.121826,0.853659,0.243902,-41.097561
1548439413196,0.691345,-0.663574,-0.119080,-0.243902,-0.487805,-41.219513
1548439413204,0.699768,-0.663635,-0.112427,0.487805,-0.487805,-41.768295
1548439413219,0.709839,-0.653015,-0.108093,3.475610,-0.060976,-41.829269
1548439413227,0.716064,-0.646118,-0.105103,7.926829,0.182927,-42.682926
1548439413234,0.723938,-0.658081,-0.104492,12.134147,0.426829,-43.597561
1548439413249,0.731262,-0.660950,-0.103699,14.512196,0.731707,-44.146343
1548439413256,0.734009,-0.649475,-0.095703,15.000000,0.731707,-44.451221
1548439413264,0.742554,-0.650146,-0.100037,13.658537,1.158537,-45.121952
1548439413279,0.747253,-0.646851,-0.107910,10.731708,1.158537,-45.487804
1548439413286,0.754272,-0.640808,-0.102905,7.317073,0.792683,-45.548782
1548439413294,0.764221,-0.631348,-0.098450,5.182927,0.853659,-45.853661
1548439413309,0.772217,-0.620605,-0.095703,4.573171,0.975610,-45.914635
1548439413316,0.774414,-0.607239,-0.094971,4.939024,0.609756,-45.853661
1548439413324,0.778625,-0.594360,-0.092529,5.548780,0.121951,-45.975613
1548439413339,0.785339,-0.596313,-0.091125,6.280488,0.060976,-46.158539
1548439413346,0.791382,-0.590820,-0.091980,6.585366,-0.182927,-46.036587
1548439413354,0.792908,-0.584290,-0.090149,6.036585,-0.426829,-46.158539
1548439413369,0.797302,-0.587769,-0.083130,4.939024,-0.426829,-46.829269
1548439413376,0.796814,-0.577881,-0.083130,2.926829,-0.304878,-47.439026
1548439413384,0.803833,-0.570374,-0.082642,-0.060976,-0.121951,-48.109756
1548439413399,0.813538,-0.570557,-0.081726,-2.804878,0.304878,-48.719513
1548439413406,0.818909,-0.571472,-0.081543,-4.695122,0.792683,-49.268295
1548439413414,0.828064,-0.570312,-0.082092,-6.097561,1.219512,-49.390244
1548439413429,0.843750,-0.578491,-0.079346,-6.646342,1.829268,-49.085365
1548439413437,0.854736,-0.577698,-0.084412,-5.426829,2.743902,-47.926830
1548439413444,0.854858,-0.568726,-0.093933,-3.292683,3.353659,-45.975613
1548439413459,0.853516,-0.577454,-0.094971,-0.853659,3.170732,-43.292683
1548439413466,0.861450,-0.590454,-0.089172,1.219512,3.536585,-39.939026
1548439413474,0.867004,-0.592163,-0.092834,3.353659,4.207317,-36.097561
1548439413489,0.865112,-0.588623,-0.092896,4.878049,4.085366,-32.500000
1548439413496,0.861816,-0.583435,-0.088745,5.914634,3.841464,-28.902439
1548439413504,0.863892,-0.593445,-0.086731,6.341464,3.719512,-25.731709
1548439413519,0.863098,-0.598694,-0.095398,6.219512,3.292683,-22.560976
1548439413526,0.860107,-0.605408,-0.102356,6.341464,2.743902,-19.390244
1548439413534,0.860779,-0.607422,-0.110657,5.975610,2.256098,-16.585365
1548439413549,0.855469,-0.603882,-0.115540,5.182927,1.951220,-13.414635
1548439413557,0.850708,-0.608826,-0.115356,4.451220,1.646341,-9.939025
1548439413572,0.849121,-0.613342,-0.120789,4.329268,1.402439,-6.341464
1548439413579,0.840271,-0.615662,-0.122742,4.451220,1.097561,-2.804878
1548439413586,0.834167,-0.609131,-0.125183,4.085366,0.426829,0.548781
1548439413594,0.833252,-0.611145,-0.122009,2.682927,-0.243902,3.780488
1548439413609,0.836182,-0.619446,-0.123291,1.463415,-0.243902,7.073171
1548439413616,0.838989,-0.619690,-0.123718,0.975610,-0.182927,10.182927
1548439413624,0.834778,-0.616760,-0.125549,0.000000,-0.792683,12.865854
1548439413640,0.834839,-0.609253,-0.125122,-1.158537,-1.341463,15.365854
1548439413646,0.835693,-0.610229,-0.120361,-1.219512,-1.829268,17.560976
1548439413654,0.839050,-0.619629,-0.115967,-0.243902,-2.256098,19.634148
1548439413669,0.837769,-0.623230,-0.114563,0.548781,-2.743902,21.768293
1548439413676,0.835571,-0.627319,-0.110291,0.853659,-3.231707,24.024391
1548439413691,0.835144,-0.632751,-0.109558,0.365854,-3.353659,26.646341
1548439413698,0.833191,-0.630188,-0.111328,-0.792683,-3.536585,29.390245
1548439413706,0.827942,-0.625122,-0.108887,-2.500000,-3.902439,32.134148
1548439413713,0.827698,-0.624817,-0.106750,-4.512195,-4.207317,34.695122
1548439413728,0.829895,-0.625427,-0.101318,-5.304878,-4.268293,37.073170
1548439413736,0.825806,-0.623657,-0.100891,-4.329268,-4.268293,39.146343
1548439413743,0.820801,-0.627502,-0.103577,-2.743902,-4.390244,41.402439
1548439413758,0.821045,-0.630554,-0.100220,-0.914634,-4.634146,43.536587
1548439413766,0.815979,-0.634827,-0.093201,0.975610,-4.939024,45.487804
1548439413774,0.810791,-0.640503,-0.089294,1.951220,-5.426829,47.195122
1548439413788,0.809448,-0.644409,-0.088074,1.951220,-5.853659,48.780487
1548439413796,0.808350,-0.651001,-0.093872,1.097561,-6.036585,50.487804
1548439413803,0.805847,-0.644653,-0.103577,0.060976,-6.036585,52.012196
1548439413818,0.803162,-0.638245,-0.102600,-1.341463,-6.158537,53.719513
1548439413826,0.796814,-0.643127,-0.100281,-2.926829,-5.792683,55.365856
1548439413833,0.795471,-0.653320,-0.096619,-3.780488,-5.304878,57.317074
1548439413849,0.789307,-0.662842,-0.098267,-4.085366,-4.878049,59.207317
1548439413856,0.782288,-0.659851,-0.099182,-4.085366,-4.512195,60.914635
1548439413863,0.777161,-0.663208,-0.103027,-3.902439,-4.207317,62.012196
1548439413878,0.767151,-0.671509,-0.109070,-4.451220,-3.902439,62.865856
1548439413886,0.760315,-0.670715,-0.109497,-5.548780,-3.902439,63.658539
1548439413893,0.756226,-0.676392,-0.109741,-6.646342,-3.902439,64.024391
1548439413908,0.750061,-0.691345,-0.110901,-7.073171,-3.719512,64.268295
1548439413916,0.746399,-0.701721,-0.112549,-7.621952,-3.658537,64.573174
1548439413923,0.742310,-0.704346,-0.111145,-8.658537,-3.658537,65.060974
1548439413938,0.738770,-0.705017,-0.113281,-9.634147,-3.414634,65.914635
1548439413946,0.729736,-0.703552,-0.119751,-10.426829,-3.353659,66.890244
1548439413954,0.723755,-0.713684,-0.122742,-10.670732,-3.597561,67.804878
1548439413968,0.720947,-0.720276,-0.119019,-9.146341,-3.597561,68.658539
1548439413976,0.714722,-0.735962,-0.120728,-5.365854,-3.353659,69.756096
1548439413983,0.703674,-0.753052,-0.119995,-1.402439,-3.658537,70.670731
1548439413998,0.689941,-0.770203,-0.127930,0.731707,-4.146341,71.524391
1548439414006,0.681030,-0.785034,-0.132751,0.426829,-4.207317,72.317078
1548439414013,0.668518,-0.783997,-0.131531,-1.585366,-4.695122,72.987808
1548439414028,0.652832,-0.774475,-0.124695,-4.024390,-5.060976,73.414635
1548439414036,0.645020,-0.778320,-0.116821,-5.731708,-5.121951,73.536591
1548439414043,0.635559,-0.793396,-0.115540,-6.219512,-5.060976,73.719513
1548439414058,0.626160,-0.809326,-0.120605,-7.134147,-5.487805,74.207321
1548439414066,0.612854,-0.807251,-0.115906,-8.841464,-5.548780,74.695122
1548439414073,0.614502,-0.801636,-0.119690,-10.365854,-5.365854,74.939026
1548439414088,0.603149,-0.810059,-0.135986,-10.243902,-5.000000,75.304878
1548439414096,0.580994,-0.819946,-0.136719,-7.560976,-5.853659,76.402443
1548439414103,0.576538,-0.843079,-0.125488,-1.707317,-5.914634,77.012199
1548439414118,0.569885,-0.868408,-0.117615,6.402439,-5.243903,77.317078
1548439414126,0.553528,-0.891174,-0.116516,12.743903,-5.060976,77.621956
1548439414133,0.541077,-0.905701,-0.119690,14.024390,-4.756098,78.231712
1548439414156,0.531311,-0.910522,-0.122070,10.975610,-4.390244,78.780487
1548439414156,0.521667,-0.911072,-0.119629,6.280488,-4.207317,79.451218
1548439414163,0.509949,-0.918274,-0.117065,1.524390,-3.902439,80.304878
1548439414178,0.499817,-0.919861,-0.126099,-2.743902,-3.719512,81.463417
1548439414186,0.479248,-0.889587,-0.134705,-5.853659,-4.573171,82.500000
1548439414193,0.459656,-0.876038,-0.137085,-5.548780,-5.426829,82.804878
1548439414208,0.443787,-0.897278,-0.136047,0.426829,-5.243903,83.109756
1548439414216,0.417419,-0.920959,-0.136597,9.695122,-4.878049,83.841469
1548439414223,0.388733,-0.938904,-0.145203,16.463415,-4.634146,84.207321
1548439414238,0.370117,-0.934204,-0.144348,16.951220,-4.207317,83.902443
1548439414246,0.355591,-0.923157,-0.141602,11.707317,-3.841464,82.804878
1548439414253,0.337463,-0.914551,-0.136902,3.902439,-3.658537,81.585365
1548439414268,0.316406,-0.889099,-0.134094,-3.719512,-3.902439,80.548782
1548439414276,0.300903,-0.870850,-0.132324,-9.146341,-4.146341,78.780487
1548439414283,0.291931,-0.866394,-0.137634,-11.219512,-4.207317,76.829269
1548439414298,0.287537,-0.843811,-0.138733,-9.634147,-4.207317,75.121956
1548439414306,0.280762,-0.857483,-0.146423,-5.182927,-4.146341,73.414635
1548439414313,0.273193,-0.911499,-0.149048,0.243902,-4.634146,71.951218
1548439414328,0.272217,-0.932678,-0.144897,5.121951,-4.634146,71.219513
1548439414336,0.256897,-0.931946,-0.141663,7.987805,-4.268293,70.060974
1548439414343,0.242065,-0.935486,-0.140564,7.317073,-4.268293,68.536591
1548439414359,0.230835,-0.931396,-0.134216,3.475610,-4.146341,67.317078
1548439414366,0.224915,-0.914001,-0.122253,-0.365854,-3.780488,66.219513
1548439414373,0.216248,-0.920837,-0.114380,-2.500000,-3.109756,64.878052
1548439414388,0.203430,-0.930237,-0.117065,-2.743902,-2.500000,63.780491
1548439414396,0.192932,-0.918945,-0.126099,-2.621951,-2.073171,62.682930
1548439414403,0.178833,-0.904419,-0.133972,-2.621951,-1.463415,61.036587
1548439414454,0.168030,-0.904724,-0.130432,-1.951220,-0.792683,59.146343
1548439414455,0.168945,-0.926392,-0.123474,-0.548781,-0.365854,57.743904
1548439414455,0.168945,-0.959412,-0.129333,1.036585,-0.182927,56.402439
1548439414455,0.163818,-0.965637,-0.133789,2.012195,-0.060976,55.487804
1548439414475,0.148560,-0.966919,-0.128357,2.621951,0.182927,54.695122
1548439414475,0.138123,-0.968933,-0.125854,2.500000,0.548781,53.963417
1548439414487,0.128723,-0.979187,-0.127808,1.158537,0.914634,53.597561
1548439414487,0.120544,-0.990967,-0.131836,-1.707317,1.219512,53.292683
1548439414498,0.109985,-0.976746,-0.135498,-4.329268,1.341463,52.865856
1548439414508,0.095215,-0.961792,-0.137756,-5.365854,1.402439,52.073174
1548439414516,0.080627,-0.959656,-0.139221,-3.719512,1.707317,51.280491
1548439414524,0.067322,-0.958313,-0.136108,-1.036585,1.768293,50.975613
1548439414539,0.063965,-0.979980,-0.132263,1.219512,1.829268,50.365856
1548439414546,0.071289,-1.031677,-0.135864,2.621951,2.256098,49.939026
1548439414553,0.065369,-1.055542,-0.147278,2.439024,2.317073,50.365856
1548439414588,0.055725,-1.057068,-0.147522,0.609756,2.073171,51.463417
1548439414588,0.045593,-1.038452,-0.142334,-1.036585,1.951220,52.439026
1548439414588,0.029968,-1.030151,-0.142517,-1.707317,1.951220,53.475613
1548439414598,0.013550,-1.049500,-0.153381,-2.378049,1.768293,54.634148
1548439414606,0.001282,-1.035339,-0.158203,-3.414634,1.646341,55.792683
1548439414616,-0.021729,-0.988525,-0.157593,-4.756098,1.524390,55.975613
1548439414629,-0.036682,-0.973633,-0.155273,-4.695122,1.280488,55.426830
1548439414636,-0.048889,-0.956543,-0.151123,-3.231707,0.975610,54.878052
1548439414643,-0.051941,-0.961731,-0.145874,-1.707317,0.487805,54.207317
1548439414658,-0.055908,-0.973267,-0.141174,0.914634,0.548781,53.719513
1548439414666,-0.067810,-0.984070,-0.141602,4.207317,0.731707,53.597561
1548439414673,-0.078125,-1.001953,-0.141479,5.853659,0.792683,53.414635
1548439414688,-0.078674,-1.005615,-0.152832,4.207317,0.914634,53.353661
1548439414704,-0.091248,-0.996338,-0.163147,0.121951,0.975610,53.109756
1548439414704,-0.101685,-0.974915,-0.159790,-2.804878,0.731707,52.743904
1548439414731,-0.114502,-0.961731,-0.156494,-3.597561,0.365854,52.256100
1548439414731,-0.125305,-0.972473,-0.145447,-3.231707,0.060976,51.585365
1548439414734,-0.128723,-0.978333,-0.147217,-4.268293,-0.243902,50.914635
1548439414748,-0.132996,-0.967285,-0.152039,-6.768293,-0.365854,50.243904
1548439414756,-0.136963,-0.940308,-0.146545,-7.073171,-0.365854,49.512196
1548439414763,-0.149780,-0.940552,-0.141052,-3.719512,-0.487805,48.841465
1548439414778,-0.158386,-0.984253,-0.141968,1.402439,-0.487805,48.231709
1548439414786,-0.167664,-0.994629,-0.141907,4.085366,-0.365854,48.170734
1548439414793,-0.176208,-0.976990,-0.151672,3.048780,0.182927,48.048782
1548439414801,-0.187927,-0.970886,-0.160339,-0.304878,0.853659,47.743904
1548439414816,-0.190796,-0.990540,-0.161804,-3.536585,0.731707,47.500000
1548439414824,-0.191956,-0.985535,-0.156433,-6.463415,0.548781,47.256100
1548439414831,-0.201843,-0.968445,-0.153198,-8.719512,0.731707,46.707317
1548439414846,-0.211914,-0.957947,-0.156006,-9.329268,0.670732,46.219513
1548439414853,-0.221558,-0.946960,-0.157043,-8.414635,0.487805,46.036587
1548439414861,-0.226196,-0.946777,-0.159485,-6.768293,0.548781,45.609756
1548439414876,-0.229126,-0.959717,-0.162048,-3.963415,0.731707,44.939026
1548439414883,-0.229675,-0.974060,-0.160706,-0.609756,0.426829,44.695122
1548439414891,-0.241760,-0.975037,-0.158691,1.768293,0.243902,44.573174
1548439414906,-0.256165,-0.967163,-0.159851,2.439024,0.182927,44.634148
1548439414913,-0.269714,-0.956543,-0.161926,2.012195,0.121951,44.634148
1548439414921,-0.279480,-0.949951,-0.164795,0.975610,0.121951,44.451221
1548439414936,-0.285095,-0.939941,-0.168579,-0.548781,-0.060976,44.146343
1548439414943,-0.296326,-0.923035,-0.172607,-1.585366,-0.060976,43.597561
1548439414951,-0.305359,-0.916992,-0.174316,-2.682927,-0.121951,42.987804
1548439414966,-0.309692,-0.904602,-0.174011,-3.536585,-0.365854,42.073174
1548439414973,-0.319336,-0.884827,-0.175293,-3.902439,-0.426829,40.670734
1548439414981,-0.329834,-0.872986,-0.174622,-1.951220,-0.670732,39.512196
1548439414996,-0.330933,-0.897034,-0.168945,2.134146,-0.853659,38.597561
1548439415003,-0.332397,-0.922302,-0.169800,5.914634,-0.792683,37.378048
1548439415011,-0.339966,-0.908264,-0.168518,7.134147,-1.097561,36.036587
1548439415026,-0.344055,-0.920959,-0.160400,6.097561,-1.707317,34.512196
1548439415033,-0.345642,-0.924072,-0.157471,3.597561,-2.012195,33.353661
1548439415041,-0.355530,-0.905212,-0.157654,-0.121951,-2.317073,32.560978
1548439415056,-0.367615,-0.900269,-0.164856,-3.719512,-2.500000,31.829269
1548439415071,-0.372314,-0.890198,-0.169861,-5.731708,-2.621951,31.219513
1548439415071,-0.382629,-0.853577,-0.172119,-5.914634,-2.500000,30.365854
1548439415086,-0.389099,-0.845093,-0.167786,-4.512195,-2.317073,28.658537
1548439415093,-0.388794,-0.847900,-0.163757,-0.975610,-2.012195,26.829269
1548439415101,-0.397156,-0.836975,-0.164001,2.682927,-1.646341,24.939026
1548439415116,-0.399109,-0.830200,-0.164001,5.304878,-1.463415,22.682928
1548439415123,-0.398254,-0.826904,-0.160889,6.768293,-1.402439,20.243902
1548439415131,-0.403809,-0.815857,-0.160156,6.158537,-1.402439,17.682928
1548439415146,-0.408081,-0.806030,-0.158142,3.414634,-1.524390,14.817074
1548439415153,-0.409607,-0.783813,-0.156128,-1.097561,-1.646341,11.768293
1548439415161,-0.413391,-0.764282,-0.165161,-6.341464,-1.646341,8.414635
1548439415176,-0.415771,-0.748291,-0.168152,-10.670732,-1.707317,4.695122
1548439415183,-0.413025,-0.722107,-0.171509,-12.743903,-1.646341,0.731707
1548439415191,-0.411987,-0.710205,-0.177246,-10.975610,-1.219512,-3.963415
1548439415206,-0.404541,-0.716187,-0.173584,-5.243903,-0.792683,-8.780488
1548439415213,-0.391052,-0.758850,-0.167297,0.914634,-0.365854,-13.292684
1548439415221,-0.378662,-0.809692,-0.168091,4.146341,0.060976,-17.743902
1548439415236,-0.363159,-0.828491,-0.170715,3.231707,0.182927,-21.707317
1548439415243,-0.354553,-0.837341,-0.168945,-0.365854,0.121951,-25.426830
1548439415251,-0.343567,-0.859192,-0.158142,-3.414634,-0.243902,-28.292683
1548439415266,-0.334595,-0.884521,-0.154663,-5.487805,-0.304878,-30.182928
1548439415273,-0.332947,-0.892273,-0.161072,-6.951220,-0.365854,-31.463415
1548439415288,-0.327576,-0.907349,-0.164917,-6.768293,-0.426829,-32.500000
1548439415296,-0.325745,-0.916138,-0.170410,-5.426829,-0.609756,-33.414635
1548439415303,-0.329041,-0.911865,-0.176025,-3.414634,-0.243902,-34.146343
1548439415311,-0.326843,-0.921204,-0.165100,-0.426829,-0.426829,-35.000000
1548439415326,-0.322205,-0.938721,-0.153992,2.378049,-0.365854,-36.036587
1548439415333,-0.327087,-0.934631,-0.153931,3.475610,-0.304878,-36.890244
1548439415341,-0.327637,-0.932373,-0.155334,3.170732,-0.426829,-37.865856
1548439415356,-0.323608,-0.923828,-0.150940,1.890244,-0.609756,-38.841465
1548439415363,-0.317566,-0.909058,-0.157166,-0.426829,-0.365854,-40.000000
1548439415371,-0.315063,-0.908875,-0.161499,-3.170732,-0.060976,-40.914635
1548439415386,-0.301636,-0.918335,-0.171448,-5.426829,0.000000,-42.256100
1548439415393,-0.287231,-0.893433,-0.175354,-6.585366,0.426829,-43.902439
1548439415401,-0.280090,-0.890198,-0.178040,-6.158537,0.731707,-45.548782
1548439415416,-0.265137,-0.914612,-0.178528,-3.231707,0.792683,-46.829269
1548439415423,-0.250488,-0.928406,-0.176941,0.304878,0.853659,-47.804878
1548439415431,-0.244629,-0.924683,-0.179321,2.073171,1.097561,-48.719513
1548439415446,-0.231995,-0.946045,-0.180054,3.414634,1.036585,-49.695122
1548439415453,-0.211975,-0.967102,-0.179932,4.512195,0.975610,-50.182926
1548439415461,-0.198425,-0.973267,-0.177002,4.695122,1.097561,-50.304878
1548439415476,-0.194763,-0.971130,-0.178040,4.268293,0.975610,-50.243904
1548439415483,-0.188904,-0.975708,-0.171387,4.329268,0.670732,-50.060978
1548439415491,-0.176392,-0.997559,-0.168152,5.487805,0.487805,-50.000000
1548439415506,-0.165588,-1.007751,-0.170105,6.829268,0.182927,-49.573174
1548439415513,-0.164062,-1.001953,-0.174316,6.524390,-0.121951,-48.780487
1548439415521,-0.167847,-0.986694,-0.181091,4.634146,-0.365854,-48.109756
1548439415538,-0.166565,-0.964294,-0.187927,2.439024,-0.975610,-48.109756
1548439415543,-0.154724,-0.972778,-0.182861,0.365854,-1.402439,-48.658539
1548439415551,-0.137390,-0.989746,-0.178040,-1.097561,-1.646341,-49.695122
1548439415566,-0.125183,-0.976929,-0.185547,-2.987805,-1.890244,-50.487804
1548439415573,-0.115662,-0.995605,-0.186890,-6.890244,-2.378049,-51.524391
1548439415581,-0.099854,-0.999146,-0.178955,-11.951220,-2.804878,-52.378052
1548439415596,-0.087524,-0.967834,-0.175110,-16.768293,-2.439024,-52.804878
1548439415603,-0.080688,-0.971619,-0.175720,-19.756098,-1.768293,-53.109756
1548439415611,-0.076721,-0.965271,-0.172791,-20.121952,-1.402439,-53.109756
1548439415633,-0.074951,-0.932251,-0.177124,-18.414635,-0.975610,-53.475613
1548439415634,-0.068054,-0.913269,-0.184509,-13.658537,0.060976,-54.817074
1548439415641,-0.062622,-0.909851,-0.185547,-4.939024,1.036585,-56.341465
1548439415656,-0.059143,-0.910889,-0.187500,5.609756,1.890244,-57.621952
1548439415663,-0.052673,-0.926819,-0.190308,14.390244,2.560976,-59.329269
1548439415671,-0.036621,-0.932739,-0.184082,19.329269,2.987805,-61.341465
1548439415686,-0.025574,-0.936707,-0.177063,19.756098,3.109756,-62.987808
1548439415693,-0.007874,-0.978333,-0.173523,17.073172,2.865854,-64.573174
1548439415701,0.013855,-0.983398,-0.174683,10.792684,2.439024,-65.548782
1548439415716,0.026062,-0.956726,-0.169800,1.219512,1.951220,-66.280487
1548439415723,0.043579,-0.962646,-0.168213,-7.012195,1.890244,-67.134148
1548439415731,0.061523,-0.970337,-0.168701,-11.097561,1.707317,-67.439026
1548439415746,0.071899,-0.964600,-0.174377,-11.280488,1.463415,-67.256096
1548439415753,0.079102,-0.963562,-0.177795,-9.512196,1.524390,-67.317078
1548439415761,0.092651,-0.956299,-0.177856,-6.158537,1.646341,-67.743904
1548439415776,0.100952,-0.938843,-0.176697,-0.121951,1.646341,-68.109756
1548439415783,0.102783,-0.949646,-0.177124,6.951220,1.707317,-68.902443
1548439415791,0.111816,-0.981079,-0.168884,12.804878,1.646341,-70.060974
1548439415806,0.134521,-0.988403,-0.163574,14.512196,1.402439,-71.036591
1548439415813,0.157349,-1.022156,-0.163025,11.585366,1.280488,-72.195122
1548439415821,0.182617,-1.025696,-0.154968,5.609756,0.914634,-72.621956
1548439415836,0.200439,-1.001831,-0.147583,-1.768293,0.792683,-72.134148
1548439415845,0.208740,-1.004150,-0.147522,-8.536586,1.219512,-71.341469
1548439415851,0.215881,-0.997803,-0.154175,-13.902439,1.463415,-69.878052
1548439415866,0.226624,-0.975586,-0.166687,-16.890244,1.829268,-68.109756
1548439415873,0.241394,-0.964417,-0.178345,-14.817074,2.560976,-67.134148
1548439415881,0.251526,-0.949951,-0.183105,-7.195122,2.804878,-67.012199
1548439415896,0.256653,-0.949036,-0.188171,2.926829,2.804878,-67.012199
1548439415903,0.271118,-1.008545,-0.187195,11.951220,2.926829,-67.073174
1548439415918,0.287048,-1.041016,-0.182922,15.975610,2.743902,-66.707321
1548439415926,0.306946,-1.044006,-0.178772,13.231708,2.195122,-66.341461
1548439415933,0.325012,-1.047974,-0.170044,5.121951,1.341463,-66.097565
1548439415941,0.338684,-1.021362,-0.159241,-5.304878,0.609756,-64.817078
1548439415956,0.343811,-1.020996,-0.158508,-16.097561,0.487805,-62.926830
1548439415963,0.351990,-1.025757,-0.169861,-26.829269,0.731707,-60.365856
1548439415971,0.356018,-1.003418,-0.182068,-36.890244,0.731707,-57.621952
1548439415986,0.353516,-0.966614,-0.191406,-44.878048,0.731707,-55.670734
1548439415993,0.349060,-0.935974,-0.202087,-48.902439,1.036585,-54.329269
1548439416001,0.348145,-0.903687,-0.208984,-48.597561,1.463415,-53.719513
1548439416016,0.343140,-0.867249,-0.208252,-43.170734,2.317073,-53.597561
1548439416023,0.339966,-0.842834,-0.209167,-33.109756,3.414634,-54.085365
1548439416031,0.341492,-0.830017,-0.211487,-19.878050,4.817073,-55.060978
1548439416046,0.354980,-0.829834,-0.214539,-4.390244,6.036585,-55.731709
1548439416053,0.362305,-0.841370,-0.219299,11.280488,6.768293,-56.280491
1548439416061,0.364197,-0.847656,-0.217773,23.292683,7.073171,-56.646343
1548439416076,0.375427,-0.857605,-0.218750,31.219513,7.134147,-57.012196
1548439416083,0.385071,-0.861816,-0.216187,36.219513,6.524390,-57.621952
1548439416091,0.392822,-0.866333,-0.213257,37.804878,5.609756,-58.536587
1548439416106,0.404358,-0.867310,-0.202759,35.670734,4.329268,-59.817074
