timestamp, accel_x, accel_y, accel_z, gyro_x, gyro_y, gyro_z
1548437347904,-0.169495,-0.960388,0.287964,0.060976,-0.731707,0.365854
1548437347919,-0.171204,-0.966980,0.288757,0.182927,-0.731707,0.426829
1548437347927,-0.171021,-0.963989,0.287964,0.243902,-0.731707,0.365854
1548437347934,-0.171448,-0.962463,0.285645,0.182927,-0.792683,0.365854
1548437347957,-0.171875,-0.962891,0.285400,0.182927,-0.792683,0.304878
1548437347957,-0.172913,-0.963440,0.285461,0.304878,-0.670732,0.304878
1548437347964,-0.172363,-0.962463,0.286865,0.182927,-0.609756,0.243902
1548437347979,-0.170593,-0.963928,0.285217,0.243902,-0.670732,0.121951
1548437347987,-0.170044,-0.964478,0.286621,0.304878,-0.792683,0.060976
1548437347994,-0.168396,-0.965454,0.286621,0.304878,-0.792683,0.060976
1548437348009,-0.171814,-0.967407,0.285645,0.426829,-0.670732,0.182927
1548437348017,-0.169800,-0.966187,0.285828,0.670732,-0.670732,0.121951
1548437348024,-0.169800,-0.967224,0.287109,0.487805,-0.609756,0.060976
1548437348039,-0.170715,-0.966492,0.286560,0.426829,-0.609756,0.182927
1548437348047,-0.171875,-0.966187,0.288879,0.426829,-0.548781,0.243902
1548437348054,-0.168945,-0.965027,0.287720,0.487805,-0.609756,0.304878
1548437348069,-0.169678,-0.967102,0.286621,0.487805,-0.670732,0.304878
1548437348077,-0.168762,-0.967896,0.287231,0.548781,-0.670732,0.243902
1548437348084,-0.170227,-0.965637,0.287109,0.365854,-0.731707,0.243902
1548437348099,-0.169495,-0.967590,0.287415,0.426829,-0.609756,0.243902
1548437348107,-0.169128,-0.967896,0.291199,0.304878,-0.731707,0.243902
1548437348114,-0.171509,-0.968445,0.288940,0.243902,-0.670732,0.182927
1548437348129,-0.170532,-0.968140,0.288574,0.243902,-0.731707,0.182927
1548437348137,-0.170227,-0.970215,0.289490,0.304878,-0.731707,0.243902
1548437348144,-0.173096,-0.969543,0.291199,0.182927,-0.670732,0.243902
1548437348159,-0.170654,-0.965942,0.287476,0.182927,-0.731707,0.304878
1548437348167,-0.170471,-0.963989,0.286011,0.182927,-0.731707,0.304878
1548437348174,-0.171936,-0.964966,0.287781,0.121951,-0.609756,0.304878
1548437348189,-0.172607,-0.964111,0.287292,0.243902,-0.548781,0.304878
1548437348197,-0.174866,-0.962891,0.285156,0.304878,-0.548781,0.365854
1548437348204,-0.171753,-0.963013,0.284119,0.304878,-0.609756,0.304878
1548437348219,-0.172852,-0.963501,0.286682,0.304878,-0.609756,0.243902
1548437348227,-0.171692,-0.964783,0.287659,0.304878,-0.670732,0.304878
1548437348234,-0.172852,-0.963074,0.287170,0.243902,-0.609756,0.243902
1548437348257,-0.170959,-0.965210,0.286255,0.365854,-0.609756,0.182927
1548437348257,-0.170593,-0.967407,0.283875,0.365854,-0.670732,0.000000
1548437348264,-0.169678,-0.967163,0.288818,0.487805,-0.609756,0.060976
1548437348279,-0.169861,-0.965820,0.288513,0.487805,-0.609756,0.121951
1548437348287,-0.169556,-0.964844,0.289062,0.426829,-0.670732,0.000000
1548437348294,-0.170959,-0.966797,0.287537,0.426829,-0.792683,0.000000
1548437348309,-0.171692,-0.968933,0.287598,0.487805,-0.792683,0.060976
1548437348324,-0.171204,-0.968323,0.288025,0.487805,-0.731707,0.121951
1548437348325,-0.170837,-0.967896,0.286377,0.304878,-0.670732,0.182927
1548437348339,-0.171143,-0.967957,0.287720,0.243902,-0.670732,0.182927
1548437348347,-0.172424,-0.968201,0.288513,0.426829,-0.731707,0.182927
1548437348354,-0.171509,-0.964905,0.289795,0.243902,-0.792683,0.243902
1548437348369,-0.171387,-0.965759,0.284973,0.243902,-0.792683,0.182927
1548437348377,-0.171875,-0.964722,0.287720,0.304878,-0.853659,0.243902
1548437348384,-0.169434,-0.965088,0.286743,0.304878,-0.731707,0.365854
1548437348399,-0.169128,-0.965332,0.287964,0.365854,-0.609756,0.243902
1548437348407,-0.170410,-0.966492,0.285400,0.487805,-0.670732,0.182927
1548437348414,-0.170837,-0.965210,0.288086,0.365854,-0.792683,0.243902
1548437348430,-0.170898,-0.966553,0.288635,0.426829,-0.609756,0.243902
1548437348438,-0.172974,-0.970764,0.289551,0.426829,-0.670732,0.182927
1548437348445,-0.172791,-0.966919,0.290100,0.365854,-0.670732,0.243902
1548437348460,-0.171997,-0.965881,0.289856,0.243902,-0.670732,0.182927
1548437348469,-0.172363,-0.967651,0.289795,0.243902,-0.670732,0.182927
1548437348475,-0.173462,-0.966370,0.287903,0.365854,-0.670732,0.182927
1548437348490,-0.172424,-0.965454,0.289185,0.365854,-0.731707,0.182927
1548437348497,-0.171875,-0.963806,0.287048,0.365854,-0.670732,0.243902
1548437348505,-0.169922,-0.960815,0.286438,0.365854,-0.731707,0.121951
1548437348520,-0.172180,-0.962708,0.285156,0.365854,-0.792683,0.121951
1548437348527,-0.172424,-0.964783,0.283875,0.426829,-0.731707,0.121951
1548437348535,-0.169556,-0.965759,0.285522,0.548781,-0.792683,0.121951
1548437348550,-0.170044,-0.965942,0.285889,0.487805,-0.731707,0.000000
1548437348557,-0.170410,-0.969543,0.289429,0.548781,-0.670732,0.060976
1548437348565,-0.170959,-0.970642,0.288940,0.548781,-0.670732,-0.060976
1548437348580,-0.170715,-0.970093,0.290222,0.426829,-0.731707,-0.121951
1548437348587,-0.169800,-0.971558,0.290771,0.426829,-0.731707,0.000000
1548437348596,-0.169678,-0.970093,0.293152,0.365854,-0.670732,0.060976
1548437348610,-0.171570,-0.969971,0.291687,0.304878,-0.670732,0.060976
1548437348617,-0.170227,-0.969177,0.291199,0.121951,-0.731707,0.182927
1548437348628,-0.171570,-0.966248,0.290283,0.182927,-0.731707,0.243902
1548437348642,-0.171692,-0.966431,0.286621,0.182927,-0.670732,0.243902
1548437348649,-0.171448,-0.965027,0.288269,0.121951,-0.609756,0.365854
1548437348654,-0.168945,-0.961609,0.285645,0.060976,-0.731707,0.426829
1548437348669,-0.169373,-0.962158,0.285767,0.182927,-0.731707,0.304878
1548437348681,-0.172302,-0.964355,0.285583,0.121951,-0.670732,0.304878
1548437348685,-0.173096,-0.964233,0.283813,0.182927,-0.670732,0.304878
1548437348710,-0.172058,-0.964478,0.286621,0.243902,-0.731707,0.243902
1548437348710,-0.171814,-0.964844,0.287170,0.426829,-0.792683,0.060976
1548437348721,-0.172424,-0.966248,0.287781,0.426829,-0.670732,0.060976
1548437348738,-0.168823,-0.966309,0.287109,0.426829,-0.731707,0.060976
1548437348738,-0.172729,-0.965393,0.288635,0.426829,-0.731707,0.000000
1548437348751,-0.172668,-0.966309,0.290588,0.426829,-0.670732,0.060976
1548437348764,-0.171875,-0.967957,0.288086,0.548781,-0.670732,0.182927
1548437348768,-0.171997,-0.964600,0.289001,0.487805,-0.609756,0.243902
1548437348780,-0.171753,-0.964294,0.288391,0.487805,-0.670732,0.243902
1548437348795,-0.168884,-0.964905,0.289124,0.548781,-0.670732,0.243902
1548437348813,-0.168274,-0.967407,0.287720,0.487805,-0.609756,0.243902
1548437348813,-0.168274,-0.968872,0.289001,0.548781,-0.609756,0.182927
1548437348831,-0.170593,-0.965637,0.289307,0.548781,-0.670732,0.060976
1548437348831,-0.171265,-0.965637,0.291077,0.487805,-0.670732,0.182927
1548437348835,-0.171753,-0.967773,0.290039,0.487805,-0.731707,0.121951
1548437348853,-0.170227,-0.969727,0.288330,0.426829,-0.670732,0.060976
1548437348857,-0.169922,-0.969666,0.289734,0.365854,-0.792683,0.060976
1548437348865,-0.171021,-0.969177,0.292236,0.304878,-0.792683,0.060976
1548437348880,-0.170776,-0.969055,0.289246,0.243902,-0.731707,0.121951
1548437348887,-0.171692,-0.968445,0.288452,0.243902,-0.731707,0.182927
1548437348895,-0.173340,-0.967346,0.291138,0.304878,-0.731707,0.304878
1548437348909,-0.171814,-0.967102,0.290161,0.243902,-0.731707,0.304878
1548437348917,-0.170776,-0.968567,0.287415,0.304878,-0.731707,0.365854
1548437348924,-0.171936,-0.964294,0.287292,0.304878,-0.731707,0.426829
1548437348939,-0.170288,-0.964172,0.286133,0.243902,-0.670732,0.365854
1548437348947,-0.169373,-0.963684,0.289185,0.304878,-0.670732,0.304878
1548437348954,-0.171326,-0.963379,0.289795,0.365854,-0.670732,0.304878
1548437348969,-0.171387,-0.964111,0.287292,0.304878,-0.609756,0.243902
1548437348977,-0.170959,-0.964172,0.288208,0.243902,-0.670732,0.121951
1548437348984,-0.171509,-0.962646,0.289612,0.365854,-0.609756,0.121951
1548437348999,-0.170837,-0.965393,0.286987,0.426829,-0.670732,0.060976
1548437349007,-0.170532,-0.967651,0.287781,0.426829,-0.609756,0.182927
1548437349014,-0.171509,-0.968384,0.288391,0.365854,-0.670732,0.060976
1548437349029,-0.173218,-0.969849,0.288391,0.365854,-0.670732,0.182927
1548437349037,-0.171143,-0.968811,0.287903,0.487805,-0.670732,0.304878
1548437349044,-0.171570,-0.970276,0.289490,0.365854,-0.670732,0.304878
1548437349059,-0.170837,-0.969421,0.293701,0.304878,-0.670732,0.304878
1548437349067,-0.171387,-0.971558,0.289062,0.182927,-0.609756,0.365854
1548437349074,-0.170959,-0.971191,0.289673,0.304878,-0.670732,0.426829
1548437349089,-0.172058,-0.968872,0.290771,0.060976,-0.548781,0.487805
1548437349097,-0.170898,-0.968384,0.292786,0.000000,-0.548781,0.548781
1548437349104,-0.170349,-0.965149,0.294250,0.000000,-0.548781,0.609756
1548437349119,-0.170776,-0.962769,0.290405,0.000000,-0.548781,0.670732
1548437349127,-0.168152,-0.962830,0.289978,0.121951,-0.548781,0.609756
1548437349134,-0.171204,-0.962280,0.290527,0.243902,-0.426829,0.548781
1548437349149,-0.171509,-0.963684,0.287476,0.243902,-0.487805,0.426829
1548437349157,-0.172180,-0.965393,0.288025,0.182927,-0.426829,0.304878
1548437349164,-0.171997,-0.966614,0.287598,0.304878,-0.426829,0.426829
1548437349179,-0.172485,-0.967041,0.285828,0.121951,-0.365854,0.304878
1548437349187,-0.174194,-0.968872,0.284729,0.121951,-0.426829,0.182927
1548437349194,-0.172607,-0.966614,0.284363,0.121951,-0.487805,0.182927
1548437349209,-0.171753,-0.968262,0.285645,0.060976,-0.548781,0.243902
1548437349217,-0.171326,-0.966248,0.283997,0.060976,-0.609756,0.243902
1548437349224,-0.173645,-0.963806,0.279663,0.060976,-0.670732,0.243902
1548437349239,-0.173401,-0.961609,0.280151,0.304878,-0.548781,0.243902
1548437349247,-0.171021,-0.960693,0.280823,0.426829,-0.609756,0.304878
1548437349254,-0.170471,-0.958923,0.282715,0.365854,-0.731707,0.243902
1548437349269,-0.171387,-0.959167,0.284424,0.487805,-0.670732,0.243902
1548437349277,-0.169495,-0.961975,0.287476,0.487805,-0.731707,0.182927
1548437349284,-0.168823,-0.965515,0.288391,0.609756,-0.792683,0.060976
1548437349299,-0.169861,-0.966370,0.291382,0.731707,-0.792683,-0.060976
1548437349307,-0.170471,-0.968689,0.292358,0.670732,-0.792683,-0.121951
1548437349314,-0.169312,-0.970520,0.293518,0.670732,-0.853659,-0.182927
1548437349329,-0.168518,-0.970642,0.293579,0.731707,-0.792683,-0.182927
1548437349344,-0.170105,-0.971985,0.294128,0.670732,-0.792683,-0.182927
1548437349345,-0.171814,-0.972534,0.293274,0.609756,-0.670732,-0.182927
1548437349359,-0.171631,-0.974243,0.293274,0.487805,-0.792683,-0.121951
1548437349367,-0.170715,-0.972900,0.290771,0.243902,-0.792683,-0.121951
1548437349375,-0.172729,-0.971069,0.289246,0.121951,-0.792683,-0.121951
1548437349390,-0.172363,-0.967773,0.287231,0.000000,-0.853659,0.121951
1548437349398,-0.171692,-0.966187,0.288147,-0.060976,-0.853659,0.182927
1548437349405,-0.172180,-0.966003,0.287170,0.121951,-0.731707,0.243902
1548437349420,-0.173828,-0.964539,0.283081,0.243902,-0.670732,0.365854
1548437349428,-0.172424,-0.961670,0.285278,0.060976,-0.609756,0.426829
1548437349435,-0.168579,-0.962219,0.285461,0.121951,-0.609756,0.426829
1548437349450,-0.169495,-0.961914,0.285583,0.243902,-0.609756,0.426829
1548437349458,-0.170654,-0.961304,0.286255,0.426829,-0.670732,0.426829
1548437349465,-0.171265,-0.961975,0.285950,0.548781,-0.670732,0.365854
1548437349480,-0.171814,-0.964966,0.288208,0.548781,-0.609756,0.304878
1548437349488,-0.171875,-0.965393,0.286804,0.487805,-0.670732,0.182927
1548437349495,-0.171997,-0.963623,0.284668,0.365854,-0.731707,0.060976
1548437349510,-0.173157,-0.964478,0.286499,0.365854,-0.853659,0.000000
1548437349517,-0.169739,-0.964172,0.285889,0.426829,-0.853659,0.000000
1548437349526,-0.169556,-0.964294,0.286560,0.487805,-0.914634,-0.060976
1548437349540,-0.169434,-0.966492,0.288025,0.487805,-0.975610,-0.121951
1548437349547,-0.169189,-0.966919,0.289368,0.487805,-0.914634,-0.121951
1548437349555,-0.171875,-0.966248,0.289673,0.548781,-0.853659,0.000000
1548437349570,-0.171082,-0.967346,0.292480,0.609756,-0.853659,0.060976
1548437349578,-0.169922,-0.970154,0.292358,0.548781,-0.731707,0.121951
1548437349585,-0.168823,-0.970581,0.294739,0.609756,-0.670732,0.243902
1548437349600,-0.171204,-0.970093,0.293091,0.548781,-0.670732,0.243902
1548437349608,-0.171631,-0.968933,0.291870,0.426829,-0.609756,0.243902
1548437349615,-0.172546,-0.969788,0.291016,0.365854,-0.731707,0.426829
1548437349630,-0.172363,-0.968445,0.288269,0.243902,-0.731707,0.426829
1548437349637,-0.172302,-0.966919,0.287231,0.060976,-0.670732,0.304878
1548437349645,-0.172424,-0.964050,0.286987,0.000000,-0.731707,0.304878
1548437349660,-0.171753,-0.965027,0.284668,0.121951,-0.609756,0.304878
1548437349667,-0.171631,-0.963379,0.286499,0.182927,-0.609756,0.243902
1548437349676,-0.171387,-0.961670,0.286804,0.243902,-0.731707,0.243902
1548437349690,-0.171692,-0.961792,0.287476,0.304878,-0.609756,0.243902
1548437349697,-0.170654,-0.963135,0.288635,0.487805,-0.609756,0.182927
1548437349705,-0.172058,-0.962280,0.288269,0.548781,-0.731707,0.182927
1548437349720,-0.171753,-0.966003,0.287476,0.609756,-0.609756,0.060976
1548437349728,-0.173889,-0.968140,0.288574,0.548781,-0.609756,0.000000
1548437349735,-0.171326,-0.967468,0.289246,0.609756,-0.670732,0.000000
1548437349751,-0.173096,-0.969055,0.285217,0.609756,-0.853659,0.060976
1548437349757,-0.172119,-0.968750,0.286682,0.487805,-0.792683,0.060976
1548437349765,-0.170532,-0.969849,0.289673,0.365854,-0.670732,0.060976
1548437349780,-0.172546,-0.968994,0.289917,0.365854,-0.670732,0.060976
1548437349787,-0.171936,-0.968079,0.289368,0.365854,-0.670732,0.000000
1548437349795,-0.169128,-0.967041,0.288696,0.365854,-0.731707,0.060976
1548437349810,-0.169495,-0.965332,0.289246,0.426829,-0.792683,0.182927
1548437349818,-0.171631,-0.966614,0.289856,0.426829,-0.731707,0.121951
1548437349825,-0.169067,-0.968384,0.289856,0.426829,-0.792683,0.182927
1548437349840,-0.169067,-0.968628,0.291931,0.365854,-0.670732,0.304878
1548437349847,-0.171875,-0.967712,0.291016,0.304878,-0.609756,0.304878
1548437349855,-0.170532,-0.969482,0.291748,0.304878,-0.548781,0.365854
1548437349870,-0.170837,-0.969238,0.290710,0.182927,-0.609756,0.426829
1548437349878,-0.171326,-0.966675,0.289856,0.182927,-0.670732,0.426829
1548437349885,-0.173096,-0.964905,0.289246,0.243902,-0.609756,0.365854
1548437349900,-0.172546,-0.963867,0.288818,0.243902,-0.609756,0.426829
1548437349908,-0.172974,-0.961243,0.288391,0.304878,-0.609756,0.426829
1548437349915,-0.173706,-0.959656,0.287415,0.304878,-0.609756,0.243902
1548437349930,-0.171936,-0.958435,0.282410,0.304878,-0.548781,0.243902
1548437349938,-0.173279,-0.958740,0.280762,0.365854,-0.487805,0.182927
1548437349945,-0.172302,-0.959656,0.283020,0.487805,-0.609756,0.060976
1548437349960,-0.171387,-0.961121,0.285217,0.609756,-0.670732,-0.060976
1548437349967,-0.171570,-0.963257,0.285889,0.731707,-0.548781,-0.121951
1548437349975,-0.171509,-0.966309,0.290100,0.731707,-0.609756,-0.182927
1548437349990,-0.170471,-0.967163,0.289856,0.731707,-0.609756,-0.243902
1548437349998,-0.170349,-0.970520,0.291504,0.731707,-0.670732,-0.243902
1548437350005,-0.170837,-0.970459,0.293152,0.731707,-0.731707,-0.182927
1548437350020,-0.169739,-0.972351,0.291321,0.670732,-0.670732,-0.060976
1548437350028,-0.167786,-0.971741,0.292969,0.548781,-0.731707,0.000000
1548437350035,-0.168701,-0.972290,0.292847,0.487805,-0.731707,0.060976
1548437350050,-0.170227,-0.972595,0.296265,0.365854,-0.792683,0.182927
1548437350058,-0.167725,-0.970642,0.291626,0.304878,-0.792683,0.182927
1548437350065,-0.167480,-0.968689,0.290100,0.121951,-0.853659,0.243902
1548437350080,-0.168274,-0.968384,0.290588,-0.060976,-0.792683,0.243902
1548437350088,-0.170410,-0.965271,0.291992,0.000000,-0.792683,0.365854
1548437350098,-0.170288,-0.963135,0.291443,-0.060976,-0.853659,0.487805
1548437350110,-0.170654,-0.962585,0.289001,-0.121951,-0.731707,0.487805
1548437350118,-0.172058,-0.960693,0.288452,-0.060976,-0.731707,0.487805
1548437350126,-0.170715,-0.960938,0.288269,0.000000,-0.792683,0.426829
1548437350140,-0.171936,-0.961853,0.287598,0.121951,-0.914634,0.365854
1548437350148,-0.174316,-0.962097,0.284485,0.243902,-0.731707,0.365854
1548437350160,-0.174561,-0.962646,0.283997,0.243902,-0.792683,0.304878
1548437350169,-0.172913,-0.962341,0.283569,0.243902,-0.792683,0.304878
1548437350178,-0.174011,-0.960266,0.284424,0.243902,-0.731707,0.304878
1548437350205,-0.172058,-0.959412,0.284607,0.365854,-0.670732,0.243902
1548437350205,-0.172058,-0.961121,0.284119,0.365854,-0.731707,0.121951
1548437350215,-0.169434,-0.961670,0.286743,0.487805,-0.792683,0.060976
1548437350215,-0.169312,-0.963074,0.288940,0.548781,-0.731707,0.000000
1548437350231,-0.172119,-0.962769,0.288269,0.731707,-0.792683,0.000000
1548437350239,-0.171509,-0.965393,0.288879,0.792683,-0.853659,-0.060976
1548437350245,-0.169312,-0.966553,0.291626,0.609756,-0.853659,-0.060976
1548437350263,-0.171509,-0.970398,0.293091,0.609756,-0.792683,-0.060976
1548437350267,-0.170288,-0.972351,0.293579,0.731707,-0.914634,-0.060976
1548437350274,-0.170898,-0.972778,0.295105,0.548781,-0.792683,0.000000
1548437350289,-0.171387,-0.970337,0.292480,0.365854,-0.853659,0.121951
1548437350297,-0.171021,-0.970520,0.292603,0.304878,-0.792683,0.121951
1548437350310,-0.170349,-0.969177,0.292175,0.121951,-0.792683,0.243902
1548437350321,-0.170898,-0.968140,0.286133,0.000000,-0.731707,0.304878
1548437350330,-0.171204,-0.967590,0.289795,0.121951,-0.731707,0.304878
1548437350335,-0.169556,-0.964844,0.287781,0.060976,-0.792683,0.426829
1548437350349,-0.170837,-0.962280,0.286194,0.060976,-0.670732,0.487805
1548437350357,-0.172241,-0.960022,0.287354,0.000000,-0.548781,0.487805
1548437350366,-0.173279,-0.958618,0.286682,0.000000,-0.609756,0.548781
1548437350380,-0.170776,-0.957642,0.283813,0.121951,-0.487805,0.426829
1548437350387,-0.173767,-0.958862,0.284302,0.182927,-0.670732,0.365854
1548437350394,-0.171204,-0.960754,0.285645,0.182927,-0.731707,0.304878
1548437350409,-0.170898,-0.961914,0.286011,0.304878,-0.609756,0.304878
1548437350417,-0.172241,-0.963196,0.286804,0.426829,-0.670732,0.243902
1548437350424,-0.173523,-0.963074,0.289001,0.487805,-0.731707,0.060976
1548437350439,-0.169922,-0.965088,0.289673,0.487805,-0.731707,0.060976
1548437350447,-0.170166,-0.964905,0.288513,0.548781,-0.731707,0.060976
1548437350454,-0.173096,-0.966309,0.289734,0.426829,-0.792683,0.000000
1548437350469,-0.171143,-0.966919,0.292664,0.426829,-0.792683,0.060976
1548437350477,-0.169861,-0.966309,0.290405,0.487805,-0.792683,0.000000
1548437350484,-0.169495,-0.965698,0.289551,0.426829,-0.731707,0.121951
1548437350499,-0.169556,-0.966492,0.292419,0.365854,-0.731707,0.121951
1548437350507,-0.169922,-0.967529,0.291931,0.243902,-0.792683,0.182927
1548437350514,-0.170593,-0.967163,0.291626,0.304878,-0.670732,0.304878
1548437350529,-0.169983,-0.966614,0.290710,0.365854,-0.731707,0.243902
1548437350537,-0.171570,-0.965942,0.287231,0.182927,-0.792683,0.243902
1548437350544,-0.172119,-0.965515,0.286560,0.182927,-0.670732,0.243902
1548437350559,-0.171692,-0.966064,0.289856,0.304878,-0.731707,0.243902
1548437350567,-0.170044,-0.965576,0.287415,0.182927,-0.670732,0.304878
1548437350574,-0.172913,-0.964905,0.288208,0.121951,-0.670732,0.182927
1548437350590,-0.173889,-0.964539,0.288269,0.243902,-0.731707,0.182927
1548437350598,-0.172058,-0.961304,0.286316,0.304878,-0.670732,0.182927
1548437350605,-0.170715,-0.961609,0.285034,0.365854,-0.609756,0.243902
1548437350620,-0.173401,-0.961731,0.285278,0.365854,-0.731707,0.182927
1548437350630,-0.171692,-0.962463,0.284485,0.487805,-0.609756,0.243902
1548437350635,-0.171082,-0.961914,0.285828,0.548781,-0.609756,0.243902
1548437350650,-0.170410,-0.962646,0.286743,0.670732,-0.609756,0.060976
1548437350657,-0.171204,-0.965088,0.286438,0.609756,-0.731707,0.000000
1548437350665,-0.170166,-0.966797,0.289124,0.609756,-0.731707,-0.060976
1548437350680,-0.170105,-0.970154,0.289062,0.487805,-0.792683,-0.182927
1548437350687,-0.168884,-0.968079,0.290588,0.426829,-0.792683,-0.182927
1548437350695,-0.170776,-0.969177,0.291138,0.426829,-0.853659,-0.060976
1548437350711,-0.170227,-0.969421,0.290405,0.365854,-0.792683,0.000000
1548437350723,-0.170349,-0.968872,0.291687,0.304878,-0.792683,0.121951
1548437350731,-0.168091,-0.967285,0.290466,0.182927,-0.731707,0.243902
1548437350740,-0.169373,-0.964844,0.292664,0.121951,-0.792683,0.243902
1548437350747,-0.172668,-0.964050,0.289795,0.060976,-0.792683,0.365854
1548437350755,-0.171021,-0.964722,0.288086,0.121951,-0.731707,0.365854
1548437350771,-0.172119,-0.964417,0.289612,0.060976,-0.792683,0.365854
1548437350778,-0.173523,-0.962463,0.290405,0.121951,-0.853659,0.304878
1548437350786,-0.173767,-0.964417,0.289307,0.304878,-0.792683,0.304878
1548437350800,-0.172852,-0.961670,0.287354,0.182927,-0.731707,0.304878
1548437350808,-0.172607,-0.963074,0.286804,0.121951,-0.731707,0.182927
1548437350817,-0.172729,-0.961548,0.289246,0.060976,-0.731707,0.182927
1548437350831,-0.173279,-0.962769,0.288025,0.182927,-0.670732,0.243902
1548437350839,-0.172485,-0.963257,0.288696,0.304878,-0.670732,0.121951
1548437350846,-0.170959,-0.963684,0.288269,0.304878,-0.670732,0.121951
1548437350876,-0.170715,-0.964905,0.286804,0.365854,-0.670732,0.182927
1548437350876,-0.167725,-0.964844,0.286987,0.365854,-0.609756,0.243902
1548437350876,-0.169312,-0.961426,0.286926,0.365854,-0.670732,0.365854
1548437350913,-0.168152,-0.961853,0.287231,0.426829,-0.670732,0.365854
1548437350913,-0.169556,-0.961487,0.287659,0.548781,-0.731707,0.304878
1548437350914,-0.169800,-0.963074,0.286865,0.548781,-0.670732,0.182927
1548437350941,-0.168152,-0.964111,0.289246,0.548781,-0.731707,0.182927
1548437350941,-0.169312,-0.963989,0.289124,0.487805,-0.853659,0.121951
1548437350941,-0.171326,-0.966187,0.289856,0.426829,-0.792683,0.182927
1548437350956,-0.171387,-0.967834,0.289795,0.426829,-0.731707,0.060976
1548437350960,-0.171814,-0.967651,0.291870,0.365854,-0.731707,0.121951
1548437350964,-0.171997,-0.966736,0.293457,0.304878,-0.792683,0.060976
1548437350991,-0.173889,-0.967285,0.290222,0.426829,-0.792683,0.182927
1548437350991,-0.171875,-0.965637,0.291992,0.365854,-0.792683,0.182927
1548437351004,-0.173279,-0.964783,0.291138,0.243902,-0.792683,0.182927
1548437351013,-0.171021,-0.965454,0.290527,0.243902,-0.792683,0.243902
1548437351022,-0.170105,-0.965576,0.288086,0.304878,-0.548781,0.304878
1548437351027,-0.173889,-0.963135,0.287903,0.182927,-0.670732,0.365854
1548437351040,-0.172302,-0.965027,0.288086,0.243902,-0.670732,0.365854
1548437351056,-0.170776,-0.963196,0.287537,0.182927,-0.609756,0.365854
1548437351057,-0.170349,-0.962280,0.285889,0.304878,-0.731707,0.304878
1548437351070,-0.172058,-0.962952,0.286743,0.365854,-0.670732,0.182927
1548437351080,-0.170410,-0.963989,0.288452,0.365854,-0.670732,0.243902
1548437351090,-0.171814,-0.963013,0.288574,0.243902,-0.670732,0.243902
1548437351101,-0.169373,-0.962097,0.285583,0.243902,-0.670732,0.182927
1548437351111,-0.169434,-0.964233,0.284973,0.304878,-0.670732,0.121951
1548437351129,-0.170776,-0.964050,0.287292,0.426829,-0.670732,0.121951
1548437351130,-0.171265,-0.966248,0.287598,0.426829,-0.670732,0.000000
1548437351137,-0.170166,-0.967285,0.286804,0.426829,-0.731707,-0.060976
1548437351147,-0.170959,-0.967651,0.289734,0.487805,-0.731707,0.060976
1548437351164,-0.168335,-0.966125,0.289978,0.487805,-0.670732,0.182927
1548437351172,-0.170166,-0.965881,0.287903,0.365854,-0.792683,0.121951
1548437351178,-0.170471,-0.966064,0.289795,0.365854,-0.792683,0.121951
1548437351190,-0.170166,-0.968140,0.290161,0.304878,-0.731707,0.182927
1548437351203,-0.170471,-0.966614,0.288879,0.304878,-0.731707,0.182927
1548437351207,-0.169678,-0.963562,0.290649,0.365854,-0.731707,0.182927
1548437351223,-0.169617,-0.964844,0.290344,0.365854,-0.792683,0.243902
1548437351228,-0.171997,-0.965698,0.288452,0.365854,-0.853659,0.182927
1548437351236,-0.172424,-0.965149,0.288818,0.304878,-0.914634,0.182927
1548437351250,-0.172852,-0.964905,0.287720,0.182927,-0.731707,0.243902
1548437351257,-0.172607,-0.962891,0.290222,0.121951,-0.792683,0.243902
1548437351267,-0.172913,-0.963013,0.289612,0.182927,-0.731707,0.304878
1548437351279,-0.173340,-0.962036,0.286682,0.365854,-0.670732,0.304878
1548437351287,-0.171753,-0.963440,0.284607,0.426829,-0.792683,0.182927
1548437351294,-0.173767,-0.963013,0.285156,0.365854,-0.731707,0.182927
1548437351312,-0.173645,-0.961182,0.286499,0.365854,-0.731707,0.243902
1548437351318,-0.172058,-0.962341,0.288574,0.548781,-0.731707,0.243902
1548437351324,-0.171448,-0.963440,0.287842,0.548781,-0.792683,0.000000
1548437351340,-0.172363,-0.965332,0.288635,0.548781,-0.731707,0.000000
1548437351347,-0.171082,-0.967773,0.291260,0.426829,-0.609756,-0.060976
1548437351354,-0.169800,-0.966492,0.290161,0.487805,-0.670732,-0.060976
1548437351370,-0.170593,-0.968384,0.289673,0.426829,-0.731707,-0.121951
1548437351377,-0.169189,-0.967957,0.291016,0.426829,-0.792683,-0.060976
1548437351384,-0.170410,-0.968262,0.292053,0.365854,-0.731707,0.000000
1548437351399,-0.169678,-0.968933,0.292297,0.243902,-0.731707,0.060976
1548437351407,-0.169922,-0.966614,0.291382,0.243902,-0.670732,0.121951
1548437351414,-0.169739,-0.965820,0.291565,0.243902,-0.731707,0.182927
1548437351429,-0.170715,-0.963989,0.290955,0.243902,-0.792683,0.243902
1548437351438,-0.170654,-0.963318,0.288330,0.060976,-0.792683,0.243902
1548437351444,-0.170837,-0.963867,0.287354,0.121951,-0.853659,0.243902
1548437351459,-0.171143,-0.963318,0.287170,0.182927,-0.792683,0.243902
1548437351467,-0.170532,-0.965149,0.286743,0.182927,-0.792683,0.182927
1548437351474,-0.170410,-0.964111,0.287903,0.243902,-0.731707,0.182927
1548437351489,-0.172485,-0.963867,0.288147,0.243902,-0.792683,0.182927
1548437351497,-0.172974,-0.963501,0.288757,0.304878,-0.792683,0.182927
1548437351504,-0.171692,-0.965759,0.289917,0.365854,-0.792683,0.182927
1548437351519,-0.172485,-0.963867,0.288208,0.304878,-0.731707,0.243902
1548437351527,-0.173462,-0.965210,0.288147,0.182927,-0.670732,0.243902
1548437351534,-0.173828,-0.965820,0.287842,0.304878,-0.670732,0.182927
1548437351542,-0.172729,-0.962708,0.287598,0.365854,-0.609756,0.365854
1548437351557,-0.169312,-0.959717,0.288147,0.365854,-0.548781,0.365854
1548437351565,-0.167175,-0.962524,0.285461,0.365854,-0.670732,0.243902
1548437351572,-0.169861,-0.962097,0.288635,0.487805,-0.670732,0.182927
1548437351587,-0.169800,-0.964478,0.290039,0.670732,-0.670732,0.182927
1548437351595,-0.168701,-0.965149,0.288940,0.609756,-0.731707,0.060976
1548437351602,-0.169006,-0.963562,0.287048,0.548781,-0.670732,0.121951
1548437351617,-0.171082,-0.966125,0.287537,0.487805,-0.670732,0.060976
1548437351626,-0.171570,-0.968750,0.291443,0.548781,-0.670732,0.060976
1548437351632,-0.170105,-0.968079,0.290161,0.426829,-0.792683,0.060976
1548437351647,-0.170166,-0.969116,0.291504,0.365854,-0.792683,0.121951
1548437351655,-0.171448,-0.970764,0.290710,0.243902,-0.731707,0.182927
1548437351662,-0.171570,-0.968872,0.290161,0.304878,-0.853659,0.182927
1548437351678,-0.171143,-0.966187,0.290466,0.243902,-0.853659,0.182927
1548437351685,-0.170288,-0.965210,0.289917,0.304878,-0.670732,0.304878
1548437351692,-0.171814,-0.964417,0.290039,0.182927,-0.670732,0.365854
1548437351707,-0.171143,-0.963257,0.287170,0.182927,-0.670732,0.365854
1548437351715,-0.170959,-0.961792,0.289185,0.182927,-0.731707,0.365854
1548437351722,-0.170959,-0.961243,0.286987,0.304878,-0.731707,0.365854
1548437351738,-0.171936,-0.962708,0.284851,0.304878,-0.670732,0.243902
1548437351745,-0.168579,-0.964050,0.285217,0.304878,-0.731707,0.304878
1548437351752,-0.170959,-0.962219,0.286499,0.365854,-0.731707,0.243902
1548437351767,-0.170227,-0.963257,0.289429,0.365854,-0.731707,0.182927
1548437351775,-0.171326,-0.963379,0.288330,0.365854,-0.731707,0.060976
1548437351782,-0.171631,-0.963745,0.288330,0.365854,-0.670732,0.060976
1548437351798,-0.173828,-0.965698,0.288391,0.365854,-0.792683,0.000000
1548437351805,-0.172668,-0.966980,0.290588,0.487805,-0.731707,0.060976
1548437351812,-0.172363,-0.964905,0.290405,0.365854,-0.670732,0.121951
1548437351829,-0.170166,-0.966492,0.288879,0.304878,-0.670732,0.182927
1548437351835,-0.169922,-0.967041,0.289185,0.365854,-0.731707,0.121951
1548437351842,-0.169250,-0.966919,0.290771,0.365854,-0.792683,0.121951
1548437351858,-0.170959,-0.965454,0.291016,0.304878,-0.609756,0.182927
1548437351865,-0.170105,-0.964722,0.289429,0.365854,-0.609756,0.243902
1548437351873,-0.171631,-0.965454,0.288574,0.365854,-0.731707,0.304878
1548437351887,-0.169128,-0.965027,0.288208,0.304878,-0.731707,0.182927
1548437351895,-0.171021,-0.967285,0.290955,0.365854,-0.731707,0.243902
1548437351902,-0.171387,-0.965332,0.289734,0.304878,-0.670732,0.243902
1548437351918,-0.169922,-0.963928,0.288635,0.243902,-0.731707,0.121951
1548437351925,-0.171448,-0.964783,0.288391,0.243902,-0.731707,0.182927
1548437351933,-0.171631,-0.961365,0.288269,0.182927,-0.731707,0.243902
1548437351947,-0.170715,-0.962830,0.286621,0.182927,-0.792683,0.182927
1548437351956,-0.172729,-0.961670,0.286621,0.304878,-0.609756,0.182927
1548437351963,-0.170349,-0.961121,0.285828,0.426829,-0.609756,0.243902
1548437351978,-0.172058,-0.959534,0.284729,0.426829,-0.731707,0.182927
1548437351985,-0.171387,-0.960022,0.284607,0.548781,-0.731707,0.121951
1548437351993,-0.171082,-0.961975,0.286682,0.548781,-0.731707,0.060976
1548437352008,-0.173340,-0.965942,0.288818,0.609756,-0.792683,0.060976
1548437352015,-0.170654,-0.968384,0.290710,0.487805,-0.792683,0.000000
1548437352023,-0.173706,-0.968079,0.291504,0.487805,-0.853659,-0.060976
1548437352038,-0.171143,-0.970947,0.291138,0.487805,-0.792683,-0.121951
1548437352045,-0.171326,-0.971558,0.292725,0.487805,-0.792683,-0.121951
1548437352053,-0.169800,-0.969116,0.292847,0.365854,-0.792683,0.121951
1548437352068,-0.169128,-0.967773,0.293274,0.121951,-0.731707,0.182927
1548437352075,-0.169739,-0.967346,0.292969,0.182927,-0.670732,0.182927
1548437352083,-0.170166,-0.966431,0.293640,0.121951,-0.731707,0.243902
1548437352098,-0.170044,-0.963379,0.290283,0.182927,-0.670732,0.365854
1548437352120,-0.171997,-0.963806,0.290100,0.121951,-0.731707,0.426829
1548437352121,-0.171326,-0.963196,0.289185,0.182927,-0.853659,0.304878
1548437352128,-0.168579,-0.960144,0.286804,0.182927,-0.731707,0.304878
1548437352136,-0.170349,-0.962036,0.287537,0.121951,-0.670732,0.304878
1548437352145,-0.172363,-0.963257,0.286072,0.121951,-0.609756,0.243902
1548437352157,-0.172058,-0.962769,0.286804,0.121951,-0.731707,0.243902
1548437352164,-0.171204,-0.961670,0.288147,0.121951,-0.670732,0.121951
1548437352172,-0.171021,-0.963074,0.288330,0.365854,-0.731707,0.121951
1548437352187,-0.169617,-0.965515,0.288147,0.365854,-0.731707,0.121951
1548437352194,-0.172180,-0.965881,0.289673,0.426829,-0.670732,0.060976
1548437352202,-0.171448,-0.965881,0.288147,0.487805,-0.731707,0.182927
1548437352217,-0.171753,-0.963928,0.287170,0.426829,-0.670732,0.243902
1548437352225,-0.171265,-0.962463,0.289490,0.365854,-0.670732,0.182927
1548437352232,-0.170715,-0.959717,0.289856,0.365854,-0.731707,0.243902
1548437352247,-0.169189,-0.962097,0.287659,0.487805,-0.731707,0.121951
1548437352254,-0.169312,-0.963745,0.287781,0.548781,-0.609756,0.121951
1548437352262,-0.169861,-0.964661,0.288452,0.548781,-0.670732,0.060976
1548437352277,-0.171021,-0.964417,0.286926,0.609756,-0.731707,0.000000
1548437352284,-0.168701,-0.965332,0.291016,0.609756,-0.670732,-0.060976
1548437352292,-0.171021,-0.967529,0.290649,0.548781,-0.670732,-0.060976
1548437352307,-0.172424,-0.968140,0.292053,0.609756,-0.670732,-0.060976
1548437352314,-0.171875,-0.969482,0.292908,0.487805,-0.670732,0.000000
1548437352322,-0.172607,-0.968201,0.293091,0.426829,-0.670732,0.060976
1548437352337,-0.172302,-0.968140,0.291748,0.365854,-0.609756,0.121951
1548437352344,-0.171143,-0.966614,0.291870,0.304878,-0.487805,0.182927
1548437352352,-0.171631,-0.966797,0.291809,0.304878,-0.487805,0.304878
1548437352367,-0.169373,-0.964355,0.289490,0.304878,-0.487805,0.304878
1548437352374,-0.169800,-0.963745,0.288757,0.304878,-0.548781,0.365854
1548437352382,-0.170349,-0.962830,0.285950,0.243902,-0.548781,0.426829
1548437352397,-0.169922,-0.960938,0.286255,0.426829,-0.426829,0.243902
1548437352404,-0.170105,-0.962097,0.286804,0.487805,-0.548781,0.243902
1548437352412,-0.169495,-0.965210,0.287048,0.426829,-0.609756,0.243902
1548437352427,-0.172607,-0.963684,0.290405,0.426829,-0.609756,0.182927
1548437352434,-0.172424,-0.964172,0.289124,0.365854,-0.670732,0.121951
1548437352442,-0.171082,-0.962646,0.286804,0.365854,-0.670732,0.060976
1548437352457,-0.171204,-0.965698,0.286499,0.365854,-0.670732,0.060976
1548437352464,-0.171204,-0.966187,0.288391,0.365854,-0.670732,0.000000
1548437352472,-0.171082,-0.966064,0.291260,0.365854,-0.670732,0.121951
1548437352487,-0.169373,-0.966370,0.289612,0.548781,-0.609756,0.121951
1548437352495,-0.168762,-0.965698,0.289734,0.670732,-0.670732,0.121951
1548437352502,-0.168884,-0.966248,0.290771,0.548781,-0.731707,0.182927
1548437352517,-0.170227,-0.965881,0.290100,0.487805,-0.670732,0.182927
1548437352524,-0.171082,-0.964722,0.285828,0.426829,-0.670732,0.182927
1548437352532,-0.168457,-0.963745,0.287476,0.426829,-0.731707,0.182927
1548437352548,-0.169495,-0.965515,0.288757,0.304878,-0.792683,0.182927
1548437352555,-0.169861,-0.966125,0.289062,0.365854,-0.792683,0.060976
1548437352563,-0.170349,-0.965820,0.290649,0.426829,-0.792683,0.060976
1548437352577,-0.170776,-0.965820,0.288940,0.487805,-0.731707,0.182927
1548437352586,-0.170532,-0.965271,0.288696,0.365854,-0.731707,0.182927
1548437352593,-0.171936,-0.966919,0.289917,0.304878,-0.792683,0.060976
1548437352608,-0.171143,-0.966187,0.291504,0.365854,-0.853659,0.121951
1548437352615,-0.169312,-0.962891,0.292053,0.304878,-0.853659,0.182927
1548437352624,-0.170959,-0.965454,0.289429,0.304878,-0.792683,0.243902
1548437352637,-0.171814,-0.962646,0.286926,0.365854,-0.853659,0.243902
1548437352645,-0.172852,-0.961243,0.286255,0.487805,-0.792683,0.243902
1548437352653,-0.173157,-0.960876,0.284302,0.243902,-0.792683,0.243902
1548437352668,-0.171326,-0.961853,0.287048,0.365854,-0.792683,0.182927
1548437352683,-0.172363,-0.962769,0.287048,0.365854,-0.853659,0.121951
1548437352683,-0.172913,-0.965942,0.288635,0.426829,-0.792683,0.060976
1548437352698,-0.171265,-0.967590,0.290283,0.487805,-0.792683,0.121951
1548437352705,-0.171021,-0.966248,0.290100,0.487805,-0.792683,-0.060976
1548437352712,-0.170776,-0.968018,0.291687,0.487805,-0.792683,-0.060976
1548437352727,-0.168823,-0.969360,0.293518,0.365854,-0.792683,0.000000
1548437352736,-0.170471,-0.968628,0.293030,0.365854,-0.853659,0.000000
1548437352743,-0.172668,-0.969360,0.291748,0.243902,-0.731707,0.121951
1548437352758,-0.171448,-0.963928,0.290894,0.304878,-0.670732,0.121951
1548437352765,-0.169556,-0.962524,0.290894,0.182927,-0.731707,0.243902
1548437352772,-0.169312,-0.962280,0.292358,0.182927,-0.853659,0.182927
1548437352788,-0.170532,-0.962585,0.289795,0.182927,-0.853659,0.182927
1548437352797,-0.169495,-0.963257,0.290588,0.182927,-0.792683,0.121951
1548437352805,-0.171082,-0.962891,0.293945,0.243902,-0.731707,0.121951
1548437352818,-0.171265,-0.964539,0.291382,0.304878,-0.670732,0.121951
1548437352826,-0.171814,-0.963318,0.291260,0.304878,-0.609756,0.060976
1548437352833,-0.173157,-0.966125,0.291016,0.365854,-0.609756,0.060976
1548437352847,-0.172302,-0.966248,0.289368,0.304878,-0.670732,0.000000
1548437352855,-0.174316,-0.967102,0.291870,0.365854,-0.548781,-0.060976
1548437352863,-0.174866,-0.966797,0.287720,0.426829,-0.487805,0.121951
1548437352883,-0.173584,-0.964233,0.285400,0.304878,-0.365854,0.182927
1548437352887,-0.172729,-0.960815,0.282104,0.426829,-0.426829,0.121951
1548437352894,-0.169312,-0.958984,0.281067,0.426829,-0.548781,0.121951
1548437352909,-0.166504,-0.957520,0.280457,0.609756,-0.487805,0.000000
1548437352917,-0.167236,-0.957214,0.283325,0.731707,-0.548781,0.000000
1548437352924,-0.166016,-0.960510,0.284363,0.914634,-0.548781,-0.060976
1548437352937,-0.165161,-0.963989,0.285522,0.975610,-0.731707,-0.304878
1548437352944,-0.166809,-0.967834,0.292542,0.914634,-0.853659,-0.243902
1548437352952,-0.165100,-0.972412,0.295898,0.975610,-0.914634,-0.182927
1548437352967,-0.168274,-0.977234,0.297607,0.792683,-0.975610,-0.243902
1548437352975,-0.170044,-0.980225,0.299377,0.487805,-1.097561,-0.121951
1548437352983,-0.166992,-0.980896,0.301025,0.243902,-1.036585,0.060976
1548437353000,-0.168762,-0.979248,0.298950,0.060976,-1.036585,0.182927
1548437353004,-0.169128,-0.976074,0.300049,-0.121951,-1.097561,0.304878
1548437353012,-0.168945,-0.970703,0.294312,-0.243902,-1.036585,0.487805
1548437353027,-0.168640,-0.968750,0.291260,-0.365854,-0.975610,0.670732
1548437353035,-0.167847,-0.962646,0.285706,-0.365854,-0.914634,0.792683
1548437353042,-0.166565,-0.957764,0.284119,-0.365854,-0.792683,0.853659
1548437353057,-0.169006,-0.954651,0.282898,-0.304878,-0.853659,0.853659
1548437353064,-0.172424,-0.952148,0.281860,-0.060976,-0.792683,0.792683
1548437353072,-0.170837,-0.952515,0.279968,0.060976,-0.731707,0.670732
1548437353087,-0.171204,-0.954834,0.280396,0.243902,-0.792683,0.487805
1548437353095,-0.170654,-0.957336,0.279541,0.487805,-0.914634,0.304878
1548437353102,-0.170227,-0.957214,0.284241,0.609756,-1.036585,0.182927
1548437353117,-0.171326,-0.960876,0.284973,0.609756,-1.036585,0.000000
1548437353124,-0.171631,-0.963867,0.287048,0.670732,-1.036585,-0.121951
1548437353132,-0.170410,-0.967102,0.290955,0.731707,-1.036585,-0.182927
1548437353147,-0.172974,-0.969482,0.292908,0.731707,-1.036585,-0.243902
1548437353155,-0.174438,-0.970032,0.293762,0.731707,-1.097561,-0.243902
1548437353163,-0.174072,-0.968384,0.296936,0.731707,-1.097561,-0.243902
1548437353178,-0.173767,-0.970093,0.296936,0.548781,-1.036585,-0.121951
1548437353185,-0.175720,-0.972290,0.296631,0.487805,-0.914634,0.060976
1548437353193,-0.173523,-0.970032,0.296448,0.548781,-0.853659,0.182927
1548437353207,-0.172729,-0.971680,0.297241,0.365854,-0.853659,0.243902
1548437353215,-0.172424,-0.971008,0.300232,0.243902,-0.731707,0.304878
1548437353222,-0.173767,-0.969971,0.297302,0.243902,-0.487805,0.426829
1548437353238,-0.171143,-0.971375,0.292969,0.243902,-0.426829,0.487805
1548437353245,-0.171875,-0.968750,0.291443,0.060976,-0.426829,0.365854
1548437353253,-0.170288,-0.967468,0.292664,0.000000,-0.365854,0.426829
1548437353268,-0.171570,-0.967896,0.289246,-0.243902,-0.304878,0.487805
1548437353276,-0.171265,-0.964172,0.288269,-0.243902,-0.365854,0.487805
1548437353283,-0.169189,-0.961243,0.286560,-0.243902,-0.426829,0.548781
1548437353299,-0.167603,-0.959778,0.286682,-0.365854,-0.426829,0.548781
1548437353305,-0.167358,-0.956360,0.280640,-0.121951,-0.548781,0.426829
1548437353313,-0.164062,-0.955811,0.280823,0.000000,-0.609756,0.426829
1548437353328,-0.165405,-0.954834,0.279663,0.000000,-0.609756,0.365854
1548437353335,-0.166260,-0.955078,0.278381,0.304878,-0.670732,0.243902
1548437353343,-0.166931,-0.957886,0.282227,0.487805,-0.731707,0.121951
1548437353358,-0.167786,-0.961243,0.279724,0.609756,-0.853659,0.000000
1548437353365,-0.167908,-0.963318,0.284790,0.792683,-0.792683,-0.060976
1548437353372,-0.168640,-0.965332,0.289673,0.792683,-0.914634,-0.121951
1548437353388,-0.168823,-0.969177,0.291931,0.792683,-1.036585,-0.243902
1548437353395,-0.169006,-0.970947,0.295715,0.792683,-1.036585,-0.182927
1548437353402,-0.169312,-0.972534,0.294922,0.609756,-1.036585,-0.182927
1548437353418,-0.171021,-0.972961,0.296143,0.548781,-0.975610,-0.060976
1548437353425,-0.170288,-0.971985,0.296570,0.487805,-0.975610,0.000000
1548437353432,-0.171814,-0.971252,0.294800,0.426829,-0.853659,0.121951
1548437353447,-0.173218,-0.967102,0.296631,0.182927,-0.731707,0.243902
1548437353455,-0.172913,-0.967041,0.295288,0.121951,-0.670732,0.304878
1548437353463,-0.172668,-0.965027,0.293152,0.182927,-0.731707,0.304878
1548437353477,-0.172791,-0.965881,0.290466,0.243902,-0.792683,0.487805
1548437353486,-0.172546,-0.964233,0.289673,0.121951,-0.731707,0.426829
1548437353492,-0.172302,-0.962280,0.286926,0.000000,-0.731707,0.304878
1548437353508,-0.172852,-0.961426,0.286194,0.000000,-0.609756,0.365854
1548437353515,-0.170776,-0.961853,0.286743,0.060976,-0.731707,0.304878
1548437353523,-0.170471,-0.963196,0.284668,0.182927,-0.731707,0.182927
1548437353538,-0.171692,-0.966064,0.287598,0.426829,-0.792683,0.121951
1548437353545,-0.170715,-0.965271,0.286438,0.487805,-0.792683,0.000000
1548437353553,-0.170593,-0.964844,0.289917,0.487805,-0.731707,0.000000
1548437353567,-0.169922,-0.967224,0.290466,0.487805,-0.731707,0.000000
1548437353575,-0.172241,-0.970459,0.289612,0.426829,-0.609756,0.000000
1548437353583,-0.168701,-0.968933,0.288452,0.365854,-0.548781,0.182927
1548437353597,-0.165161,-0.968323,0.288513,0.365854,-0.487805,0.304878
1548437353605,-0.164673,-0.969543,0.287842,0.304878,-0.548781,0.426829
1548437353613,-0.163208,-0.968079,0.287109,0.365854,-0.548781,0.487805
1548437353628,-0.162720,-0.964478,0.286438,0.487805,-0.670732,0.548781
1548437353636,-0.165039,-0.965027,0.285645,0.548781,-0.853659,0.487805
1548437353642,-0.167358,-0.964050,0.284058,0.548781,-0.853659,0.487805
1548437353657,-0.167664,-0.966003,0.284119,0.487805,-1.036585,0.365854
1548437353665,-0.168579,-0.966431,0.286194,0.426829,-1.036585,0.304878
1548437353673,-0.168884,-0.964905,0.289185,0.487805,-0.975610,0.365854
1548437353688,-0.171143,-0.965759,0.290833,0.365854,-0.975610,0.304878
1548437353695,-0.173889,-0.964417,0.293274,0.426829,-1.036585,0.243902
1548437353703,-0.175110,-0.964783,0.292480,0.487805,-1.036585,0.182927
1548437353718,-0.177673,-0.969604,0.293396,0.548781,-0.975610,0.060976
1548437353725,-0.178894,-0.971375,0.296021,0.670732,-0.914634,0.060976
1548437353732,-0.179016,-0.970947,0.294983,0.731707,-0.731707,0.060976
1548437353747,-0.178894,-0.971313,0.297913,0.548781,-0.487805,0.182927
1548437353755,-0.179016,-0.972168,0.298035,0.365854,-0.426829,0.304878
1548437353764,-0.181641,-0.971985,0.296387,0.182927,-0.365854,0.304878
1548437353778,-0.179932,-0.971191,0.295410,0.060976,-0.304878,0.365854
1548437353785,-0.177612,-0.969849,0.295837,0.000000,-0.243902,0.426829
1548437353794,-0.176514,-0.969055,0.293945,-0.060976,-0.182927,0.426829
1548437353809,-0.173950,-0.966858,0.289368,-0.243902,-0.182927,0.487805
1548437353816,-0.172241,-0.963928,0.286377,-0.426829,-0.182927,0.548781
1548437353824,-0.171692,-0.963074,0.283081,-0.487805,-0.121951,0.548781
1548437353881,-0.167664,-0.960388,0.282349,-0.426829,-0.121951,0.487805
1548437353881,-0.165894,-0.960022,0.282227,-0.243902,-0.182927,0.487805
1548437353881,-0.166443,-0.960083,0.282898,-0.182927,-0.182927,0.487805
1548437353883,-0.164246,-0.963562,0.283875,-0.182927,-0.182927,0.426829
1548437353884,-0.163818,-0.967102,0.287537,0.000000,-0.121951,0.365854
1548437353884,-0.163391,-0.967285,0.286316,0.121951,-0.243902,0.426829
1548437353902,-0.163086,-0.968140,0.289673,0.060976,-0.304878,0.487805
1548437353913,-0.163208,-0.971802,0.289795,0.243902,-0.365854,0.426829
1548437353922,-0.164307,-0.970276,0.289856,0.182927,-0.426829,0.487805
1548437353928,-0.167969,-0.969849,0.286804,0.121951,-0.487805,0.487805
1548437353938,-0.171448,-0.969727,0.291504,0.000000,-0.609756,0.548781
1548437353944,-0.171631,-0.966125,0.290833,-0.060976,-0.609756,0.548781
1548437353957,-0.173401,-0.962830,0.288940,-0.121951,-0.670732,0.548781
1548437353967,-0.174561,-0.959778,0.288391,-0.060976,-0.609756,0.487805
1548437353975,-0.174805,-0.958923,0.285889,0.000000,-0.548781,0.426829
1548437353992,-0.175049,-0.958252,0.285034,0.182927,-0.548781,0.304878
1548437354024,-0.173828,-0.957825,0.282837,0.365854,-0.670732,0.182927
1548437354031,-0.176514,-0.958862,0.282654,0.487805,-0.731707,0.060976
1548437354031,-0.174988,-0.960327,0.283997,0.487805,-0.670732,-0.060976
1548437354044,-0.173035,-0.962830,0.282654,0.609756,-0.670732,-0.182927
1548437354044,-0.174255,-0.965149,0.287537,0.609756,-0.731707,-0.304878
1548437354052,-0.172424,-0.968750,0.289856,0.670732,-0.792683,-0.304878
1548437354057,-0.173157,-0.969666,0.288879,0.731707,-0.853659,-0.365854
1548437354068,-0.170654,-0.970459,0.289734,0.609756,-0.853659,-0.426829
1548437354083,-0.171692,-0.968567,0.289795,0.670732,-0.853659,-0.487805
1548437354084,-0.169312,-0.968262,0.288513,0.548781,-0.914634,-0.426829
1548437354093,-0.167847,-0.966370,0.289612,0.548781,-0.975610,-0.365854
1548437354107,-0.167969,-0.967773,0.292236,0.609756,-0.914634,-0.304878
1548437354114,-0.166504,-0.968628,0.292175,0.487805,-0.975610,-0.304878
1548437354122,-0.165527,-0.969360,0.291260,0.365854,-0.975610,-0.304878
1548437354137,-0.167480,-0.967102,0.290649,0.426829,-0.975610,-0.121951
1548437354144,-0.169678,-0.970093,0.291321,0.304878,-1.158537,-0.121951
1548437354152,-0.170105,-0.972473,0.288940,0.243902,-0.975610,0.060976
1548437354167,-0.169495,-0.969971,0.289795,0.304878,-0.914634,0.060976
1548437354174,-0.168701,-0.968262,0.289612,0.182927,-0.975610,0.182927
1548437354182,-0.168579,-0.968323,0.287109,0.243902,-0.914634,0.365854
1548437354197,-0.168274,-0.967346,0.286499,0.365854,-0.792683,0.426829
1548437354207,-0.170044,-0.965576,0.289490,0.426829,-0.792683,0.365854
1548437354236,-0.171814,-0.964661,0.289001,0.548781,-0.670732,0.426829
1548437354236,-0.173706,-0.964417,0.288513,0.731707,-0.609756,0.365854
1548437354244,-0.172668,-0.964111,0.288086,0.548781,-0.670732,0.426829
1548437354244,-0.172180,-0.962402,0.287354,0.548781,-0.609756,0.487805
1548437354273,-0.175476,-0.962219,0.288391,0.609756,-0.548781,0.365854
1548437354273,-0.173401,-0.963745,0.287781,0.731707,-0.487805,0.304878
1548437354273,-0.171082,-0.965332,0.289612,0.853659,-0.487805,0.182927
1548437354412,-0.171631,-0.964355,0.287598,0.853659,-0.548781,-0.060976
1548437354413,-0.172607,-0.968018,0.289246,0.792683,-0.609756,-0.060976
1548437354413,-0.170898,-0.970459,0.289490,0.853659,-0.609756,-0.121951
1548437354439,-0.172119,-0.973145,0.290466,0.792683,-0.609756,-0.121951
1548437354440,-0.173584,-0.973389,0.293274,0.548781,-0.670732,0.000000
1548437354440,-0.173279,-0.974792,0.294800,0.304878,-0.670732,0.000000
1548437354440,-0.172607,-0.974792,0.295105,0.121951,-0.731707,0.243902
1548437354440,-0.172913,-0.973938,0.294312,0.060976,-0.792683,0.365854
1548437354441,-0.171326,-0.974060,0.292969,-0.060976,-0.792683,0.426829
1548437354441,-0.170654,-0.971436,0.294189,-0.121951,-0.731707,0.609756
1548437354441,-0.171814,-0.968262,0.290771,-0.182927,-0.548781,0.731707
1548437354441,-0.171265,-0.965332,0.288696,-0.243902,-0.670732,0.792683
1548437354442,-0.170959,-0.962341,0.286499,-0.304878,-0.548781,0.792683
1548437354442,-0.171448,-0.961853,0.285645,-0.243902,-0.426829,0.731707
1548437354442,-0.169067,-0.960632,0.284668,-0.243902,-0.487805,0.609756
1548437354442,-0.169312,-0.961243,0.283142,-0.121951,-0.487805,0.548781
1548437354457,-0.171082,-0.959045,0.283264,0.000000,-0.548781,0.426829
1548437354462,-0.169678,-0.961609,0.284424,0.060976,-0.548781,0.365854
1548437354512,-0.166748,-0.965210,0.285400,0.182927,-0.609756,0.304878
1548437354512,-0.169495,-0.966003,0.287903,0.243902,-0.609756,0.182927
1548437354524,-0.170105,-0.968445,0.288208,0.182927,-0.609756,0.182927
1548437354524,-0.171082,-0.972717,0.289917,0.304878,-0.609756,0.121951
1548437354524,-0.169861,-0.971375,0.291077,0.121951,-0.609756,0.243902
1548437354525,-0.170715,-0.971191,0.290649,0.182927,-0.609756,0.365854
1548437354535,-0.171692,-0.967896,0.288208,0.182927,-0.609756,0.365854
1548437354535,-0.170532,-0.966187,0.288879,0.121951,-0.487805,0.426829
1548437354542,-0.171692,-0.961487,0.289978,0.060976,-0.487805,0.548781
1548437354601,-0.170532,-0.960999,0.285889,0.182927,-0.487805,0.548781
1548437354602,-0.170471,-0.961548,0.283386,0.365854,-0.548781,0.426829
1548437354602,-0.169922,-0.960144,0.283936,0.426829,-0.609756,0.365854
1548437354602,-0.172302,-0.960449,0.283936,0.426829,-0.487805,0.243902
1548437354620,-0.172729,-0.961975,0.283997,0.487805,-0.609756,0.182927
1548437354620,-0.171204,-0.963135,0.287048,0.548781,-0.609756,0.121951
1548437354621,-0.173157,-0.964478,0.284546,0.731707,-0.670732,0.000000
1548437354632,-0.171936,-0.966614,0.285522,0.609756,-0.731707,-0.121951
1548437354632,-0.171875,-0.968384,0.286560,0.731707,-0.853659,-0.243902
1548437354650,-0.172729,-0.968262,0.288818,0.731707,-0.853659,-0.304878
1548437354654,-0.172607,-0.969299,0.289185,0.609756,-0.914634,-0.304878
1548437354674,-0.173828,-0.971069,0.291382,0.609756,-0.914634,-0.304878
1548437354677,-0.173828,-0.970947,0.291504,0.487805,-0.914634,-0.182927
1548437354684,-0.174438,-0.970703,0.287903,0.365854,-0.853659,-0.060976
1548437354696,-0.175110,-0.969666,0.289062,0.426829,-0.853659,0.000000
1548437354708,-0.170837,-0.969910,0.289612,0.365854,-0.853659,0.060976
1548437354716,-0.170166,-0.968628,0.290955,0.243902,-0.853659,0.121951
1548437354725,-0.171448,-0.970032,0.289612,0.304878,-0.792683,0.121951
1548437354739,-0.169128,-0.969360,0.289124,0.365854,-0.670732,0.121951
1548437354744,-0.167969,-0.969055,0.291626,0.304878,-0.731707,0.182927
1548437354752,-0.169922,-0.968750,0.291199,0.121951,-0.731707,0.182927
1548437354770,-0.167725,-0.969421,0.290894,0.060976,-0.670732,0.182927
1548437354777,-0.168579,-0.970581,0.289734,0.060976,-0.731707,0.182927
1548437354785,-0.169495,-0.968750,0.288513,0.060976,-0.731707,0.182927
1548437354797,-0.168823,-0.966370,0.286926,0.060976,-0.731707,0.243902
1548437354804,-0.170166,-0.967834,0.287292,0.000000,-0.792683,0.304878
1548437354815,-0.170044,-0.966553,0.287476,-0.060976,-0.731707,0.304878
1548437354842,-0.169739,-0.963745,0.286987,0.000000,-0.792683,0.304878
1548437354850,-0.173096,-0.964600,0.285400,0.060976,-0.792683,0.365854
1548437354853,-0.172546,-0.963501,0.286072,0.060976,-0.792683,0.426829
1548437354858,-0.173340,-0.961609,0.284912,0.182927,-0.670732,0.487805
1548437354865,-0.175171,-0.964111,0.285461,0.243902,-0.731707,0.487805
1548437354872,-0.169312,-0.961853,0.288635,0.304878,-0.670732,0.426829
1548437354887,-0.170776,-0.962402,0.290344,0.426829,-0.670732,0.304878
1548437354894,-0.174805,-0.962463,0.287415,0.365854,-0.792683,0.243902
1548437354902,-0.174316,-0.963928,0.287170,0.609756,-0.731707,0.304878
1548437354917,-0.169861,-0.960083,0.288818,0.609756,-0.792683,0.365854
1548437354924,-0.169739,-0.961609,0.286194,0.731707,-0.731707,0.243902
1548437354932,-0.170044,-0.966064,0.286987,0.731707,-0.792683,0.121951
1548437354947,-0.172302,-0.969299,0.288513,0.914634,-0.609756,0.121951
1548437354954,-0.171204,-0.970032,0.288818,0.853659,-0.670732,-0.121951
1548437354962,-0.169067,-0.971924,0.289612,0.792683,-0.792683,-0.182927
1548437354977,-0.170166,-0.973022,0.290344,0.670732,-0.731707,-0.182927
1548437354984,-0.171692,-0.971619,0.292358,0.426829,-0.853659,-0.121951
1548437354992,-0.171204,-0.970398,0.292542,0.426829,-0.792683,-0.060976
1548437355008,-0.172241,-0.970276,0.293030,0.365854,-0.670732,0.060976
1548437355014,-0.172485,-0.968567,0.290222,0.304878,-0.670732,0.121951
1548437355022,-0.171875,-0.966980,0.292664,0.243902,-0.609756,0.243902
1548437355037,-0.170044,-0.966248,0.288391,0.182927,-0.609756,0.304878
1548437355044,-0.168457,-0.964111,0.285645,0.121951,-0.731707,0.426829
1548437355052,-0.168152,-0.964294,0.283630,0.243902,-0.670732,0.426829
1548437355067,-0.168579,-0.965271,0.283325,0.243902,-0.548781,0.426829
1548437355074,-0.170288,-0.965027,0.283630,0.365854,-0.609756,0.304878
1548437355082,-0.169617,-0.966675,0.285889,0.487805,-0.609756,0.243902
1548437355098,-0.169434,-0.967041,0.288452,0.426829,-0.670732,0.182927
1548437355105,-0.170593,-0.967773,0.287048,0.426829,-0.609756,0.060976
1548437355113,-0.171204,-0.966553,0.288635,0.365854,-0.670732,0.000000
1548437355128,-0.172302,-0.968384,0.288513,0.243902,-0.731707,0.000000
1548437355135,-0.173035,-0.969666,0.289856,0.243902,-0.853659,0.060976
1548437355143,-0.172546,-0.968018,0.288391,0.121951,-0.853659,0.060976
1548437355158,-0.171631,-0.969727,0.288818,0.243902,-0.853659,0.182927
1548437355165,-0.169617,-0.971008,0.287292,0.304878,-0.853659,0.243902
1548437355173,-0.171997,-0.967346,0.287903,0.243902,-0.792683,0.243902
1548437355188,-0.174988,-0.964783,0.290039,0.365854,-0.731707,0.243902
1548437355195,-0.171997,-0.965942,0.287842,0.304878,-0.731707,0.243902
1548437355203,-0.172729,-0.964233,0.286560,0.365854,-0.609756,0.243902
1548437355218,-0.173706,-0.962463,0.288452,0.365854,-0.670732,0.243902
1548437355226,-0.170654,-0.962952,0.288940,0.426829,-0.609756,0.182927
1548437355233,-0.172119,-0.964111,0.287964,0.487805,-0.670732,0.121951
1548437355247,-0.172180,-0.966553,0.287659,0.487805,-0.731707,0.060976
1548437355255,-0.172546,-0.968872,0.287659,0.365854,-0.731707,0.000000
1548437355262,-0.171692,-0.969360,0.287720,0.426829,-0.670732,0.000000
1548437355277,-0.170837,-0.966980,0.288086,0.365854,-0.670732,-0.060976
1548437355285,-0.169373,-0.965759,0.291504,0.365854,-0.731707,0.000000
1548437355292,-0.169373,-0.967163,0.290283,0.426829,-0.792683,0.000000
1548437355307,-0.170105,-0.968384,0.286194,0.487805,-0.731707,0.182927
1548437355323,-0.168030,-0.965576,0.285034,0.548781,-0.670732,0.182927
1548437355324,-0.168762,-0.965576,0.284973,0.548781,-0.670732,0.182927
1548437355338,-0.170837,-0.964478,0.285217,0.487805,-0.792683,0.243902
1548437355345,-0.170776,-0.963562,0.286011,0.426829,-0.792683,0.121951
1548437355352,-0.170898,-0.964905,0.287048,0.487805,-0.792683,0.182927
1548437355367,-0.172546,-0.964600,0.289978,0.487805,-0.853659,0.243902
1548437355375,-0.173767,-0.968445,0.289490,0.487805,-0.853659,0.000000
1548437355382,-0.172302,-0.969238,0.288818,0.487805,-0.792683,0.000000
1548437355398,-0.170410,-0.968018,0.292603,0.365854,-0.853659,0.000000
1548437355405,-0.172058,-0.968018,0.292419,0.304878,-0.914634,0.000000
1548437355412,-0.172852,-0.967529,0.292480,0.365854,-0.792683,0.000000
1548437355428,-0.171570,-0.968262,0.293457,0.304878,-0.853659,0.121951
1548437355435,-0.170532,-0.968567,0.291504,0.304878,-0.731707,0.121951
1548437355443,-0.171143,-0.968262,0.291321,0.365854,-0.731707,0.121951
1548437355458,-0.171448,-0.968384,0.288330,0.243902,-0.670732,0.121951
1548437355465,-0.171143,-0.968018,0.289124,0.182927,-0.609756,0.243902
1548437355473,-0.172485,-0.966736,0.288940,0.243902,-0.548781,0.243902
1548437355502,-0.170349,-0.965881,0.283752,0.243902,-0.548781,0.243902
1548437355508,-0.169861,-0.964905,0.286743,0.182927,-0.609756,0.304878
1548437355509,-0.170105,-0.964661,0.286194,0.243902,-0.670732,0.365854
1548437355519,-0.169678,-0.964355,0.287781,0.243902,-0.670732,0.304878
1548437355527,-0.168701,-0.963074,0.287415,0.182927,-0.792683,0.182927
1548437355536,-0.170227,-0.965515,0.289307,0.304878,-0.670732,0.243902
1548437355548,-0.169678,-0.970337,0.288818,0.365854,-0.670732,0.182927
1548437355556,-0.171570,-0.966614,0.288513,0.304878,-0.731707,0.182927
1548437355562,-0.171875,-0.966919,0.289490,0.304878,-0.731707,0.304878
1548437355583,-0.171814,-0.965637,0.289612,0.304878,-0.670732,0.304878
1548437355595,-0.169495,-0.965149,0.288757,0.365854,-0.670732,0.304878
1548437355595,-0.170044,-0.964417,0.289185,0.365854,-0.670732,0.304878
1548437355611,-0.169678,-0.964783,0.288513,0.426829,-0.609756,0.304878
1548437355614,-0.171997,-0.965149,0.288940,0.365854,-0.731707,0.304878
1548437355634,-0.172241,-0.965271,0.288208,0.487805,-0.792683,0.243902
1548437355637,-0.171692,-0.966370,0.287720,0.426829,-0.731707,0.182927
1548437355646,-0.171509,-0.966858,0.288940,0.365854,-0.731707,0.182927
1548437355652,-0.173706,-0.965820,0.288269,0.426829,-0.731707,0.243902
1548437355667,-0.173340,-0.967773,0.290466,0.365854,-0.731707,0.121951
1548437355674,-0.172852,-0.969788,0.289001,0.426829,-0.792683,0.060976
1548437355682,-0.172058,-0.969482,0.290283,0.426829,-0.731707,0.182927
1548437355699,-0.172607,-0.966919,0.288147,0.365854,-0.670732,0.182927
1548437355707,-0.171753,-0.966309,0.286804,0.426829,-0.670732,0.182927
1548437355712,-0.172729,-0.968140,0.287354,0.426829,-0.670732,0.365854
1548437355731,-0.170837,-0.965088,0.289368,0.365854,-0.670732,0.365854
1548437355735,-0.171875,-0.966187,0.290955,0.487805,-0.731707,0.243902
1548437355742,-0.171570,-0.966797,0.288269,0.487805,-0.670732,0.243902
1548437355757,-0.169312,-0.965820,0.288879,0.548781,-0.670732,0.304878
1548437355765,-0.169617,-0.966003,0.291321,0.365854,-0.670732,0.243902
1548437355772,-0.169312,-0.966492,0.286560,0.365854,-0.731707,0.243902
1548437355787,-0.168762,-0.966675,0.288208,0.365854,-0.670732,0.182927
1548437355795,-0.168457,-0.968445,0.290894,0.426829,-0.670732,0.121951
1548437355802,-0.170532,-0.968567,0.288208,0.365854,-0.670732,0.182927
1548437355817,-0.172424,-0.968506,0.288147,0.365854,-0.609756,0.182927
1548437355825,-0.172668,-0.968201,0.289612,0.304878,-0.731707,0.243902
1548437355839,-0.172913,-0.967163,0.287842,0.426829,-0.731707,0.243902
1548437355847,-0.172363,-0.967163,0.290344,0.365854,-0.670732,0.304878
1548437355855,-0.172729,-0.966064,0.288574,0.182927,-0.670732,0.243902
1548437355862,-0.172729,-0.965393,0.290039,0.243902,-0.670732,0.304878
1548437355877,-0.171570,-0.967102,0.289551,0.426829,-0.609756,0.304878
1548437355885,-0.171082,-0.967651,0.288147,0.426829,-0.670732,0.304878
1548437355892,-0.173523,-0.967346,0.289429,0.365854,-0.670732,0.243902
1548437355908,-0.171814,-0.966614,0.290405,0.304878,-0.670732,0.182927
1548437355915,-0.171021,-0.966064,0.290283,0.243902,-0.670732,0.182927
1548437355922,-0.171204,-0.966919,0.291138,0.243902,-0.731707,0.182927
1548437355937,-0.170593,-0.964783,0.290283,0.182927,-0.609756,0.121951
1548437355945,-0.171204,-0.965881,0.289795,0.304878,-0.670732,0.060976
1548437355953,-0.170410,-0.965332,0.288940,0.365854,-0.670732,0.060976
1548437355967,-0.170654,-0.964172,0.288757,0.365854,-0.731707,0.060976
1548437355982,-0.174133,-0.963684,0.287109,0.426829,-0.792683,0.121951
1548437355983,-0.171082,-0.963745,0.283386,0.426829,-0.731707,0.182927
1548437356012,-0.170654,-0.964844,0.285828,0.426829,-0.731707,0.182927
1548437356013,-0.171204,-0.965454,0.287170,0.487805,-0.731707,0.121951
1548437356013,-0.170471,-0.966919,0.290405,0.548781,-0.731707,0.121951
1548437356027,-0.170715,-0.969238,0.290100,0.487805,-0.670732,0.060976
1548437356035,-0.171082,-0.968567,0.291016,0.487805,-0.548781,0.060976
1548437356042,-0.171143,-0.968445,0.289856,0.426829,-0.670732,0.000000
1548437356065,-0.169373,-0.967407,0.290405,0.365854,-0.792683,0.060976
1548437356065,-0.169495,-0.967224,0.291138,0.365854,-0.731707,0.000000
1548437356073,-0.170105,-0.965637,0.288940,0.243902,-0.731707,0.060976
1548437356088,-0.170715,-0.965027,0.290283,0.243902,-0.792683,0.060976
1548437356095,-0.169312,-0.966125,0.291504,0.243902,-0.792683,0.121951
1548437356102,-0.170837,-0.965637,0.291199,0.243902,-0.792683,0.182927
1548437356117,-0.171326,-0.963867,0.287720,0.304878,-0.792683,0.243902
1548437356127,-0.169128,-0.965393,0.288452,0.304878,-0.853659,0.182927
1548437356132,-0.172241,-0.965698,0.287476,0.243902,-0.792683,0.243902
1548437356155,-0.172363,-0.966003,0.289246,0.304878,-0.731707,0.304878
1548437356155,-0.172607,-0.964661,0.287415,0.182927,-0.731707,0.304878
1548437356163,-0.172302,-0.966309,0.287659,0.182927,-0.731707,0.304878
1548437356178,-0.171814,-0.966980,0.288940,0.182927,-0.670732,0.182927
1548437356185,-0.171753,-0.963928,0.289795,0.304878,-0.731707,0.121951
1548437356192,-0.172302,-0.966064,0.289490,0.365854,-0.731707,0.121951
1548437356208,-0.173889,-0.965881,0.287048,0.304878,-0.609756,0.243902
1548437356215,-0.173218,-0.965149,0.289734,0.304878,-0.670732,0.243902
1548437356223,-0.172485,-0.963135,0.290710,0.304878,-0.609756,0.304878
1548437356238,-0.171875,-0.963806,0.287109,0.304878,-0.670732,0.304878
1548437356245,-0.170654,-0.963318,0.287109,0.304878,-0.609756,0.243902
1548437356252,-0.170227,-0.963623,0.288391,0.365854,-0.548781,0.243902
1548437356268,-0.169617,-0.964722,0.288086,0.487805,-0.548781,0.304878
1548437356275,-0.169739,-0.964050,0.287964,0.548781,-0.609756,0.304878
1548437356282,-0.169006,-0.966187,0.288879,0.548781,-0.609756,0.182927
1548437356299,-0.169617,-0.965393,0.290222,0.487805,-0.670732,0.121951
1548437356305,-0.170044,-0.965881,0.289062,0.487805,-0.731707,0.121951
1548437356313,-0.169495,-0.967529,0.288635,0.365854,-0.731707,0.121951
1548437356328,-0.171509,-0.966553,0.288696,0.304878,-0.792683,0.060976
1548437356335,-0.170593,-0.967102,0.290527,0.365854,-0.792683,0.060976
1548437356342,-0.170166,-0.965942,0.289978,0.304878,-0.731707,0.121951
1548437356358,-0.172058,-0.965210,0.290894,0.243902,-0.853659,0.182927
1548437356365,-0.171936,-0.965515,0.287170,0.304878,-0.853659,0.243902
1548437356373,-0.171204,-0.964539,0.288086,0.243902,-0.792683,0.304878
1548437356388,-0.171021,-0.964844,0.289490,0.243902,-0.731707,0.365854
1548437356395,-0.171753,-0.964783,0.287964,0.304878,-0.731707,0.243902
1548437356402,-0.171265,-0.964966,0.289612,0.365854,-0.670732,0.243902
1548437356418,-0.172913,-0.963684,0.288696,0.365854,-0.670732,0.243902
1548437356425,-0.172913,-0.964478,0.286987,0.365854,-0.731707,0.304878
1548437356433,-0.171875,-0.964050,0.284363,0.304878,-0.731707,0.243902
1548437356448,-0.171021,-0.964905,0.288208,0.365854,-0.792683,0.182927
1548437356455,-0.171509,-0.964783,0.289612,0.365854,-0.731707,0.182927
1548437356464,-0.172119,-0.964417,0.290283,0.304878,-0.609756,0.060976
1548437356479,-0.173889,-0.966431,0.290161,0.304878,-0.609756,0.121951
1548437356485,-0.172668,-0.966614,0.288574,0.243902,-0.792683,0.121951
1548437356493,-0.171997,-0.967102,0.289368,0.365854,-0.731707,0.182927
1548437356508,-0.171143,-0.965027,0.291504,0.365854,-0.670732,0.121951
1548437356515,-0.170532,-0.964294,0.290222,0.365854,-0.670732,0.182927
1548437356529,-0.171631,-0.966064,0.291382,0.304878,-0.731707,0.243902
1548437356537,-0.169556,-0.964355,0.290344,0.365854,-0.670732,0.304878
1548437356544,-0.168213,-0.962402,0.290405,0.426829,-0.670732,0.304878
1548437356556,-0.169189,-0.966187,0.289429,0.365854,-0.670732,0.243902
1548437356577,-0.169189,-0.965820,0.288391,0.365854,-0.609756,0.304878
1548437356578,-0.169617,-0.966309,0.287415,0.365854,-0.731707,0.243902
1548437356596,-0.170715,-0.965698,0.290222,0.304878,-0.792683,0.182927
1548437356601,-0.172913,-0.963806,0.287537,0.304878,-0.792683,0.182927
1548437356605,-0.172607,-0.963074,0.289246,0.182927,-0.731707,0.243902
1548437356622,-0.170837,-0.964172,0.288452,0.304878,-0.670732,0.182927
1548437356627,-0.171143,-0.962463,0.285767,0.365854,-0.731707,0.121951
1548437356635,-0.171692,-0.962646,0.287415,0.487805,-0.731707,0.121951
1548437356650,-0.171997,-0.959839,0.287109,0.609756,-0.792683,0.060976
1548437356659,-0.171326,-0.961304,0.285034,0.548781,-0.792683,0.060976
1548437356666,-0.170654,-0.963684,0.288025,0.670732,-0.731707,0.000000
1548437356672,-0.170715,-0.967529,0.289490,0.609756,-0.731707,-0.060976
1548437356691,-0.170959,-0.967834,0.290466,0.670732,-0.853659,-0.121951
1548437356703,-0.171875,-0.970886,0.291443,0.670732,-0.792683,-0.121951
1548437356706,-0.173340,-0.971680,0.292480,0.609756,-0.731707,-0.121951
1548437356717,-0.171021,-0.972107,0.294556,0.365854,-0.792683,-0.121951
1548437356728,-0.171204,-0.970459,0.293518,0.426829,-0.731707,0.000000
1548437356735,-0.170593,-0.970154,0.292664,0.365854,-0.731707,0.121951
1548437356749,-0.170349,-0.969727,0.293457,0.121951,-0.670732,0.243902
1548437356755,-0.169067,-0.965698,0.290283,0.182927,-0.731707,0.243902
1548437356762,-0.169617,-0.964050,0.290466,0.121951,-0.731707,0.365854
1548437356777,-0.169373,-0.964172,0.290039,0.182927,-0.731707,0.304878
1548437356784,-0.170715,-0.962280,0.284851,0.121951,-0.792683,0.426829
1548437356792,-0.171692,-0.961609,0.286194,0.182927,-0.670732,0.365854
1548437356807,-0.168884,-0.962524,0.284363,0.182927,-0.792683,0.243902
1548437356814,-0.170654,-0.961792,0.287109,0.243902,-0.792683,0.243902
1548437356822,-0.170898,-0.962219,0.285461,0.304878,-0.792683,0.182927
1548437356837,-0.169617,-0.962097,0.288696,0.304878,-0.731707,0.121951
1548437356844,-0.172180,-0.962402,0.290161,0.365854,-0.731707,0.182927
1548437356852,-0.172241,-0.965820,0.288940,0.426829,-0.792683,0.060976
1548437356867,-0.171021,-0.967102,0.289246,0.487805,-0.792683,0.060976
1548437356874,-0.171204,-0.966553,0.288025,0.487805,-0.670732,0.060976
1548437356882,-0.170471,-0.965698,0.288818,0.426829,-0.670732,0.182927
1548437356897,-0.171204,-0.964539,0.290466,0.304878,-0.609756,0.243902
1548437356905,-0.171143,-0.964355,0.291199,0.487805,-0.670732,0.243902
1548437356912,-0.171570,-0.964722,0.290405,0.548781,-0.792683,0.243902
1548437356928,-0.170349,-0.964905,0.290039,0.548781,-0.731707,0.182927
1548437356935,-0.168762,-0.964111,0.287659,0.548781,-0.609756,0.182927
1548437356943,-0.170471,-0.964783,0.287598,0.548781,-0.731707,0.121951
1548437356957,-0.169434,-0.966736,0.291687,0.548781,-0.792683,0.121951
1548437356965,-0.171143,-0.966797,0.291931,0.487805,-0.731707,0.060976
1548437356973,-0.172180,-0.968079,0.290405,0.365854,-0.731707,0.060976
1548437356989,-0.171326,-0.967590,0.292480,0.426829,-0.731707,0.060976
1548437356995,-0.169373,-0.969788,0.291382,0.487805,-0.792683,0.121951
1548437357003,-0.171570,-0.970093,0.290588,0.365854,-0.792683,0.182927
1548437357017,-0.170349,-0.969604,0.289185,0.304878,-0.731707,0.182927
1548437357026,-0.170410,-0.968506,0.290833,0.304878,-0.609756,0.243902
1548437357032,-0.170105,-0.966797,0.288940,0.304878,-0.731707,0.182927
1548437357055,-0.170898,-0.967224,0.290771,0.426829,-0.792683,0.182927
1548437357063,-0.170044,-0.965515,0.290833,0.304878,-0.670732,0.304878
1548437357064,-0.172119,-0.964844,0.289368,0.182927,-0.609756,0.243902
1548437357078,-0.169312,-0.963867,0.289612,0.182927,-0.792683,0.182927
1548437357085,-0.171204,-0.963257,0.288574,0.304878,-0.792683,0.304878
1548437357093,-0.171448,-0.962646,0.288818,0.304878,-0.731707,0.182927
1548437357108,-0.171082,-0.965332,0.288025,0.365854,-0.731707,0.182927
1548437357123,-0.171021,-0.966309,0.288818,0.304878,-0.670732,0.182927
1548437357123,-0.168762,-0.964966,0.288330,0.426829,-0.731707,0.182927
1548437357138,-0.171509,-0.966736,0.287720,0.426829,-0.731707,0.121951
1548437357146,-0.171082,-0.968628,0.289978,0.426829,-0.731707,0.182927
1548437357153,-0.171875,-0.967712,0.288940,0.426829,-0.670732,0.182927
1548437357168,-0.170654,-0.967834,0.290283,0.426829,-0.731707,0.060976
1548437357175,-0.170532,-0.968262,0.291443,0.487805,-0.731707,0.121951
1548437357183,-0.172180,-0.967102,0.290039,0.426829,-0.670732,0.182927
1548437357198,-0.168884,-0.967529,0.290344,0.304878,-0.670732,0.243902
1548437357205,-0.170959,-0.966553,0.289307,0.365854,-0.731707,0.182927
1548437357212,-0.169312,-0.968506,0.291077,0.426829,-0.792683,0.243902
1548437357227,-0.170349,-0.967468,0.292297,0.365854,-0.853659,0.304878
1548437357236,-0.170532,-0.968750,0.290039,0.365854,-0.731707,0.182927
1548437357243,-0.170410,-0.967651,0.287720,0.304878,-0.609756,0.304878
1548437357265,-0.170044,-0.967712,0.290161,0.243902,-0.731707,0.243902
1548437357266,-0.170166,-0.965576,0.290222,0.243902,-0.670732,0.243902
1548437357273,-0.170776,-0.964294,0.288818,0.182927,-0.731707,0.243902
1548437357288,-0.170410,-0.964722,0.286743,0.304878,-0.670732,0.243902
1548437357295,-0.171692,-0.965088,0.288269,0.365854,-0.731707,0.243902
1548437357303,-0.172974,-0.966980,0.286987,0.487805,-0.609756,0.121951
1548437357317,-0.171997,-0.962830,0.284729,0.487805,-0.670732,0.060976
1548437357326,-0.168884,-0.961670,0.285828,0.487805,-0.731707,0.182927
1548437357332,-0.170837,-0.964783,0.288025,0.426829,-0.792683,0.060976
1548437357348,-0.170166,-0.967102,0.287903,0.487805,-0.731707,-0.060976
1548437357355,-0.172241,-0.968567,0.288818,0.548781,-0.731707,-0.121951
1548437357363,-0.170349,-0.969482,0.291382,0.609756,-0.731707,-0.060976
1548437357378,-0.171143,-0.969971,0.290100,0.548781,-0.792683,0.000000
1548437357385,-0.171692,-0.969971,0.291077,0.426829,-0.853659,-0.060976
1548437357392,-0.170227,-0.969299,0.293823,0.426829,-0.792683,0.000000
1548437357408,-0.170471,-0.970459,0.293823,0.365854,-0.792683,0.121951
1548437357416,-0.169678,-0.969727,0.293335,0.304878,-0.792683,0.182927
1548437357423,-0.171448,-0.967346,0.291809,0.182927,-0.731707,0.182927
1548437357439,-0.169617,-0.968628,0.291748,0.243902,-0.670732,0.243902
1548437357445,-0.170410,-0.966614,0.290833,0.182927,-0.731707,0.365854
1548437357452,-0.171448,-0.964783,0.287842,0.182927,-0.670732,0.304878
1548437357469,-0.171082,-0.962891,0.289917,0.304878,-0.609756,0.365854
1548437357475,-0.170044,-0.965088,0.289612,0.182927,-0.853659,0.304878
1548437357482,-0.171936,-0.964172,0.290710,0.182927,-0.853659,0.243902
1548437357498,-0.171082,-0.963562,0.289124,0.243902,-0.731707,0.182927
1548437357505,-0.171021,-0.964600,0.289124,0.304878,-0.731707,0.182927
1548437357513,-0.171509,-0.966553,0.288757,0.243902,-0.792683,0.182927
1548437357529,-0.171997,-0.967590,0.289490,0.426829,-0.731707,0.182927
1548437357535,-0.172180,-0.966736,0.290222,0.365854,-0.792683,0.121951
1548437357543,-0.171143,-0.966309,0.289856,0.365854,-0.670732,0.121951
1548437357557,-0.173706,-0.965515,0.288940,0.304878,-0.731707,0.182927
1548437357565,-0.171814,-0.965881,0.289307,0.365854,-0.670732,0.243902
1548437357572,-0.171082,-0.964050,0.286682,0.426829,-0.670732,0.243902
1548437357587,-0.170837,-0.967224,0.288574,0.426829,-0.670732,0.121951
1548437357595,-0.169983,-0.968079,0.287354,0.426829,-0.609756,0.182927
1548437357602,-0.170227,-0.966125,0.287842,0.487805,-0.670732,0.182927
1548437357617,-0.166687,-0.968750,0.289612,0.548781,-0.670732,0.182927
1548437357625,-0.168640,-0.968079,0.290771,0.487805,-0.609756,0.121951
1548437357632,-0.169006,-0.966370,0.291931,0.487805,-0.792683,0.060976
1548437357647,-0.171753,-0.969055,0.293274,0.426829,-0.792683,0.000000
1548437357656,-0.172241,-0.968994,0.291565,0.426829,-0.792683,0.060976
1548437357663,-0.171570,-0.970032,0.291504,0.487805,-0.731707,0.121951
1548437357678,-0.169861,-0.967834,0.292542,0.304878,-0.670732,0.182927
1548437357685,-0.170776,-0.967468,0.290771,0.304878,-0.731707,0.243902
1548437357693,-0.170227,-0.967102,0.287659,0.304878,-0.853659,0.243902
1548437357708,-0.169312,-0.966980,0.290039,0.182927,-0.731707,0.243902
1548437357715,-0.170654,-0.966003,0.288513,0.182927,-0.731707,0.243902
1548437357723,-0.170227,-0.964966,0.290710,0.304878,-0.792683,0.304878
1548437357738,-0.172119,-0.966492,0.288513,0.304878,-0.792683,0.304878
1548437357753,-0.170959,-0.965637,0.289795,0.243902,-0.731707,0.243902
1548437357753,-0.171265,-0.965576,0.289368,0.243902,-0.731707,0.243902
1548437357768,-0.170227,-0.964966,0.290771,0.243902,-0.670732,0.304878
1548437357775,-0.171570,-0.966309,0.290649,0.304878,-0.731707,0.182927
1548437357783,-0.170959,-0.965881,0.289734,0.304878,-0.731707,0.243902
1548437357798,-0.172485,-0.966370,0.290039,0.304878,-0.670732,0.182927
1548437357805,-0.171204,-0.966003,0.287964,0.365854,-0.670732,0.182927
1548437357820,-0.169983,-0.965088,0.289062,0.426829,-0.731707,0.182927
1548437357828,-0.170959,-0.966431,0.290527,0.426829,-0.731707,0.060976
1548437357836,-0.169678,-0.965820,0.289856,0.304878,-0.731707,0.182927
1548437357844,-0.169434,-0.967773,0.287964,0.365854,-0.609756,0.243902
1548437357857,-0.172119,-0.966309,0.291687,0.365854,-0.609756,0.182927
1548437357865,-0.170593,-0.968506,0.289917,0.365854,-0.609756,0.304878
1548437357872,-0.166199,-0.966309,0.290649,0.365854,-0.609756,0.243902
1548437357887,-0.169006,-0.968323,0.291016,0.426829,-0.670732,0.121951
1548437357895,-0.170349,-0.967468,0.290222,0.304878,-0.731707,0.243902
1548437357902,-0.170898,-0.968445,0.289734,0.365854,-0.792683,0.121951
1548437357917,-0.169128,-0.966125,0.290833,0.243902,-0.792683,0.182927
1548437357925,-0.170471,-0.966553,0.287659,0.121951,-0.853659,0.243902
1548437357934,-0.170288,-0.968933,0.287720,0.304878,-0.914634,0.243902
1548437357947,-0.170776,-0.970215,0.291748,0.365854,-0.792683,0.182927
1548437357955,-0.170715,-0.969482,0.290466,0.243902,-0.853659,0.182927
1548437357963,-0.171692,-0.966553,0.289856,0.121951,-0.914634,0.304878
1548437357978,-0.170227,-0.963928,0.291626,0.121951,-0.853659,0.426829
1548437357994,-0.174011,-0.963623,0.294067,0.121951,-0.792683,0.426829
1548437357995,-0.177612,-0.965759,0.296570,0.182927,-0.792683,0.487805
1548437358008,-0.178345,-0.966980,0.297180,0.182927,-0.487805,0.487805
1548437358016,-0.181580,-0.966736,0.296631,0.182927,-0.243902,0.487805
1548437358027,-0.182678,-0.968262,0.295532,0.182927,-0.121951,0.487805
1548437358037,-0.181763,-0.969421,0.294312,0.182927,-0.060976,0.487805
1548437358045,-0.177979,-0.968445,0.290649,0.243902,-0.121951,0.487805
1548437358053,-0.176392,-0.968506,0.288513,0.365854,-0.182927,0.426829
1548437358072,-0.172058,-0.970520,0.281433,0.365854,-0.182927,0.304878
1548437358079,-0.166443,-0.970093,0.277222,0.243902,-0.304878,0.304878
1548437358092,-0.161987,-0.968811,0.275391,-0.121951,-0.487805,0.426829
1548437358103,-0.160278,-0.966064,0.276123,-0.304878,-0.548781,0.487805
1548437358111,-0.157898,-0.964172,0.277344,-0.426829,-0.670732,0.426829
1548437358114,-0.156738,-0.961487,0.280884,-0.487805,-0.731707,0.487805
1548437358127,-0.158936,-0.956055,0.285461,-0.243902,-0.792683,0.548781
1548437358134,-0.160645,-0.955505,0.284851,-0.060976,-0.792683,0.548781
1548437358142,-0.164124,-0.954773,0.287476,0.365854,-0.853659,0.609756
1548437358157,-0.166321,-0.954102,0.288940,0.853659,-1.097561,0.426829
1548437358165,-0.165527,-0.955383,0.289978,1.097561,-1.158537,0.304878
1548437358172,-0.169373,-0.956543,0.292175,1.158537,-1.219512,0.121951
1548437358202,-0.175598,-0.960938,0.293945,1.097561,-1.280488,-0.182927
1548437358207,-0.177673,-0.966736,0.293945,0.914634,-1.341463,-0.426829
1548437358214,-0.178528,-0.971863,0.293701,0.914634,-1.341463,-0.548781
1548437358220,-0.179199,-0.974609,0.297424,0.975610,-1.341463,-0.609756
1548437358227,-0.182312,-0.976990,0.298645,0.975610,-1.280488,-0.609756
1548437358232,-0.183289,-0.981628,0.296814,0.914634,-1.097561,-0.426829
1548437358247,-0.185364,-0.984070,0.294434,0.914634,-0.853659,-0.304878
1548437358254,-0.184692,-0.981812,0.291809,0.670732,-0.731707,0.060976
1548437358262,-0.180847,-0.975769,0.289429,0.243902,-0.670732,0.182927
1548437358277,-0.177551,-0.969788,0.288147,0.000000,-0.426829,0.487805
1548437358284,-0.174255,-0.960815,0.287476,-0.121951,-0.304878,0.731707
1548437358292,-0.169312,-0.954346,0.288025,-0.121951,-0.243902,0.853659
1548437358307,-0.168335,-0.951172,0.285706,0.060976,-0.182927,0.853659
1548437358314,-0.167969,-0.947327,0.283691,0.426829,-0.243902,0.731707
1548437358322,-0.167480,-0.946472,0.284302,0.670732,-0.182927,0.426829
1548437358337,-0.166931,-0.947388,0.281311,0.853659,-0.365854,0.121951
1548437358344,-0.167908,-0.948914,0.283569,1.036585,-0.548781,-0.243902
1548437358352,-0.166870,-0.953369,0.283203,1.402439,-0.670732,-0.670732
1548437358368,-0.165466,-0.956604,0.286804,1.646341,-0.914634,-1.219512
1548437358376,-0.165588,-0.968079,0.295227,1.585366,-0.914634,-1.463415
1548437358383,-0.169312,-0.977539,0.299377,1.524390,-0.853659,-1.524390
1548437358398,-0.172852,-0.987915,0.304382,1.585366,-0.609756,-1.585366
1548437358405,-0.176819,-0.994873,0.305908,1.280488,-0.426829,-1.280488
1548437358413,-0.177429,-1.001343,0.310181,1.036585,-0.365854,-0.853659
1548437358428,-0.180359,-1.002441,0.313599,0.853659,-0.060976,-0.304878
1548437358435,-0.183655,-1.008362,0.319214,0.426829,0.182927,0.365854
1548437358443,-0.183533,-1.010742,0.316895,-0.182927,0.487805,1.097561
1548437358458,-0.183044,-0.998047,0.309204,-0.792683,0.914634,1.829268
1548437358466,-0.182007,-0.985352,0.299988,-1.036585,1.219512,2.621951
1548437358473,-0.178711,-0.976318,0.289124,-1.158537,1.402439,3.109756
1548437358488,-0.177002,-0.961548,0.281128,-1.341463,1.524390,3.536585
1548437358495,-0.172729,-0.943115,0.272278,-1.524390,1.463415,3.536585
1548437358503,-0.171875,-0.926147,0.268005,-1.707317,1.524390,3.109756
1548437358517,-0.176941,-0.917908,0.264709,-1.463415,1.463415,2.439024
1548437358525,-0.178589,-0.917114,0.265198,-0.609756,1.402439,1.707317
1548437358533,-0.180176,-0.914856,0.265015,-0.060976,1.219512,0.792683
1548437358548,-0.181946,-0.913574,0.268982,0.304878,0.975610,-0.060976
1548437358555,-0.180115,-0.915588,0.272034,0.731707,0.609756,-1.097561
1548437358562,-0.177246,-0.922546,0.272095,1.402439,0.365854,-1.951220
1548437358585,-0.173523,-0.935364,0.277466,2.134146,0.000000,-2.743902
1548437358586,-0.171997,-0.948120,0.282837,2.682927,-0.182927,-3.536585
1548437358593,-0.171326,-0.963745,0.285522,3.170732,-0.426829,-4.085366
1548437358609,-0.172974,-0.979553,0.290894,3.597561,-0.487805,-4.512195
1548437358615,-0.173462,-0.991760,0.294312,3.658537,-0.304878,-4.512195
1548437358622,-0.172607,-1.003357,0.304565,3.353659,-0.060976,-4.207317
1548437358637,-0.175293,-1.013977,0.318481,2.804878,0.304878,-3.536585
1548437358645,-0.179749,-1.023865,0.328003,2.256098,0.731707,-2.743902
1548437358652,-0.180847,-1.031433,0.333435,1.646341,1.158537,-1.890244
1548437358667,-0.182983,-1.039124,0.337830,0.792683,1.585366,-0.731707
1548437358675,-0.184143,-1.035645,0.340088,-0.182927,2.012195,0.609756
1548437358682,-0.183411,-1.024963,0.336426,-1.280488,2.439024,1.768293
1548437358698,-0.183472,-1.007446,0.325317,-2.317073,2.804878,2.804878
1548437358705,-0.183960,-0.984375,0.308411,-3.170732,3.231707,3.780488
1548437358713,-0.180786,-0.960266,0.294434,-3.597561,3.475610,4.329268
1548437358729,-0.178040,-0.944946,0.282288,-3.780488,3.597561,4.451220
1548437358736,-0.176697,-0.928650,0.271362,-3.536585,3.780488,4.207317
1548437358742,-0.178650,-0.912537,0.258484,-3.170732,3.902439,3.719512
1548437358757,-0.177551,-0.900879,0.247192,-2.621951,3.902439,2.865854
1548437358765,-0.180115,-0.895813,0.242798,-1.890244,3.780488,1.951220
1548437358772,-0.180237,-0.891724,0.241882,-0.853659,3.536585,0.853659
1548437358787,-0.176758,-0.892700,0.244202,0.121951,3.170732,-0.304878
1548437358795,-0.176453,-0.896484,0.247314,1.158537,2.743902,-1.646341
1548437358802,-0.176086,-0.906860,0.250610,2.256098,2.500000,-2.926829
1548437358818,-0.174072,-0.921265,0.257935,3.109756,2.134146,-4.024390
1548437358825,-0.173950,-0.937866,0.268921,3.963415,1.768293,-5.182927
1548437358833,-0.171875,-0.953308,0.276794,4.634146,1.585366,-5.975610
1548437358848,-0.170776,-0.971619,0.289368,5.000000,1.524390,-6.402439
1548437358855,-0.172119,-0.985474,0.298462,4.878049,1.524390,-6.463415
1548437358862,-0.173035,-0.999512,0.312805,4.573171,1.646341,-6.402439
1548437358879,-0.173096,-1.015686,0.325439,4.451220,1.829268,-5.914634
1548437358885,-0.169861,-1.028931,0.332458,4.268293,2.195122,-5.182927
1548437358892,-0.169739,-1.039734,0.338867,3.597561,2.439024,-4.207317
1548437358908,-0.172974,-1.048706,0.343994,2.682927,2.804878,-3.048780
1548437358915,-0.171631,-1.053162,0.346130,1.524390,3.109756,-1.707317
1548437358924,-0.172791,-1.051819,0.343567,0.060976,3.536585,-0.243902
1548437358939,-0.171021,-1.043030,0.337097,-1.524390,4.024390,1.402439
1548437358945,-0.172974,-1.024841,0.325317,-2.926829,4.329268,2.804878
1548437358953,-0.171997,-0.998779,0.309692,-4.085366,4.451220,4.024390
1548437358968,-0.165100,-0.970520,0.292480,-4.878049,4.512195,4.756098
1548437358975,-0.161865,-0.950928,0.280090,-5.060976,4.451220,5.000000
1548437358983,-0.159302,-0.933960,0.262329,-4.634146,4.390244,4.939024
1548437358998,-0.158203,-0.913635,0.248535,-4.085366,4.268293,4.451220
1548437359005,-0.158081,-0.898010,0.238098,-3.353659,4.085366,3.841464
1548437359013,-0.159363,-0.888794,0.233398,-2.804878,3.841464,3.048780
1548437359028,-0.160583,-0.884216,0.229309,-1.768293,3.475610,2.012195
1548437359037,-0.159302,-0.880249,0.226807,-0.548781,2.926829,0.853659
1548437359044,-0.159058,-0.886902,0.227966,0.853659,2.317073,-0.426829
1548437359057,-0.158081,-0.898193,0.231873,1.951220,1.646341,-1.829268
1548437359066,-0.156738,-0.910095,0.240051,3.231707,1.036585,-3.109756
1548437359073,-0.155518,-0.926819,0.251587,4.268293,0.426829,-4.329268
1548437359107,-0.156616,-0.948059,0.265991,5.000000,-0.121951,-5.426829
1548437359107,-0.159058,-0.969543,0.279907,5.548780,-0.426829,-6.219512
1548437359107,-0.160095,-0.985413,0.288940,5.670732,-0.487805,-6.463415
1548437359119,-0.158508,-0.998291,0.303772,5.609756,-0.731707,-6.402439
1548437359126,-0.159790,-1.017456,0.319763,5.426829,-0.853659,-6.036585
1548437359132,-0.158813,-1.037292,0.333191,5.060976,-0.914634,-5.243903
1548437359148,-0.159424,-1.052002,0.340393,4.451220,-1.036585,-4.268293
1548437359154,-0.156067,-1.062927,0.348999,3.170732,-0.914634,-2.987805
1548437359162,-0.156067,-1.065613,0.351257,1.585366,-0.792683,-1.402439
1548437359177,-0.155457,-1.062439,0.347961,-0.121951,-0.487805,0.426829
1548437359184,-0.157471,-1.048767,0.339417,-1.829268,-0.243902,2.317073
1548437359192,-0.159851,-1.026794,0.322144,-3.292683,-0.182927,4.024390
1548437359212,-0.160889,-0.996826,0.302246,-4.512195,-0.121951,5.304878
1548437359226,-0.162415,-0.971680,0.289612,-5.365854,-0.121951,6.158537
1548437359226,-0.160645,-0.951782,0.274841,-5.487805,-0.182927,6.402439
1548437359238,-0.160278,-0.925537,0.263367,-5.182927,-0.121951,6.280488
1548437359244,-0.160339,-0.898071,0.254578,-4.756098,-0.182927,5.975610
1548437359253,-0.163574,-0.882507,0.244751,-4.085366,-0.304878,5.304878
1548437359267,-0.168091,-0.873291,0.237549,-2.865854,-0.426829,4.390244
1548437359275,-0.170166,-0.872986,0.228760,-1.341463,-0.731707,3.231707
1548437359282,-0.172302,-0.874512,0.224976,0.304878,-1.158537,1.768293
1548437359297,-0.173096,-0.882935,0.224609,1.707317,-1.707317,0.365854
1548437359304,-0.173828,-0.896729,0.229431,2.865854,-2.195122,-1.219512
1548437359312,-0.175476,-0.914795,0.241028,3.597561,-2.560976,-2.804878
1548437359327,-0.177368,-0.935730,0.256470,4.207317,-2.865854,-4.146341
1548437359334,-0.176880,-0.955383,0.271973,4.817073,-3.109756,-5.243903
1548437359342,-0.177673,-0.973877,0.291687,5.060976,-3.048780,-5.853659
1548437359357,-0.180725,-0.993958,0.307556,5.365854,-2.865854,-6.158537
1548437359364,-0.181335,-1.012756,0.323181,5.304878,-2.743902,-5.975610
1548437359372,-0.179260,-1.027832,0.335083,5.000000,-2.560976,-5.548780
1548437359387,-0.179626,-1.036194,0.343445,4.268293,-2.317073,-4.756098
1548437359395,-0.177551,-1.043152,0.347107,3.414634,-2.073171,-3.536585
1548437359402,-0.175659,-1.043213,0.347290,2.134146,-1.768293,-2.195122
1548437359418,-0.176575,-1.034119,0.345947,0.670732,-1.524390,-0.731707
1548437359426,-0.174377,-1.022705,0.338135,-0.548781,-1.097561,0.853659
1548437359433,-0.173462,-1.008606,0.329590,-1.707317,-0.609756,2.195122
1548437359448,-0.174133,-0.992432,0.318970,-2.560976,-0.182927,3.292683
1548437359455,-0.173401,-0.975708,0.304260,-2.926829,0.121951,3.963415
1548437359463,-0.172791,-0.963196,0.291016,-3.109756,0.365854,4.268293
1548437359477,-0.172852,-0.952576,0.282166,-3.170732,0.609756,4.390244
1548437359486,-0.171021,-0.941833,0.272461,-3.109756,0.670732,4.207317
1548437359493,-0.169067,-0.932861,0.265320,-2.987805,0.670732,3.841464
1548437359507,-0.170715,-0.926147,0.261108,-2.743902,0.609756,3.170732
1548437359515,-0.168823,-0.925598,0.256714,-2.317073,0.487805,2.500000
1548437359524,-0.166687,-0.925293,0.255432,-1.768293,0.365854,1.707317
1548437359537,-0.164124,-0.928345,0.254883,-1.158537,0.121951,1.036585
1548437359546,-0.166016,-0.931519,0.258545,-0.670732,-0.121951,0.487805
1548437359552,-0.164978,-0.936768,0.262329,-0.121951,-0.304878,-0.060976
1548437359568,-0.161133,-0.940552,0.267273,0.487805,-0.487805,-0.548781
1548437359575,-0.161133,-0.946594,0.273987,1.097561,-0.792683,-0.914634
1548437359583,-0.163452,-0.954102,0.282166,1.646341,-0.914634,-1.158537
1548437359598,-0.162109,-0.963196,0.284973,2.073171,-1.036585,-1.097561
1548437359605,-0.160767,-0.972961,0.287659,2.378049,-1.158537,-1.158537
1548437359613,-0.164062,-0.979431,0.293457,2.378049,-1.219512,-1.097561
1548437359627,-0.166626,-0.982483,0.296875,2.134146,-1.341463,-1.036585
1548437359635,-0.166504,-0.986694,0.298584,1.768293,-1.463415,-0.914634
1548437359643,-0.168335,-0.984558,0.300903,1.402439,-1.463415,-0.792683
1548437359658,-0.168640,-0.984314,0.303101,0.975610,-1.524390,-0.548781
1548437359665,-0.169189,-0.982727,0.302368,0.792683,-1.463415,-0.243902
1548437359673,-0.170471,-0.979370,0.302063,0.487805,-1.341463,-0.060976
1548437359688,-0.173401,-0.979065,0.301270,0.304878,-1.219512,0.182927
1548437359695,-0.174561,-0.975220,0.302490,0.121951,-1.158537,0.365854
1548437359704,-0.175171,-0.971802,0.300049,0.000000,-0.914634,0.670732
1548437359718,-0.175171,-0.969055,0.293884,-0.121951,-0.731707,0.853659
1548437359727,-0.176758,-0.963440,0.292847,-0.243902,-0.548781,0.975610
1548437359733,-0.177246,-0.961731,0.290161,-0.304878,-0.548781,1.036585
1548437359748,-0.176086,-0.960266,0.285095,-0.365854,-0.487805,1.097561
1548437359755,-0.175354,-0.958313,0.284790,-0.243902,-0.365854,0.975610
1548437359762,-0.176880,-0.957275,0.283081,-0.243902,-0.365854,0.792683
1548437359778,-0.175232,-0.956726,0.279053,-0.060976,-0.365854,0.670732
1548437359786,-0.171753,-0.958557,0.279968,0.060976,-0.304878,0.487805
1548437359793,-0.171448,-0.960266,0.282898,-0.060976,-0.487805,0.304878
1548437359807,-0.170288,-0.957214,0.281433,0.000000,-0.365854,0.121951
1548437359815,-0.169861,-0.958313,0.283325,0.121951,-0.548781,-0.060976
1548437359824,-0.170410,-0.957886,0.282349,0.243902,-0.609756,-0.243902
1548437359837,-0.167542,-0.964233,0.286011,0.548781,-0.609756,-0.182927
1548437359845,-0.167053,-0.965454,0.287842,0.609756,-0.670732,-0.243902
1548437359853,-0.165894,-0.967163,0.286682,0.609756,-0.853659,-0.304878
1548437359868,-0.165039,-0.968628,0.288574,0.487805,-0.792683,-0.243902
1548437359878,-0.166077,-0.967285,0.289856,0.548781,-0.853659,-0.182927
1548437359882,-0.167603,-0.968750,0.291382,0.548781,-1.036585,0.000000
1548437359898,-0.166260,-0.969116,0.290405,0.609756,-0.914634,0.060976
1548437359905,-0.166687,-0.968445,0.290344,0.609756,-0.914634,0.060976
1548437359912,-0.169373,-0.970093,0.291443,0.609756,-0.914634,0.060976
1548437359928,-0.170471,-0.969543,0.290222,0.548781,-0.914634,0.182927
1548437359935,-0.169312,-0.967224,0.290955,0.487805,-0.853659,0.304878
1548437359943,-0.169922,-0.967346,0.290955,0.304878,-0.853659,0.365854
1548437359958,-0.171021,-0.965332,0.288330,0.365854,-0.853659,0.426829
1548437359965,-0.170898,-0.964172,0.288025,0.365854,-0.914634,0.304878
1548437359973,-0.169556,-0.963806,0.285461,0.365854,-0.853659,0.304878
1548437359988,-0.173523,-0.963928,0.285583,0.426829,-0.792683,0.304878
1548437359995,-0.173401,-0.964172,0.282104,0.426829,-0.914634,0.304878
1548437360003,-0.171936,-0.963501,0.283630,0.426829,-0.853659,0.182927
1548437360017,-0.172363,-0.960876,0.284729,0.426829,-0.731707,0.243902
1548437360025,-0.175659,-0.963135,0.287292,0.609756,-0.853659,0.121951
1548437360033,-0.173584,-0.964966,0.288513,0.670732,-0.792683,0.243902
1548437360048,-0.171509,-0.968567,0.287842,0.853659,-0.670732,0.182927
1548437360055,-0.173340,-0.968384,0.291870,1.036585,-0.670732,0.182927
1548437360063,-0.174927,-0.970337,0.291687,0.975610,-0.548781,0.121951
1548437360078,-0.172485,-0.971802,0.295410,0.670732,-0.487805,0.304878
1548437360085,-0.172913,-0.973022,0.296997,0.609756,-0.426829,0.426829
1548437360093,-0.174438,-0.976929,0.300171,0.487805,-0.243902,0.609756
1548437360108,-0.173828,-0.975281,0.297058,0.243902,-0.060976,0.670732
1548437360115,-0.175293,-0.963501,0.291870,0.060976,-0.060976,0.731707
1548437360123,-0.172058,-0.966797,0.293396,-0.182927,-0.121951,0.853659
1548437360138,-0.170410,-0.971375,0.291321,0.000000,-0.182927,0.914634
1548437360145,-0.168579,-0.968628,0.290100,0.243902,-0.182927,0.914634
1548437360153,-0.167114,-0.971436,0.288513,-0.060976,-0.304878,0.853659
1548437360167,-0.163635,-0.970093,0.287415,-0.243902,-0.304878,0.975610
1548437360182,-0.165344,-0.969482,0.286987,-0.487805,-0.304878,1.036585
1548437360182,-0.163147,-0.968994,0.285461,-0.731707,-0.487805,1.097561
1548437360197,-0.165833,-0.965576,0.284119,-1.036585,-0.670732,1.158537
1548437360205,-0.165710,-0.962280,0.279846,-0.975610,-0.731707,1.097561
1548437360212,-0.166748,-0.956787,0.278931,-0.853659,-0.731707,1.036585
1548437360227,-0.168518,-0.950378,0.277039,-0.670732,-0.792683,0.914634
1548437360235,-0.170654,-0.941895,0.273621,-0.365854,-0.853659,0.792683
1548437360242,-0.169189,-0.937683,0.271667,0.000000,-0.914634,0.426829
1548437360257,-0.168335,-0.935547,0.271912,0.487805,-0.975610,0.304878
1548437360265,-0.168945,-0.937805,0.271851,1.097561,-1.036585,0.060976
1548437360273,-0.171509,-0.939392,0.275330,1.402439,-0.975610,-0.365854
1548437360288,-0.171387,-0.942566,0.277649,1.890244,-1.097561,-0.731707
1548437360295,-0.173401,-0.949097,0.280579,2.378049,-1.280488,-1.158537
1548437360303,-0.173035,-0.963379,0.287598,2.743902,-1.341463,-1.585366
1548437360318,-0.174805,-0.979309,0.296509,2.987805,-1.341463,-1.890244
1548437360325,-0.174866,-0.987305,0.304810,2.804878,-1.158537,-2.134146
1548437360333,-0.178101,-1.000549,0.310486,2.439024,-1.036585,-2.012195
1548437360348,-0.178223,-1.007629,0.312683,2.012195,-0.914634,-1.524390
1548437360356,-0.178772,-1.015869,0.315369,1.524390,-0.853659,-1.036585
1548437360363,-0.177734,-1.015564,0.318115,0.853659,-0.731707,-0.426829
1548437360378,-0.175537,-1.013123,0.318848,0.000000,-0.548781,0.304878
1548437360385,-0.174622,-1.006470,0.314758,-0.975610,-0.426829,1.097561
1548437360392,-0.170898,-0.992371,0.307495,-1.768293,-0.182927,1.829268
1548437360408,-0.166931,-0.975769,0.301453,-2.439024,-0.060976,2.500000
1548437360415,-0.167419,-0.958801,0.290771,-2.743902,0.060976,3.048780
1548437360425,-0.168152,-0.945862,0.281982,-2.682927,0.060976,3.353659
1548437360440,-0.168152,-0.933533,0.273010,-2.195122,0.000000,3.292683
1548437360445,-0.166626,-0.927246,0.264282,-1.707317,0.000000,2.987805
1548437360453,-0.168335,-0.919739,0.258789,-1.219512,-0.121951,2.621951
1548437360468,-0.170288,-0.915771,0.254517,-0.853659,-0.182927,1.951220
1548437360475,-0.169983,-0.914673,0.253662,-0.304878,-0.426829,1.219512
1548437360482,-0.171387,-0.918518,0.251831,0.487805,-0.670732,0.487805
1548437360497,-0.169922,-0.924438,0.255554,1.158537,-0.975610,-0.365854
1548437360506,-0.169922,-0.930420,0.262085,1.951220,-1.158537,-1.219512
1548437360513,-0.168274,-0.940186,0.265442,2.560976,-1.402439,-2.134146
1548437360529,-0.165466,-0.950684,0.274597,3.109756,-1.585366,-2.987805
1548437360546,-0.165222,-0.960388,0.284058,3.536585,-1.768293,-3.475610
1548437360546,-0.164795,-0.972046,0.294250,3.841464,-1.768293,-3.658537
1548437360557,-0.166565,-0.982544,0.299866,3.780488,-1.890244,-3.658537
1548437360565,-0.162964,-0.992004,0.308960,3.597561,-1.951220,-3.597561
1548437360580,-0.164551,-0.999390,0.317200,3.292683,-1.890244,-3.170732
1548437360589,-0.164673,-1.006775,0.322205,2.682927,-1.768293,-2.560976
1548437360595,-0.168091,-1.013306,0.326843,2.134146,-1.585366,-1.768293
1548437360602,-0.173828,-1.016113,0.328186,1.646341,-1.341463,-1.036585
1548437360620,-0.176697,-1.014465,0.325378,0.914634,-1.097561,-0.121951
1548437360635,-0.181152,-1.010681,0.323669,0.121951,-0.853659,0.792683
1548437360635,-0.181885,-1.007019,0.317444,-0.731707,-0.548781,1.585366
1548437360650,-0.182068,-0.999084,0.310242,-1.402439,-0.365854,2.378049
1548437360655,-0.182068,-0.990540,0.303040,-2.012195,0.060976,2.987805
1548437360662,-0.178894,-0.978577,0.294373,-2.500000,0.304878,3.414634
1548437360685,-0.176147,-0.964966,0.282410,-2.926829,0.304878,3.597561
1548437360685,-0.174988,-0.949463,0.276978,-3.231707,0.243902,3.719512
1548437360692,-0.173035,-0.938354,0.272583,-3.353659,0.365854,3.536585
1548437360707,-0.169189,-0.928284,0.266174,-3.292683,0.304878,3.170732
1548437360716,-0.168396,-0.916382,0.260315,-2.743902,0.182927,2.621951
1548437360722,-0.164673,-0.912720,0.258606,-1.951220,0.060976,1.951220
1548437360740,-0.162842,-0.912354,0.258667,-1.097561,-0.121951,1.341463
1548437360745,-0.164429,-0.913635,0.260132,-0.060976,-0.304878,0.670732
1548437360752,-0.165588,-0.919495,0.261230,0.792683,-0.487805,-0.121951
1548437360767,-0.164917,-0.928101,0.263611,1.646341,-0.792683,-0.853659
1548437360774,-0.166138,-0.939453,0.269043,2.256098,-1.097561,-1.524390
1548437360782,-0.165039,-0.952454,0.272522,2.621951,-1.341463,-2.073171
1548437360797,-0.166077,-0.966431,0.280273,2.926829,-1.524390,-2.439024
1548437360804,-0.165222,-0.975708,0.287109,3.109756,-1.646341,-2.743902
1548437360812,-0.165405,-0.987732,0.292908,2.987805,-1.707317,-2.804878
1548437360828,-0.165344,-0.995239,0.299805,2.804878,-1.768293,-2.621951
1548437360834,-0.165283,-0.999146,0.307495,2.500000,-1.768293,-2.317073
1548437360842,-0.167542,-1.000916,0.313538,2.256098,-1.585366,-1.768293
1548437360857,-0.168518,-0.998230,0.314941,1.768293,-1.463415,-1.280488
1548437360864,-0.171936,-0.996704,0.314331,1.219512,-1.341463,-0.609756
1548437360872,-0.171814,-0.992554,0.313843,0.792683,-1.219512,0.060976
1548437360887,-0.171509,-0.985779,0.311768,0.487805,-0.975610,0.670732
1548437360895,-0.173706,-0.979004,0.306091,0.000000,-0.792683,1.219512
1548437360902,-0.172974,-0.973938,0.305054,-0.426829,-0.670732,1.585366
1548437360921,-0.176697,-0.965454,0.297180,-0.609756,-0.609756,1.768293
1548437360928,-0.178894,-0.962524,0.294006,-0.853659,-0.487805,1.829268
1548437360933,-0.178162,-0.963135,0.291565,-0.975610,-0.365854,1.768293
1548437360947,-0.177734,-0.963623,0.290405,-0.914634,-0.365854,1.646341
1548437360955,-0.178040,-0.965149,0.291748,-0.975610,-0.304878,1.402439
1548437360962,-0.180176,-0.965454,0.293823,-1.036585,-0.121951,1.158537
1548437360977,-0.177490,-0.966797,0.294128,-0.975610,0.000000,1.036585
1548437360985,-0.178101,-0.970093,0.293945,-1.158537,0.121951,1.158537
1548437360993,-0.180176,-0.967468,0.288391,-1.097561,0.304878,1.280488
1548437361007,-0.176208,-0.964844,0.279663,-1.158537,0.304878,1.341463
1548437361015,-0.172852,-0.961731,0.275574,-1.158537,0.182927,1.463415
1548437361022,-0.168945,-0.950684,0.270996,-1.097561,0.182927,1.524390
1548437361038,-0.165710,-0.940247,0.269470,-1.158537,0.060976,1.524390
1548437361045,-0.160767,-0.935364,0.264709,-0.853659,-0.060976,1.280488
1548437361053,-0.158813,-0.929199,0.265198,-0.121951,-0.121951,0.914634
1548437361068,-0.159241,-0.926453,0.264160,0.487805,-0.304878,0.426829
1548437361075,-0.158447,-0.928467,0.268311,1.158537,-0.609756,-0.060976
1548437361083,-0.158203,-0.935425,0.269714,1.768293,-0.792683,-0.548781
1548437361098,-0.160645,-0.941406,0.272949,2.195122,-1.036585,-1.158537
1548437361105,-0.160400,-0.949036,0.278442,2.378049,-1.402439,-1.707317
1548437361113,-0.163635,-0.959167,0.280945,2.560976,-1.707317,-2.195122
1548437361128,-0.163574,-0.966797,0.288574,2.743902,-1.768293,-2.439024
1548437361135,-0.165955,-0.978699,0.293335,2.865854,-2.134146,-2.682927
1548437361142,-0.167114,-0.989319,0.300232,2.682927,-2.195122,-2.682927
1548437361157,-0.168030,-0.995972,0.303467,2.560976,-2.073171,-2.439024
1548437361165,-0.170349,-1.000916,0.308472,2.256098,-1.951220,-2.073171
1548437361172,-0.172852,-1.002380,0.314636,1.829268,-1.707317,-1.585366
1548437361188,-0.172668,-0.999023,0.316101,1.463415,-1.463415,-1.097561
1548437361195,-0.175049,-0.997864,0.319824,1.036585,-1.280488,-0.365854
1548437361203,-0.178162,-0.994812,0.318237,0.548781,-0.975610,0.243902
1548437361218,-0.180298,-0.992310,0.313782,0.121951,-0.670732,0.914634
1548437361226,-0.181519,-0.988281,0.312317,-0.304878,-0.365854,1.585366
1548437361233,-0.182007,-0.984924,0.311218,-0.853659,-0.060976,2.012195
1548437361248,-0.182617,-0.983093,0.309387,-1.341463,0.121951,2.378049
1548437361255,-0.184753,-0.979675,0.301270,-1.768293,0.487805,2.743902
1548437361262,-0.182373,-0.973694,0.295044,-2.256098,0.548781,2.926829
1548437361277,-0.182068,-0.966309,0.288086,-2.682927,0.487805,3.048780
1548437361286,-0.181885,-0.957275,0.284424,-2.865854,0.487805,3.109756
1548437361293,-0.179382,-0.950256,0.278442,-2.926829,0.487805,2.865854
1548437361307,-0.173950,-0.941284,0.273743,-2.804878,0.426829,2.621951
1548437361315,-0.169006,-0.931763,0.268127,-2.500000,0.426829,2.256098
1548437361323,-0.164795,-0.922058,0.263916,-1.951220,0.304878,1.951220
1548437361338,-0.163452,-0.919006,0.260132,-1.219512,0.182927,1.402439
1548437361345,-0.160645,-0.916748,0.256775,-0.304878,0.000000,0.792683
1548437361353,-0.159302,-0.918335,0.255554,0.609756,-0.304878,0.304878
1548437361368,-0.158203,-0.921326,0.256042,1.280488,-0.548781,-0.365854
1548437361375,-0.157410,-0.928894,0.260681,1.951220,-0.853659,-1.158537
1548437361383,-0.156128,-0.939331,0.267334,2.439024,-1.097561,-1.707317
1548437361397,-0.159851,-0.951538,0.270874,2.865854,-1.524390,-2.256098
1548437361405,-0.159180,-0.965088,0.281067,3.292683,-1.707317,-2.682927
1548437361413,-0.159363,-0.976379,0.286255,3.597561,-2.012195,-2.926829
1548437361428,-0.162048,-0.987183,0.294250,3.536585,-2.134146,-2.987805
1548437361435,-0.161926,-0.995605,0.307556,3.292683,-2.317073,-2.987805
1548437361443,-0.164246,-0.999939,0.312195,3.048780,-2.317073,-2.743902
1548437361458,-0.165283,-1.003052,0.314331,2.621951,-2.317073,-2.195122
1548437361466,-0.165955,-1.002991,0.320496,2.134146,-2.256098,-1.707317
1548437361473,-0.170593,-1.000000,0.319946,1.585366,-1.951220,-0.975610
1548437361488,-0.172058,-0.998718,0.316589,0.975610,-1.829268,-0.304878
1548437361495,-0.178467,-0.993896,0.313232,0.426829,-1.707317,0.609756
1548437361503,-0.181641,-0.990662,0.311707,-0.060976,-1.402439,1.219512
1548437361510,-0.181702,-0.982178,0.307800,-0.487805,-1.280488,1.829268
1548437361525,-0.180359,-0.976440,0.302246,-0.914634,-1.036585,2.317073
1548437361534,-0.176331,-0.970276,0.298523,-1.280488,-0.914634,2.500000
1548437361540,-0.174438,-0.963013,0.296326,-1.463415,-0.609756,2.621951
1548437361555,-0.172180,-0.956055,0.291687,-1.402439,-0.548781,2.682927
1548437361564,-0.173523,-0.952454,0.283203,-1.341463,-0.487805,2.500000
1548437361570,-0.174072,-0.950439,0.276733,-1.219512,-0.609756,2.195122
1548437361585,-0.175049,-0.948242,0.272522,-1.036585,-0.731707,1.890244
1548437361611,-0.173523,-0.945312,0.270752,-0.914634,-0.853659,1.524390
1548437361624,-0.170715,-0.943359,0.272217,-0.853659,-1.036585,1.158537
1548437361639,-0.169617,-0.939209,0.270081,-0.792683,-1.158537,0.731707
1548437361639,-0.170837,-0.938293,0.272705,-0.548781,-1.280488,0.304878
1548437361640,-0.167358,-0.941101,0.272034,0.000000,-1.280488,-0.060976
1548437361645,-0.167358,-0.943604,0.277649,0.609756,-1.280488,-0.304878
1548437361654,-0.165955,-0.947937,0.280518,1.280488,-1.341463,-0.609756
1548437361661,-0.164368,-0.951172,0.283936,1.707317,-1.341463,-0.914634
1548437361678,-0.163696,-0.957520,0.288330,1.890244,-1.463415,-1.158537
1548437361688,-0.162170,-0.960938,0.291077,2.134146,-1.585366,-1.280488
1548437361691,-0.162964,-0.963013,0.295959,2.256098,-1.646341,-1.463415
1548437361712,-0.160889,-0.970032,0.298523,2.378049,-1.768293,-1.646341
1548437361713,-0.159729,-0.976807,0.298767,2.317073,-1.890244,-1.646341
1548437361721,-0.160950,-0.980469,0.297546,2.134146,-2.073171,-1.646341
1548437361735,-0.162598,-0.985046,0.295959,1.890244,-2.134146,-1.463415
1548437361742,-0.165161,-0.989441,0.294983,1.463415,-2.256098,-1.158537
1548437361750,-0.164307,-0.990417,0.296448,0.975610,-2.378049,-0.853659
1548437361765,-0.163330,-0.990173,0.298462,0.670732,-2.317073,-0.548781
1548437361772,-0.163940,-0.988281,0.296570,0.243902,-2.378049,-0.060976
1548437361779,-0.163330,-0.984314,0.299988,-0.182927,-2.317073,0.609756
1548437361798,-0.161499,-0.980591,0.300171,-0.487805,-2.134146,1.036585
1548437361814,-0.161316,-0.976379,0.302856,-0.609756,-2.012195,1.463415
1548437361814,-0.164734,-0.972473,0.301147,-0.670732,-1.951220,1.951220
1548437361834,-0.166443,-0.968201,0.298096,-0.609756,-1.768293,2.195122
1548437361834,-0.170410,-0.965454,0.293579,-0.548781,-1.646341,2.378049
1548437361839,-0.171326,-0.962769,0.289368,-0.609756,-1.707317,2.439024
1548437361858,-0.171326,-0.959412,0.282410,-0.731707,-1.707317,2.378049
1548437361863,-0.172974,-0.957275,0.284363,-0.792683,-1.646341,2.256098
1548437361869,-0.174805,-0.955383,0.283508,-0.792683,-1.646341,2.012195
1548437361884,-0.174866,-0.951782,0.284668,-0.853659,-1.768293,1.768293
1548437361892,-0.175049,-0.950012,0.284424,-0.731707,-1.829268,1.341463
1548437361899,-0.173889,-0.950256,0.283813,-0.426829,-1.890244,1.036585
1548437361914,-0.173462,-0.953186,0.284058,-0.182927,-1.951220,0.792683
1548437361922,-0.175232,-0.953735,0.286255,0.121951,-1.890244,0.487805
1548437361929,-0.175232,-0.955505,0.289795,0.304878,-1.951220,0.365854
1548437361944,-0.172058,-0.958923,0.285828,0.365854,-2.073171,0.304878
1548437361952,-0.167847,-0.961487,0.287903,0.548781,-2.073171,0.243902
1548437361959,-0.166077,-0.963562,0.290466,0.670732,-2.073171,0.243902
1548437361974,-0.165527,-0.964111,0.291504,0.670732,-2.256098,0.304878
1548437361982,-0.165100,-0.965576,0.288513,0.792683,-2.256098,0.121951
1548437361990,-0.162415,-0.965820,0.292297,0.731707,-2.500000,0.182927
1548437362005,-0.159912,-0.964661,0.291138,0.609756,-2.682927,0.243902
1548437362013,-0.160706,-0.965393,0.290527,0.548781,-2.743902,0.182927
1548437362020,-0.158813,-0.967285,0.291016,0.548781,-2.865854,0.182927
1548437362035,-0.158264,-0.965881,0.293701,0.731707,-2.926829,0.243902
1548437362043,-0.158569,-0.968323,0.289856,0.731707,-2.926829,0.304878
1548437362051,-0.159607,-0.967773,0.290344,0.609756,-2.987805,0.243902
1548437362065,-0.160583,-0.969971,0.290771,0.670732,-2.987805,0.426829
1548437362073,-0.163269,-0.971497,0.289368,0.731707,-3.048780,0.609756
1548437362080,-0.164978,-0.970764,0.288330,0.426829,-3.170732,0.731707
1548437362095,-0.166809,-0.968323,0.288208,0.304878,-3.170732,0.853659
1548437362102,-0.166138,-0.967407,0.289429,0.243902,-3.170732,0.914634
1548437362111,-0.169495,-0.966553,0.290039,0.121951,-3.170732,1.036585
1548437362125,-0.170654,-0.965759,0.292664,0.182927,-3.109756,1.219512
1548437362133,-0.169189,-0.961792,0.292480,0.304878,-3.231707,1.158537
1548437362140,-0.171997,-0.960205,0.293152,0.365854,-3.231707,1.158537
1548437362155,-0.172791,-0.960083,0.295044,0.365854,-3.109756,1.158537
1548437362163,-0.173767,-0.961792,0.295288,0.365854,-3.170732,1.036585
1548437362170,-0.175293,-0.963745,0.295898,0.365854,-3.048780,0.975610
1548437362185,-0.175110,-0.963074,0.296143,0.365854,-2.926829,0.853659
1548437362193,-0.176636,-0.964233,0.296631,0.304878,-2.865854,0.731707
1548437362200,-0.178406,-0.965820,0.296631,0.426829,-2.865854,0.731707
1548437362215,-0.180664,-0.965088,0.297852,0.182927,-2.804878,0.609756
1548437362223,-0.181396,-0.964050,0.296509,0.182927,-2.560976,0.548781
1548437362230,-0.184204,-0.965637,0.294128,0.182927,-2.439024,0.487805
1548437362245,-0.186218,-0.965637,0.295227,0.121951,-2.317073,0.548781
1548437362253,-0.185730,-0.966187,0.295898,0.121951,-2.012195,0.670732
1548437362260,-0.185486,-0.962341,0.297119,0.060976,-1.768293,0.670732
1548437362275,-0.187256,-0.962524,0.298035,0.060976,-1.585366,0.609756
1548437362283,-0.188965,-0.961914,0.302246,0.000000,-1.219512,0.670732
1548437362290,-0.187317,-0.958740,0.303711,0.060976,-0.975610,0.670732
1548437362305,-0.187744,-0.959351,0.302612,0.121951,-0.670732,0.731707
1548437362313,-0.187866,-0.959717,0.304077,0.121951,-0.426829,0.548781
1548437362320,-0.188782,-0.959534,0.300720,0.182927,-0.304878,0.487805
1548437362335,-0.189392,-0.959595,0.301453,0.121951,-0.243902,0.304878
1548437362343,-0.189514,-0.959351,0.299133,0.121951,0.121951,0.243902
1548437362352,-0.184570,-0.959473,0.295166,0.060976,0.365854,0.060976
1548437362365,-0.182922,-0.958923,0.292419,0.243902,0.609756,-0.060976
1548437362373,-0.182190,-0.955811,0.293152,0.243902,0.792683,-0.243902
1548437362380,-0.179749,-0.956726,0.292786,0.426829,0.975610,-0.426829
1548437362395,-0.173767,-0.957581,0.291016,0.609756,1.219512,-0.548781
1548437362402,-0.173279,-0.957397,0.290710,0.792683,1.402439,-0.670732
1548437362409,-0.171753,-0.958557,0.290405,1.036585,1.524390,-0.731707
1548437362425,-0.170105,-0.960999,0.291504,1.036585,1.707317,-0.731707
1548437362432,-0.168945,-0.965698,0.291321,1.097561,1.829268,-0.731707
1548437362440,-0.170471,-0.968750,0.292358,1.158537,1.951220,-0.853659
1548437362455,-0.175049,-0.970825,0.289978,1.097561,1.951220,-0.792683
1548437362462,-0.177307,-0.971191,0.291992,0.975610,2.073171,-0.853659
1548437362470,-0.180054,-0.974121,0.295349,0.670732,2.195122,-0.792683
1548437362492,-0.182495,-0.974487,0.297546,0.487805,2.317073,-0.731707
1548437362493,-0.183167,-0.973633,0.302734,0.365854,2.500000,-0.731707
1548437362500,-0.184814,-0.970032,0.299805,0.243902,2.743902,-0.731707
1548437362515,-0.182983,-0.970093,0.300659,0.121951,2.865854,-0.548781
1548437362522,-0.181213,-0.966125,0.296509,0.121951,2.987805,-0.548781
1548437362531,-0.180237,-0.964111,0.296875,0.000000,3.170732,-0.548781
1548437362545,-0.176758,-0.961670,0.291504,0.060976,3.109756,-0.487805
1548437362552,-0.175293,-0.960510,0.290222,0.182927,3.170732,-0.609756
1548437362560,-0.173401,-0.958313,0.287537,0.060976,3.170732,-0.609756
1548437362575,-0.170349,-0.954956,0.284973,0.060976,3.231707,-0.609756
1548437362582,-0.167725,-0.956726,0.285156,-0.060976,3.109756,-0.731707
1548437362590,-0.166016,-0.956421,0.285095,0.060976,2.865854,-0.792683
1548437362605,-0.164978,-0.956604,0.285278,0.060976,2.621951,-0.975610
1548437362612,-0.162964,-0.956970,0.285156,0.243902,2.621951,-1.097561
1548437362620,-0.160339,-0.959229,0.282288,0.426829,2.500000,-1.097561
1548437362635,-0.157104,-0.961487,0.280334,0.609756,2.256098,-1.219512
1548437362642,-0.153198,-0.964844,0.282837,0.853659,2.195122,-1.341463
1548437362650,-0.150330,-0.968201,0.280945,0.853659,1.890244,-1.280488
1548437362665,-0.147156,-0.967773,0.282410,0.975610,1.585366,-1.158537
1548437362673,-0.145386,-0.965027,0.282776,0.914634,1.402439,-1.158537
1548437362680,-0.142395,-0.968140,0.283142,0.914634,1.158537,-0.975610
1548437362695,-0.143311,-0.969360,0.282593,0.914634,0.914634,-0.853659
1548437362702,-0.141785,-0.970093,0.285828,0.853659,0.609756,-0.670732
1548437362710,-0.143005,-0.972595,0.288696,0.975610,0.304878,-0.487805
1548437362725,-0.141418,-0.973389,0.288208,0.975610,0.060976,-0.304878
1548437362732,-0.139709,-0.973389,0.287598,0.975610,-0.365854,-0.182927
1548437362740,-0.141235,-0.975891,0.290771,1.036585,-0.609756,0.060976
1548437362754,-0.143311,-0.977295,0.288635,0.792683,-0.853659,0.182927
1548437362762,-0.145691,-0.974426,0.289856,0.609756,-1.341463,0.304878
1548437362769,-0.151733,-0.974670,0.290894,0.365854,-1.524390,0.365854
1548437362784,-0.157349,-0.972900,0.290955,0.121951,-1.768293,0.487805
1548437362792,-0.163269,-0.971008,0.295227,-0.060976,-1.951220,0.548781
1548437362799,-0.166931,-0.969482,0.292969,-0.243902,-2.012195,0.731707
1548437362814,-0.171509,-0.966187,0.293030,-0.365854,-2.195122,0.853659
1548437362822,-0.176208,-0.963623,0.292297,-0.365854,-2.073171,0.914634
1548437362829,-0.180359,-0.962463,0.290833,-0.243902,-1.890244,0.975610
1548437362845,-0.182007,-0.958801,0.292358,-0.182927,-1.768293,1.036585
1548437362852,-0.185608,-0.961426,0.294250,0.060976,-1.646341,1.097561
1548437362860,-0.188660,-0.958435,0.294006,0.243902,-1.463415,1.097561
1548437362875,-0.188599,-0.956116,0.292786,0.304878,-1.158537,0.914634
1548437362882,-0.188843,-0.956116,0.292725,0.243902,-1.036585,0.792683
1548437362890,-0.188721,-0.957214,0.296265,0.426829,-0.853659,0.609756
1548437362905,-0.187500,-0.957092,0.296997,0.548781,-0.731707,0.365854
1548437362912,-0.184692,-0.959961,0.294434,0.548781,-0.548781,0.182927
1548437362920,-0.181946,-0.961365,0.296387,0.548781,-0.426829,0.060976
1548437362935,-0.182617,-0.962769,0.297119,0.548781,-0.365854,-0.182927
1548437362943,-0.176147,-0.966919,0.296387,0.487805,-0.243902,-0.304878
1548437362950,-0.173706,-0.967529,0.294739,0.487805,-0.121951,-0.365854
1548437362965,-0.173157,-0.967834,0.292786,0.365854,-0.121951,-0.304878
1548437362973,-0.168091,-0.968079,0.290771,0.304878,-0.182927,-0.243902
1548437362981,-0.165649,-0.968384,0.290527,0.365854,-0.182927,-0.182927
1548437362995,-0.162720,-0.966431,0.287354,0.365854,-0.243902,-0.182927
1548437363003,-0.159241,-0.963623,0.287048,0.304878,-0.243902,0.000000
1548437363010,-0.159790,-0.963562,0.286255,0.304878,-0.304878,0.060976
1548437363025,-0.158142,-0.965759,0.282593,0.304878,-0.365854,0.243902
1548437363036,-0.158875,-0.966003,0.283325,0.304878,-0.487805,0.243902
1548437363040,-0.157043,-0.964661,0.284485,0.304878,-0.548781,0.121951
1548437363055,-0.156677,-0.962158,0.284485,0.365854,-0.731707,0.121951
1548437363063,-0.158447,-0.963562,0.289551,0.487805,-0.853659,0.121951
1548437363070,-0.159363,-0.966492,0.290100,0.365854,-0.975610,0.000000
1548437363085,-0.161133,-0.965515,0.290039,0.426829,-0.975610,0.000000
1548437363092,-0.163208,-0.967224,0.292175,0.487805,-1.097561,0.060976
1548437363100,-0.165649,-0.966064,0.290100,0.487805,-1.097561,0.060976
1548437363116,-0.167969,-0.966248,0.293213,0.365854,-1.158537,0.121951
1548437363123,-0.170532,-0.966675,0.297546,0.426829,-1.158537,0.182927
1548437363131,-0.172180,-0.967041,0.297607,0.487805,-1.097561,0.243902
1548437363145,-0.173340,-0.967224,0.293945,0.365854,-1.219512,0.304878
1548437363153,-0.175354,-0.965393,0.294250,0.304878,-1.097561,0.426829
1548437363160,-0.176453,-0.966064,0.296692,0.365854,-0.975610,0.487805
1548437363175,-0.180054,-0.963440,0.296631,0.426829,-0.975610,0.487805
1548437363183,-0.179932,-0.963318,0.296021,0.365854,-0.914634,0.487805
1548437363191,-0.177734,-0.963318,0.293762,0.243902,-0.853659,0.426829
1548437363205,-0.176697,-0.963684,0.291321,0.243902,-0.731707,0.365854
1548437363215,-0.175964,-0.964172,0.294312,0.304878,-0.609756,0.304878
1548437363221,-0.177368,-0.963928,0.291687,0.182927,-0.670732,0.243902
1548437363236,-0.172668,-0.962952,0.289673,0.304878,-0.548781,0.121951
1548437363243,-0.172424,-0.963318,0.291992,0.243902,-0.426829,0.060976
1548437363253,-0.169678,-0.961548,0.291504,0.121951,-0.426829,0.121951
1548437363267,-0.168579,-0.961182,0.289062,0.304878,-0.426829,0.121951
1548437363276,-0.168457,-0.962219,0.288452,0.426829,-0.487805,0.060976
1548437363283,-0.165894,-0.962341,0.288513,0.365854,-0.426829,0.060976
1548437363295,-0.164368,-0.963196,0.287781,0.365854,-0.426829,0.060976
1548437363303,-0.163757,-0.964783,0.287781,0.487805,-0.548781,0.000000
1548437363317,-0.162903,-0.964111,0.287720,0.670732,-0.609756,0.000000
1548437363328,-0.161499,-0.966187,0.288025,0.670732,-0.609756,0.000000
1548437363335,-0.163208,-0.968201,0.288757,0.487805,-0.731707,0.060976
1548437363342,-0.163330,-0.968262,0.290283,0.487805,-0.792683,0.121951
1548437363355,-0.163574,-0.968872,0.291199,0.487805,-0.792683,0.182927
1548437363363,-0.163269,-0.969971,0.293213,0.487805,-0.792683,0.243902
1548437363370,-0.163391,-0.969177,0.292480,0.426829,-0.853659,0.121951
1548437363385,-0.165833,-0.969360,0.290771,0.304878,-0.914634,0.243902
1548437363392,-0.167236,-0.968323,0.291809,0.304878,-0.975610,0.304878
1548437363400,-0.169250,-0.965698,0.292908,0.243902,-0.914634,0.304878
1548437363414,-0.171265,-0.965027,0.292908,0.182927,-0.853659,0.304878
1548437363422,-0.171570,-0.964783,0.295715,0.243902,-0.975610,0.365854
1548437363434,-0.173889,-0.963501,0.291809,0.304878,-0.914634,0.426829
1548437363445,-0.173645,-0.963440,0.290649,0.182927,-0.853659,0.548781
1548437363452,-0.172241,-0.961365,0.292114,0.182927,-0.731707,0.487805
1548437363460,-0.175110,-0.959534,0.290710,0.243902,-0.731707,0.487805
1548437363474,-0.176392,-0.960022,0.287537,0.304878,-0.670732,0.426829
1548437363482,-0.174805,-0.962952,0.289734,0.182927,-0.609756,0.365854
1548437363490,-0.176025,-0.962219,0.291016,0.304878,-0.670732,0.182927
1548437363508,-0.174988,-0.962036,0.291321,0.365854,-0.609756,0.182927
1548437363512,-0.173950,-0.963135,0.291809,0.365854,-0.548781,0.182927
1548437363524,-0.171448,-0.962585,0.294373,0.304878,-0.548781,0.060976
1548437363535,-0.168701,-0.964050,0.294128,0.304878,-0.487805,0.121951
1548437363542,-0.167542,-0.965942,0.292236,0.304878,-0.609756,-0.060976
1548437363551,-0.166626,-0.966919,0.293213,0.365854,-0.548781,-0.060976
1548437363565,-0.165222,-0.967041,0.290466,0.243902,-0.548781,0.000000
1548437363572,-0.166077,-0.967468,0.289246,0.182927,-0.487805,0.060976
1548437363588,-0.163879,-0.969421,0.292236,0.182927,-0.609756,0.182927
1548437363608,-0.162720,-0.966736,0.291077,0.243902,-0.792683,0.304878
1548437363608,-0.164551,-0.964722,0.287415,0.182927,-0.731707,0.304878
1548437363619,-0.164307,-0.964417,0.289001,0.182927,-0.792683,0.365854
1548437363637,-0.166199,-0.963318,0.287354,0.182927,-0.853659,0.426829
1548437363637,-0.166992,-0.961975,0.285156,0.182927,-0.914634,0.487805
1548437363640,-0.166870,-0.958557,0.286255,0.243902,-0.975610,0.426829
1548437363654,-0.165710,-0.957825,0.286316,0.304878,-0.914634,0.365854
1548437363662,-0.166504,-0.958069,0.286377,0.426829,-0.975610,0.243902
1548437363669,-0.168274,-0.958862,0.288269,0.548781,-0.975610,0.121951
1548437363685,-0.167847,-0.962585,0.288574,0.670732,-1.036585,-0.060976
1548437363692,-0.168762,-0.963745,0.290039,0.792683,-1.158537,-0.182927
1548437363701,-0.172424,-0.966858,0.292114,0.853659,-1.158537,-0.243902
1548437363714,-0.172852,-0.968567,0.292358,0.792683,-1.097561,-0.304878
1548437363722,-0.171448,-0.971191,0.293762,0.731707,-1.036585,-0.243902
1548437363729,-0.170837,-0.972351,0.298035,0.670732,-1.097561,-0.121951
1548437363744,-0.172729,-0.971802,0.296997,0.487805,-1.036585,0.000000
1548437363752,-0.173462,-0.972595,0.297058,0.548781,-1.036585,0.000000
1548437363760,-0.172302,-0.971436,0.296570,0.426829,-0.975610,0.121951
1548437363774,-0.172668,-0.970215,0.299377,0.304878,-0.853659,0.243902
1548437363783,-0.172485,-0.967285,0.294434,0.304878,-0.792683,0.365854
1548437363797,-0.169556,-0.962646,0.292908,0.243902,-0.853659,0.304878
1548437363805,-0.171448,-0.960266,0.293396,0.060976,-0.853659,0.304878
1548437363812,-0.169128,-0.959839,0.292603,0.243902,-0.731707,0.243902
1548437363820,-0.170044,-0.959534,0.290466,0.243902,-0.731707,0.182927
1548437363835,-0.169983,-0.959656,0.288452,0.243902,-0.731707,0.182927
1548437363842,-0.170044,-0.960022,0.287048,0.365854,-0.670732,0.000000
1548437363850,-0.168945,-0.963501,0.289490,0.365854,-0.731707,-0.060976
1548437363868,-0.168701,-0.963989,0.287720,0.365854,-0.792683,-0.121951
1548437363872,-0.168884,-0.964539,0.287842,0.548781,-0.792683,-0.121951
1548437363880,-0.167725,-0.965149,0.288940,0.609756,-0.731707,-0.121951
1548437363896,-0.166809,-0.964844,0.288147,0.487805,-0.731707,-0.121951
1548437363903,-0.165466,-0.964478,0.288513,0.670732,-0.731707,0.000000
1548437363920,-0.166565,-0.964294,0.290894,0.609756,-0.792683,0.060976
1548437364003,-0.165222,-0.965210,0.291809,0.609756,-0.853659,0.060976
1548437364003,-0.164856,-0.964966,0.293457,0.792683,-0.914634,0.121951
1548437364003,-0.166870,-0.964844,0.291565,0.792683,-0.914634,0.060976
1548437364003,-0.167847,-0.964783,0.291748,0.731707,-0.853659,0.121951
1548437364007,-0.167358,-0.964722,0.292847,0.670732,-0.792683,0.060976
1548437364008,-0.167419,-0.964844,0.295654,0.731707,-0.792683,0.121951
1548437364008,-0.166504,-0.967468,0.295532,0.670732,-0.792683,0.060976
1548437364008,-0.167419,-0.967346,0.296753,0.609756,-0.853659,0.000000
1548437364008,-0.169800,-0.967957,0.293152,0.609756,-0.853659,0.060976
1548437364017,-0.169189,-0.967651,0.293640,0.609756,-0.853659,-0.121951
1548437364048,-0.169434,-0.969727,0.294067,0.548781,-0.914634,0.000000
1548437364048,-0.169678,-0.968872,0.294739,0.487805,-0.914634,0.060976
1548437364048,-0.169312,-0.966614,0.291138,0.487805,-0.853659,0.060976
1548437364058,-0.168335,-0.963684,0.292725,0.487805,-0.853659,0.121951
1548437364059,-0.168701,-0.964294,0.291626,0.426829,-0.975610,0.182927
1548437364082,-0.168762,-0.964050,0.292542,0.426829,-0.914634,0.060976
1548437364082,-0.168335,-0.963867,0.293396,0.426829,-0.914634,0.243902
1548437364090,-0.169922,-0.963074,0.292114,0.365854,-0.853659,0.182927
1548437364104,-0.170227,-0.961670,0.289612,0.243902,-0.914634,0.182927
1548437364112,-0.170776,-0.963074,0.290405,0.365854,-0.792683,0.182927
1548437364120,-0.169495,-0.965210,0.292664,0.426829,-0.792683,0.060976
1548437364135,-0.169861,-0.960999,0.289429,0.365854,-0.792683,0.060976
1548437364142,-0.170837,-0.963684,0.291016,0.487805,-0.792683,0.000000
1548437364157,-0.170105,-0.965332,0.293030,0.426829,-0.853659,0.060976
1548437364165,-0.167786,-0.965698,0.292847,0.426829,-0.853659,0.060976
1548437364172,-0.167908,-0.964844,0.295105,0.426829,-0.792683,0.000000
1548437364180,-0.168518,-0.964355,0.296692,0.426829,-0.670732,0.000000
1548437364194,-0.167297,-0.966370,0.297241,0.609756,-0.609756,0.060976
1548437364202,-0.167053,-0.966919,0.295654,0.548781,-0.853659,0.060976
1548437364209,-0.165649,-0.968262,0.295227,0.426829,-0.792683,0.121951
1548437364225,-0.165283,-0.966614,0.296082,0.365854,-0.670732,0.182927
1548437364232,-0.167908,-0.970032,0.294800,0.304878,-0.670732,0.243902
1548437364240,-0.167297,-0.970520,0.295837,0.365854,-0.548781,0.365854
1548437364255,-0.168152,-0.968262,0.292908,0.243902,-0.548781,0.426829
1548437364263,-0.167603,-0.967651,0.294495,0.060976,-0.670732,0.426829
1548437364270,-0.167542,-0.964172,0.293274,0.060976,-0.609756,0.487805
1548437364286,-0.168335,-0.960999,0.291626,0.121951,-0.609756,0.487805
1548437364319,-0.167419,-0.961304,0.290405,0.182927,-0.670732,0.426829
1548437364319,-0.167358,-0.958252,0.287964,0.243902,-0.670732,0.365854
1548437364348,-0.167297,-0.958801,0.285400,0.304878,-0.670732,0.426829
1548437364348,-0.166992,-0.957764,0.287048,0.304878,-0.670732,0.304878
1548437364348,-0.167786,-0.957947,0.288940,0.304878,-0.731707,0.243902
1548437364348,-0.167419,-0.960938,0.290527,0.426829,-0.792683,0.060976
1548437364358,-0.168091,-0.964661,0.290710,0.426829,-0.853659,0.000000
1548437364360,-0.169922,-0.964783,0.292175,0.548781,-0.792683,-0.121951
1548437364382,-0.168640,-0.969421,0.296936,0.487805,-0.792683,-0.121951
1548437364383,-0.168335,-0.971008,0.296082,0.365854,-0.853659,-0.060976
1548437364396,-0.169067,-0.970581,0.297546,0.243902,-0.792683,0.000000
1548437364404,-0.167603,-0.971313,0.297974,0.243902,-0.792683,0.000000
1548437364412,-0.167664,-0.968323,0.295471,0.243902,-0.731707,0.121951
1548437364431,-0.168335,-0.967773,0.295410,0.304878,-0.670732,0.243902
1548437364443,-0.169739,-0.968018,0.294983,0.182927,-0.731707,0.365854
1548437364443,-0.170227,-0.965027,0.291260,0.060976,-0.731707,0.426829
1548437364454,-0.168579,-0.961548,0.291138,0.060976,-0.670732,0.365854
1548437364467,-0.168945,-0.961365,0.294250,0.060976,-0.670732,0.426829
1548437364472,-0.168762,-0.961670,0.292114,0.060976,-0.670732,0.365854
1548437364482,-0.169434,-0.960449,0.288940,0.060976,-0.609756,0.426829
1548437364498,-0.167297,-0.960938,0.290161,0.121951,-0.548781,0.365854
1548437364507,-0.168091,-0.961304,0.292236,0.304878,-0.670732,0.304878
1548437364510,-0.167725,-0.964661,0.291382,0.243902,-0.731707,0.182927
1548437364528,-0.168152,-0.965698,0.290955,0.304878,-0.609756,0.121951
1548437364536,-0.167542,-0.964539,0.290039,0.487805,-0.609756,0.121951
1548437364541,-0.167969,-0.965088,0.293457,0.487805,-0.609756,0.121951
1548437364557,-0.167725,-0.965149,0.292908,0.304878,-0.548781,0.182927
1548437364564,-0.168579,-0.964355,0.289612,0.243902,-0.609756,0.243902
1548437364574,-0.168701,-0.961975,0.289429,0.365854,-0.670732,0.243902
1548437364589,-0.166931,-0.963257,0.290588,0.365854,-0.609756,0.365854
1548437364592,-0.164673,-0.960938,0.291321,0.365854,-0.670732,0.304878
1548437364601,-0.167358,-0.963135,0.290710,0.426829,-0.792683,0.304878
1548437364614,-0.166321,-0.963806,0.290039,0.426829,-0.792683,0.243902
1548437364622,-0.167358,-0.961548,0.290588,0.487805,-0.792683,0.182927
1548437364629,-0.169495,-0.962952,0.291809,0.487805,-0.792683,0.121951
1548437364644,-0.168457,-0.963989,0.292847,0.487805,-0.792683,0.121951
1548437364659,-0.169312,-0.965698,0.294312,0.426829,-0.853659,0.182927
1548437364660,-0.169434,-0.967957,0.293335,0.426829,-0.853659,0.182927
1548437364674,-0.169617,-0.967529,0.294067,0.487805,-0.731707,0.060976
1548437364682,-0.169189,-0.968628,0.296265,0.426829,-0.792683,0.000000
1548437364689,-0.170959,-0.969299,0.297241,0.365854,-0.792683,0.060976
1548437364705,-0.170349,-0.968445,0.294678,0.365854,-0.731707,0.060976
1548437364712,-0.170044,-0.967163,0.295898,0.304878,-0.670732,0.243902
1548437364720,-0.167908,-0.966919,0.295715,0.243902,-0.731707,0.304878
