timestamp, accel_x, accel_y, accel_z, gyro_x, gyro_y, gyro_z
1548434431901.000000,-0.134583,-0.819153,-0.574524,2.317073,-2.682927,-0.121951
1548434431915.000000,-0.137146,-0.824829,-0.579285,2.012195,-2.439024,-0.182927
1548434431931.000000,-0.137390,-0.824097,-0.575684,1.707317,-2.195122,-0.243902
1548434431931.000000,-0.136475,-0.822144,-0.573853,1.341463,-1.951220,-0.304878
1548434431945.000000,-0.135437,-0.820190,-0.574463,1.341463,-1.768293,-0.243902
1548434431953.000000,-0.135376,-0.822021,-0.572937,1.585366,-1.707317,-0.060976
1548434431960.000000,-0.135193,-0.825134,-0.572876,2.134146,-1.524390,0.060976
1548434431975.000000,-0.134705,-0.828430,-0.573730,2.317073,-1.463415,0.243902
1548434431983.000000,-0.134766,-0.829895,-0.571106,2.317073,-1.280488,0.365854
1548434431990.000000,-0.136169,-0.829407,-0.571533,2.317073,-1.158537,0.609756
1548434432005.000000,-0.137634,-0.830139,-0.572571,2.378049,-1.036585,0.731707
1548434432013.000000,-0.139771,-0.832520,-0.569397,2.378049,-0.914634,0.731707
1548434432020.000000,-0.137146,-0.830872,-0.568542,2.195122,-0.670732,0.853659
1548434432035.000000,-0.137878,-0.830811,-0.570801,1.951220,-0.548781,0.792683
1548434432043.000000,-0.136719,-0.831055,-0.570190,1.707317,-0.243902,0.914634
1548434432050.000000,-0.135132,-0.830261,-0.570862,1.524390,-0.182927,0.914634
1548434432065.000000,-0.133057,-0.829407,-0.570190,1.280488,0.060976,0.975610
1548434432073.000000,-0.132446,-0.827271,-0.571960,1.036585,0.182927,0.914634
1548434432080.000000,-0.131592,-0.826294,-0.574341,0.792683,0.304878,0.914634
1548434432096.000000,-0.128418,-0.826843,-0.575928,0.609756,0.304878,0.914634
1548434432103.000000,-0.129395,-0.826111,-0.577576,0.670732,0.243902,0.975610
1548434432111.000000,-0.129150,-0.826294,-0.576904,0.731707,0.121951,1.036585
1548434432126.000000,-0.129944,-0.824951,-0.580017,0.914634,0.060976,1.036585
1548434432133.000000,-0.129639,-0.825378,-0.578247,0.914634,-0.121951,0.914634
1548434432140.000000,-0.127930,-0.825134,-0.578491,1.036585,-0.304878,0.914634
1548434432156.000000,-0.125061,-0.825928,-0.579651,1.036585,-0.365854,0.792683
1548434432163.000000,-0.126831,-0.823792,-0.579773,0.975610,-0.365854,0.731707
1548434432170.000000,-0.128479,-0.825317,-0.575073,1.036585,-0.609756,0.731707
1548434432185.000000,-0.125427,-0.823425,-0.576233,1.097561,-0.731707,0.670732
1548434432193.000000,-0.127197,-0.822266,-0.580750,1.036585,-0.731707,0.670732
1548434432200.000000,-0.129150,-0.821838,-0.577942,0.792683,-0.853659,0.609756
1548434432215.000000,-0.130188,-0.821472,-0.579224,0.731707,-0.914634,0.487805
1548434432223.000000,-0.125305,-0.823669,-0.578064,0.792683,-0.914634,0.426829
1548434432230.000000,-0.127258,-0.820923,-0.577820,0.792683,-1.036585,0.426829
1548434432246.000000,-0.128906,-0.822021,-0.580322,0.670732,-1.219512,0.365854
1548434432253.000000,-0.128479,-0.820435,-0.578857,0.609756,-1.280488,0.243902
1548434432260.000000,-0.128113,-0.822327,-0.578796,0.853659,-1.341463,0.304878
1548434432275.000000,-0.131042,-0.824280,-0.578491,1.036585,-1.646341,0.182927
1548434432283.000000,-0.130249,-0.823364,-0.578369,1.219512,-1.707317,0.182927
1548434432290.000000,-0.131836,-0.824158,-0.578613,1.097561,-1.646341,0.243902
1548434432306.000000,-0.131531,-0.823608,-0.578308,0.853659,-1.707317,0.182927
1548434432313.000000,-0.130981,-0.823303,-0.576721,0.670732,-1.585366,0.060976
1548434432320.000000,-0.132629,-0.822693,-0.574707,0.731707,-1.524390,0.000000
1548434432343.000000,-0.131653,-0.825073,-0.574341,0.975610,-1.402439,0.060976
1548434432343.000000,-0.134521,-0.827515,-0.572937,1.097561,-1.280488,0.121951
1548434432350.000000,-0.136108,-0.827820,-0.574036,1.097561,-1.219512,0.121951
1548434432365.000000,-0.133484,-0.827698,-0.575256,0.914634,-1.097561,0.121951
1548434432373.000000,-0.132568,-0.826538,-0.572266,0.670732,-0.914634,0.121951
1548434432380.000000,-0.131592,-0.824646,-0.572449,0.548781,-0.792683,0.182927
1548434432396.000000,-0.130859,-0.824402,-0.574097,0.548781,-0.670732,0.182927
1548434432403.000000,-0.129883,-0.825562,-0.575012,0.548781,-0.670732,0.182927
1548434432411.000000,-0.129883,-0.824524,-0.574829,0.609756,-0.670732,0.121951
1548434432425.000000,-0.129822,-0.824402,-0.575195,0.609756,-0.670732,0.060976
1548434432433.000000,-0.131470,-0.827576,-0.576050,0.731707,-0.670732,0.121951
1548434432441.000000,-0.132751,-0.826782,-0.573669,0.853659,-0.792683,0.121951
1548434432455.000000,-0.131470,-0.827515,-0.574524,0.853659,-0.853659,0.182927
1548434432463.000000,-0.132446,-0.829773,-0.576294,0.914634,-0.609756,0.182927
1548434432470.000000,-0.132568,-0.825623,-0.573730,1.036585,-0.731707,0.121951
1548434432485.000000,-0.133240,-0.826416,-0.571655,1.219512,-0.731707,0.182927
1548434432493.000000,-0.132080,-0.828064,-0.573242,1.280488,-0.731707,0.121951
1548434432500.000000,-0.131958,-0.829468,-0.573730,1.463415,-0.670732,0.060976
1548434432515.000000,-0.132812,-0.831604,-0.570312,1.524390,-0.548781,0.000000
1548434432523.000000,-0.130066,-0.829224,-0.571167,1.158537,-0.426829,0.121951
1548434432530.000000,-0.129028,-0.827576,-0.572144,0.792683,-0.365854,0.182927
1548434432545.000000,-0.130310,-0.830261,-0.571533,0.609756,-0.304878,0.121951
1548434432553.000000,-0.131531,-0.830200,-0.569885,0.792683,-0.365854,0.243902
1548434432568.000000,-0.131470,-0.827271,-0.569824,0.914634,-0.365854,0.304878
1548434432575.000000,-0.132263,-0.826904,-0.570679,0.853659,-0.548781,0.365854
1548434432583.000000,-0.133606,-0.828186,-0.570801,0.670732,-0.670732,0.304878
1548434432590.000000,-0.135132,-0.828674,-0.570679,0.548781,-0.670732,0.243902
1548434432605.000000,-0.136353,-0.830017,-0.568420,0.609756,-0.670732,0.121951
1548434432613.000000,-0.133423,-0.828979,-0.569458,0.670732,-0.609756,0.060976
1548434432620.000000,-0.131042,-0.827942,-0.570984,0.365854,-0.487805,0.121951
1548434432635.000000,-0.132263,-0.826172,-0.573425,0.060976,-0.548781,0.000000
1548434432650.000000,-0.130066,-0.824646,-0.572815,-0.121951,-0.548781,0.000000
1548434432651.000000,-0.127014,-0.826294,-0.571411,-0.060976,-0.609756,0.000000
1548434432665.000000,-0.125000,-0.826111,-0.572327,0.243902,-0.670732,0.060976
1548434432673.000000,-0.127808,-0.827881,-0.573547,0.426829,-0.792683,0.060976
1548434432680.000000,-0.129395,-0.829468,-0.572693,0.609756,-0.914634,0.060976
1548434432695.000000,-0.130798,-0.829651,-0.575439,0.792683,-1.036585,0.121951
1548434432703.000000,-0.130798,-0.832092,-0.571777,1.036585,-1.097561,0.182927
1548434432710.000000,-0.130432,-0.829529,-0.569763,1.036585,-1.158537,0.182927
1548434432726.000000,-0.130432,-0.831177,-0.569153,0.914634,-1.219512,0.182927
1548434432733.000000,-0.130920,-0.830383,-0.569458,0.792683,-1.097561,0.243902
1548434432741.000000,-0.131042,-0.827332,-0.572693,0.487805,-0.914634,0.243902
1548434432756.000000,-0.132568,-0.825439,-0.570557,0.243902,-0.914634,0.182927
1548434432763.000000,-0.132324,-0.824158,-0.572571,0.182927,-0.853659,0.182927
1548434432770.000000,-0.133057,-0.824341,-0.573486,0.060976,-0.792683,0.121951
1548434432786.000000,-0.130127,-0.826416,-0.574402,0.060976,-0.731707,0.121951
1548434432793.000000,-0.130371,-0.827332,-0.573975,0.243902,-0.670732,0.243902
1548434432801.000000,-0.130615,-0.826782,-0.575562,0.426829,-0.731707,0.182927
1548434432816.000000,-0.132324,-0.826599,-0.576477,0.609756,-0.792683,0.304878
1548434432823.000000,-0.132568,-0.828552,-0.573792,0.731707,-0.792683,0.304878
1548434432830.000000,-0.132263,-0.827087,-0.572083,0.731707,-0.853659,0.243902
1548434432845.000000,-0.132507,-0.827698,-0.572754,0.792683,-0.792683,0.182927
1548434432853.000000,-0.134949,-0.825317,-0.571655,0.670732,-0.792683,0.121951
1548434432861.000000,-0.134094,-0.825867,-0.569519,0.365854,-0.731707,0.060976
1548434432876.000000,-0.131958,-0.828430,-0.572449,0.182927,-0.487805,0.000000
1548434432883.000000,-0.131592,-0.828064,-0.570984,0.121951,-0.426829,-0.121951
1548434432891.000000,-0.130737,-0.827942,-0.572144,0.060976,-0.365854,-0.182927
1548434432905.000000,-0.129639,-0.828735,-0.574219,-0.060976,-0.365854,-0.121951
1548434432913.000000,-0.130615,-0.828125,-0.572693,-0.121951,-0.304878,-0.121951
1548434432920.000000,-0.127502,-0.828125,-0.574341,0.121951,-0.304878,-0.060976
1548434432935.000000,-0.127747,-0.827271,-0.574158,0.182927,-0.365854,0.000000
1548434432943.000000,-0.130005,-0.827393,-0.569458,0.182927,-0.426829,-0.060976
1548434432950.000000,-0.131409,-0.826843,-0.569275,0.060976,-0.426829,-0.060976
1548434432965.000000,-0.129028,-0.824524,-0.567688,0.243902,-0.487805,0.000000
1548434432973.000000,-0.126953,-0.825073,-0.573364,0.365854,-0.487805,0.000000
1548434432980.000000,-0.129639,-0.827820,-0.572571,0.365854,-0.670732,0.000000
1548434432995.000000,-0.127319,-0.828613,-0.572754,0.365854,-0.792683,0.060976
1548434433003.000000,-0.127197,-0.828491,-0.573303,0.609756,-0.853659,0.000000
1548434433010.000000,-0.128662,-0.828308,-0.573853,0.487805,-0.914634,0.060976
1548434433026.000000,-0.130676,-0.827209,-0.572083,0.426829,-0.914634,0.182927
1548434433033.000000,-0.130676,-0.826111,-0.571960,0.487805,-0.975610,0.121951
1548434433040.000000,-0.132629,-0.826721,-0.569336,0.426829,-1.036585,0.060976
1548434433055.000000,-0.134460,-0.828003,-0.570984,0.243902,-0.975610,-0.060976
1548434433063.000000,-0.131592,-0.827698,-0.572754,0.121951,-0.914634,-0.121951
1548434433070.000000,-0.131226,-0.827759,-0.573364,0.000000,-0.914634,-0.121951
1548434433085.000000,-0.129028,-0.827087,-0.574707,-0.182927,-0.792683,-0.243902
1548434433100.000000,-0.129883,-0.829773,-0.575500,-0.243902,-0.914634,-0.243902
1548434433101.000000,-0.128784,-0.826782,-0.575378,-0.365854,-0.853659,-0.304878
1548434433115.000000,-0.128418,-0.825928,-0.573547,-0.121951,-0.792683,-0.304878
1548434433123.000000,-0.128296,-0.826111,-0.570923,-0.182927,-0.792683,-0.243902
1548434433130.000000,-0.128418,-0.825134,-0.571655,-0.121951,-0.731707,-0.243902
1548434433145.000000,-0.130066,-0.826721,-0.575867,0.000000,-0.792683,-0.121951
1548434433153.000000,-0.129883,-0.826843,-0.573303,0.121951,-0.853659,-0.121951
1548434433168.000000,-0.129333,-0.827698,-0.572205,0.304878,-0.853659,-0.182927
1548434433175.000000,-0.129028,-0.826355,-0.572998,0.426829,-0.792683,-0.182927
1548434433183.000000,-0.130188,-0.826172,-0.573303,0.365854,-0.914634,-0.060976
1548434433190.000000,-0.128967,-0.831116,-0.571655,0.426829,-0.975610,-0.121951
1548434433205.000000,-0.129028,-0.830383,-0.570862,0.609756,-0.914634,-0.060976
1548434433213.000000,-0.128967,-0.828491,-0.571350,0.609756,-1.036585,0.000000
1548434433228.000000,-0.128113,-0.829224,-0.571960,0.548781,-1.097561,0.060976
1548434433235.000000,-0.131348,-0.827087,-0.573120,0.548781,-0.975610,0.182927
1548434433251.000000,-0.128845,-0.826172,-0.571045,0.426829,-0.914634,0.182927
1548434433251.000000,-0.130249,-0.826660,-0.570129,0.365854,-0.975610,0.182927
1548434433266.000000,-0.131897,-0.826721,-0.571045,0.304878,-0.853659,0.121951
1548434433273.000000,-0.129700,-0.828003,-0.571594,0.182927,-0.731707,0.121951
1548434433288.000000,-0.127747,-0.829773,-0.572144,0.060976,-0.731707,0.182927
1548434433295.000000,-0.128174,-0.826599,-0.575012,0.060976,-0.914634,0.121951
1548434433303.000000,-0.128845,-0.826904,-0.573303,0.000000,-0.792683,0.000000
1548434433310.000000,-0.128906,-0.827637,-0.573608,0.243902,-0.792683,0.121951
1548434433325.000000,-0.129028,-0.828613,-0.574280,0.426829,-0.792683,0.182927
1548434433333.000000,-0.131958,-0.826172,-0.574036,0.670732,-0.731707,0.182927
1548434433340.000000,-0.130249,-0.827209,-0.572693,0.792683,-0.670732,0.304878
1548434433363.000000,-0.130615,-0.826416,-0.571655,0.670732,-0.548781,0.365854
1548434433364.000000,-0.131897,-0.823730,-0.570862,0.426829,-0.548781,0.365854
1548434433371.000000,-0.133118,-0.822754,-0.573059,0.487805,-0.548781,0.426829
1548434433386.000000,-0.132751,-0.825867,-0.573059,0.426829,-0.670732,0.365854
1548434433393.000000,-0.130371,-0.825562,-0.571472,0.487805,-0.670732,0.304878
1548434433401.000000,-0.128113,-0.825317,-0.570740,0.609756,-0.670732,0.243902
1548434433416.000000,-0.128296,-0.827637,-0.571106,0.792683,-0.792683,0.060976
1548434433423.000000,-0.126282,-0.828979,-0.572021,1.097561,-0.975610,0.000000
1548434433431.000000,-0.123230,-0.830017,-0.570007,1.219512,-1.158537,0.060976
1548434433445.000000,-0.124268,-0.830627,-0.571228,1.097561,-1.219512,0.121951
1548434433453.000000,-0.122864,-0.829895,-0.572144,0.914634,-1.280488,0.060976
1548434433460.000000,-0.124023,-0.830566,-0.569641,0.609756,-1.341463,0.060976
1548434433475.000000,-0.125061,-0.833862,-0.571777,0.487805,-1.402439,0.060976
1548434433483.000000,-0.125610,-0.830017,-0.572937,0.426829,-1.463415,0.121951
1548434433490.000000,-0.126709,-0.827332,-0.570496,0.365854,-1.463415,0.121951
1548434433505.000000,-0.128479,-0.829712,-0.571106,0.548781,-1.341463,0.182927
1548434433528.000000,-0.128784,-0.829224,-0.571228,0.792683,-1.341463,0.365854
1548434433528.000000,-0.130493,-0.829346,-0.571167,0.975610,-1.402439,0.487805
1548434433535.000000,-0.130432,-0.826965,-0.569824,0.914634,-1.280488,0.548781
1548434433543.000000,-0.129517,-0.824158,-0.570801,0.914634,-1.280488,0.487805
1548434433550.000000,-0.130371,-0.823669,-0.571655,0.975610,-1.158537,0.487805
1548434433565.000000,-0.129517,-0.827026,-0.569885,1.097561,-1.097561,0.548781
1548434433573.000000,-0.129822,-0.828064,-0.570190,1.036585,-1.219512,0.487805
1548434433580.000000,-0.129639,-0.827820,-0.573608,1.158537,-1.219512,0.426829
1548434433603.000000,-0.129395,-0.829895,-0.572876,1.219512,-1.341463,0.426829
1548434433603.000000,-0.131531,-0.829651,-0.571838,1.402439,-1.341463,0.548781
1548434433610.000000,-0.131470,-0.830627,-0.572205,1.402439,-1.402439,0.487805
1548434433625.000000,-0.131653,-0.828796,-0.569153,1.463415,-1.463415,0.487805
1548434433633.000000,-0.132935,-0.830444,-0.568970,1.341463,-1.524390,0.548781
1548434433640.000000,-0.133667,-0.829407,-0.567871,1.097561,-1.402439,0.548781
1548434433656.000000,-0.132629,-0.828003,-0.568420,0.975610,-1.341463,0.548781
1548434433663.000000,-0.131836,-0.827209,-0.567993,0.853659,-1.219512,0.487805
1548434433670.000000,-0.131653,-0.829102,-0.569092,0.914634,-1.097561,0.487805
1548434433685.000000,-0.131042,-0.829651,-0.568176,0.853659,-0.975610,0.426829
1548434433693.000000,-0.130737,-0.829773,-0.570618,0.853659,-0.975610,0.365854
1548434433700.000000,-0.129883,-0.830078,-0.571411,0.792683,-0.975610,0.365854
1548434433715.000000,-0.130798,-0.831238,-0.571838,0.853659,-0.914634,0.365854
1548434433723.000000,-0.129517,-0.829834,-0.570801,0.975610,-0.914634,0.365854
1548434433730.000000,-0.129089,-0.830627,-0.571106,0.731707,-0.853659,0.365854
1548434433745.000000,-0.131226,-0.829712,-0.569153,0.609756,-0.975610,0.243902
1548434433753.000000,-0.130066,-0.828247,-0.569519,0.670732,-0.975610,0.426829
1548434433768.000000,-0.127625,-0.828918,-0.570374,0.670732,-0.975610,0.426829
1548434433775.000000,-0.129517,-0.826660,-0.566406,0.792683,-1.036585,0.304878
1548434433783.000000,-0.128906,-0.828918,-0.566406,0.792683,-1.158537,0.365854
1548434433790.000000,-0.130676,-0.831909,-0.566467,0.853659,-1.097561,0.304878
1548434433805.000000,-0.130432,-0.831726,-0.569275,0.853659,-1.219512,0.304878
1548434433813.000000,-0.131348,-0.832581,-0.568970,0.914634,-1.219512,0.243902
1548434433820.000000,-0.132507,-0.830566,-0.566528,0.853659,-1.280488,0.243902
1548434433835.000000,-0.132812,-0.830627,-0.567017,0.853659,-1.219512,0.304878
1548434433851.000000,-0.133423,-0.832214,-0.566589,0.670732,-1.219512,0.365854
1548434433851.000000,-0.133972,-0.830078,-0.568176,0.548781,-1.280488,0.365854
1548434433865.000000,-0.132568,-0.829407,-0.569153,0.670732,-1.219512,0.426829
1548434433873.000000,-0.132629,-0.829468,-0.567871,0.731707,-1.158537,0.426829
1548434433881.000000,-0.133789,-0.829346,-0.567139,0.792683,-1.158537,0.426829
1548434433895.000000,-0.132324,-0.829041,-0.566589,0.731707,-1.219512,0.304878
1548434433903.000000,-0.130798,-0.828552,-0.568359,0.853659,-1.158537,0.365854
1548434433910.000000,-0.131409,-0.827026,-0.564880,0.975610,-1.097561,0.243902
1548434433926.000000,-0.128235,-0.821899,-0.567017,1.341463,-1.280488,0.304878
1548434433933.000000,-0.127747,-0.824890,-0.570923,1.829268,-1.402439,0.487805
1548434433940.000000,-0.122437,-0.813354,-0.590881,2.621951,-1.890244,0.548781
1548434433955.000000,-0.107727,-0.772278,-0.611633,3.902439,-3.353659,0.426829
1548434433963.000000,-0.101807,-0.785828,-0.621399,7.256098,-5.853659,-0.304878
1548434433970.000000,-0.122986,-0.837646,-0.592712,16.280489,-8.536586,0.365854
1548434433985.000000,-0.132568,-0.833069,-0.592102,28.292683,-9.695122,3.780488
1548434433993.000000,-0.129211,-0.813660,-0.586487,37.317074,-8.658537,7.317073
1548434434000.000000,-0.130432,-0.817017,-0.565308,46.280487,-7.378049,9.634147
1548434434016.000000,-0.138367,-0.820618,-0.575500,54.146343,-7.682927,12.500000
1548434434023.000000,-0.126648,-0.810242,-0.591309,58.414635,-9.695122,12.987805
1548434434031.000000,-0.154419,-0.794189,-0.531067,62.987808,-12.378049,13.231708
1548434434046.000000,-0.175476,-0.808167,-0.523315,68.841469,-12.926829,13.841464
1548434434060.000000,-0.145691,-0.799072,-0.536255,73.048782,-12.012196,10.121951
1548434434061.000000,-0.123779,-0.849426,-0.488525,84.024391,-16.524391,7.621952
1548434434076.000000,-0.128662,-0.927612,-0.449585,94.329269,-18.231709,9.451220
1548434434090.000000,-0.157288,-0.996399,-0.411560,97.012199,-20.975611,13.475610
1548434434091.000000,-0.170837,-1.001465,-0.389648,95.426834,-23.597561,15.853659
1548434434106.000000,-0.170898,-0.964417,-0.381836,92.500000,-22.987806,18.231709
1548434434120.000000,-0.168396,-0.925293,-0.383972,88.841469,-22.195122,19.390244
1548434434121.000000,-0.166443,-0.895935,-0.377014,88.231712,-21.646341,20.914635
1548434434136.000000,-0.182434,-0.904846,-0.350891,91.463417,-19.939024,23.536587
1548434434143.000000,-0.199646,-0.951538,-0.316833,96.524391,-19.268293,26.646341
1548434434150.000000,-0.204895,-0.976257,-0.288269,102.378052,-16.768293,30.914635
1548434434165.000000,-0.207336,-0.941528,-0.265381,106.219513,-13.414635,34.390244
1548434434173.000000,-0.207581,-0.974487,-0.243225,109.207321,-12.621951,34.085365
1548434434188.000000,-0.206909,-0.996338,-0.222717,112.804878,-13.414635,29.024391
1548434434195.000000,-0.230042,-1.001587,-0.223816,111.768295,-15.487805,19.634148
1548434434203.000000,-0.229004,-0.979614,-0.216187,102.317078,-16.280489,12.865854
1548434434218.000000,-0.204285,-0.963135,-0.212280,92.865852,-12.621951,11.402439
1548434434233.000000,-0.217834,-0.941162,-0.198059,89.573174,-8.841464,8.597561
1548434434234.000000,-0.217957,-0.874023,-0.182678,91.219513,-9.817074,9.329268
1548434434240.000000,-0.215942,-0.902771,-0.175476,102.987808,-10.792684,8.780488
1548434434255.000000,-0.232910,-0.965881,-0.153259,118.292686,-9.695122,4.939024
1548434434263.000000,-0.197449,-0.911499,-0.120667,125.000000,-9.634147,7.500000
1548434434270.000000,-0.206543,-0.933716,-0.109680,131.951218,-8.231708,5.426829
1548434434285.000000,-0.233826,-0.951538,-0.076538,144.817078,-12.743903,-0.426829
1548434434293.000000,-0.255432,-0.979614,-0.049133,161.829269,-16.280489,-1.463415
1548434434300.000000,-0.263977,-0.993530,-0.003174,174.817078,-16.036585,-0.853659
1548434434315.000000,-0.243469,-0.971313,0.064880,186.890244,-15.000000,0.365854
1548434434323.000000,-0.281189,-1.007385,0.073120,197.012207,-14.024390,-0.365854
1548434434330.000000,-0.276794,-1.043945,0.096619,205.487808,-15.975610,-1.951220
1548434434346.000000,-0.240234,-0.937317,0.123962,191.951218,-10.792684,2.439024
1548434434353.000000,-0.223267,-0.959717,0.158813,185.609756,-9.268292,-0.426829
1548434434360.000000,-0.243530,-0.986572,0.193848,190.670731,-12.500000,-2.012195
1548434434376.000000,-0.252563,-1.018677,0.237427,199.573181,-13.475610,-1.097561
1548434434383.000000,-0.243164,-1.005554,0.269470,196.402451,-10.243902,1.402439
1548434434391.000000,-0.264648,-1.047485,0.328064,191.524399,-9.085366,1.280488
1548434434406.000000,-0.236389,-1.065796,0.377808,187.621948,-7.621952,3.353659
1548434434413.000000,-0.235413,-1.083191,0.399231,182.865860,-4.512195,7.926829
1548434434420.000000,-0.252197,-1.071167,0.413513,176.707321,-4.268293,8.353659
1548434434435.000000,-0.259888,-1.053833,0.428589,166.097565,-2.195122,8.902439
1548434434443.000000,-0.275818,-1.080688,0.443359,153.536591,-0.609756,11.707317
1548434434450.000000,-0.245544,-1.029419,0.467529,135.000000,1.402439,15.731708
1548434434465.000000,-0.239563,-1.004700,0.489075,116.524391,6.036585,19.390244
1548434434473.000000,-0.256348,-0.987366,0.521301,105.304878,6.341464,21.524391
1548434434487.000000,-0.251038,-0.969482,0.538391,97.804878,7.012195,23.841463
1548434434495.000000,-0.255066,-0.943970,0.561401,92.256104,9.939025,25.670732
1548434434503.000000,-0.263184,-0.942749,0.572937,90.121956,11.036586,26.280489
1548434434510.000000,-0.263184,-0.902649,0.577332,85.975609,13.536586,27.195122
1548434434525.000000,-0.263306,-0.918091,0.580811,82.804878,15.548780,28.719513
1548434434532.000000,-0.267212,-0.922180,0.582031,76.585365,18.658537,28.048780
1548434434548.000000,-0.276001,-0.900024,0.580811,67.987808,21.158537,28.719513
1548434434570.000000,-0.281372,-0.873718,0.592102,58.475613,22.682928,28.719513
1548434434570.000000,-0.284607,-0.859314,0.602844,50.365856,24.695122,28.597561
1548434434571.000000,-0.293762,-0.851501,0.615906,44.634148,26.158537,29.146341
1548434434585.000000,-0.308533,-0.848083,0.615723,41.463417,27.560976,28.963415
1548434434600.000000,-0.313965,-0.839600,0.612671,39.024391,28.780489,29.268293
1548434434600.000000,-0.324219,-0.836853,0.614929,35.975609,30.000000,29.939026
1548434434615.000000,-0.329773,-0.831238,0.604004,33.658539,31.158537,30.548780
1548434434622.000000,-0.331299,-0.832520,0.596741,31.280489,32.378048,31.280489
1548434434630.000000,-0.338379,-0.839233,0.599854,29.268293,33.231709,31.829269
1548434434645.000000,-0.348145,-0.832703,0.598328,28.475611,34.024391,32.804878
1548434434653.000000,-0.358276,-0.827148,0.600952,27.378050,34.756100,34.024391
1548434434660.000000,-0.363159,-0.831421,0.600342,24.939026,35.487804,35.060978
1548434434675.000000,-0.368652,-0.837708,0.597473,22.256098,35.914635,35.792683
1548434434683.000000,-0.379517,-0.840515,0.603149,19.634148,36.341465,36.646343
1548434434690.000000,-0.389099,-0.837341,0.598206,17.500000,36.768295,37.865856
1548434434705.000000,-0.395081,-0.829102,0.596558,16.219513,37.317074,39.329269
1548434434713.000000,-0.411377,-0.810791,0.607117,15.121951,37.682926,40.304878
1548434434720.000000,-0.421021,-0.812256,0.601990,15.426829,38.048782,41.524391
1548434434735.000000,-0.428406,-0.825073,0.591614,17.378050,38.963417,42.560978
1548434434742.000000,-0.443909,-0.837769,0.591736,17.378050,40.121952,43.475613
1548434434750.000000,-0.451904,-0.834290,0.586426,14.451220,40.975609,44.634148
1548434434765.000000,-0.455261,-0.812317,0.571289,10.609756,42.073174,46.158539
1548434434772.000000,-0.465881,-0.788757,0.559753,7.500000,43.170734,47.500000
1548434434780.000000,-0.476074,-0.785034,0.548523,5.792683,43.841465,48.414635
1548434434795.000000,-0.490356,-0.782898,0.535461,5.304878,44.024391,49.207317
1548434434803.000000,-0.497559,-0.772827,0.537354,2.865854,44.268295,49.939026
1548434434810.000000,-0.504395,-0.760315,0.537048,-1.097561,44.451221,50.609756
1548434434825.000000,-0.514465,-0.744690,0.533264,-3.231707,44.329269,51.585365
1548434434832.000000,-0.525330,-0.755371,0.530701,-2.621951,44.207317,52.256100
1548434434840.000000,-0.541138,-0.725159,0.506775,-1.707317,44.390244,53.048782
1548434434855.000000,-0.547546,-0.701416,0.486511,-2.500000,44.024391,53.719513
1548434434863.000000,-0.546875,-0.695251,0.468506,-4.085366,44.207317,53.353661
1548434434870.000000,-0.545715,-0.693420,0.443665,-6.036585,43.902439,53.414635
1548434434885.000000,-0.559692,-0.696045,0.440002,-8.292683,42.560978,54.024391
1548434434893.000000,-0.588257,-0.680237,0.447754,-11.280488,40.487804,54.268295
1548434434900.000000,-0.566223,-0.651184,0.451233,-15.060976,39.207317,53.719513
1548434434915.000000,-0.584167,-0.644531,0.479431,-17.317074,38.963417,53.414635
1548434434922.000000,-0.615601,-0.625427,0.497864,-17.865854,36.646343,52.560978
1548434434930.000000,-0.637695,-0.602661,0.514160,-17.256098,35.792683,51.463417
1548434434945.000000,-0.639221,-0.601685,0.517029,-15.121951,36.585365,50.243904
1548434434952.000000,-0.635010,-0.601257,0.511658,-12.500000,37.926830,49.695122
1548434434960.000000,-0.656799,-0.586243,0.502502,-10.243902,38.353661,49.085365
1548434434983.000000,-0.669983,-0.587402,0.485962,-8.475610,38.353661,48.353661
1548434434983.000000,-0.661926,-0.601135,0.470825,-6.890244,39.390244,48.109756
1548434434990.000000,-0.669861,-0.600098,0.463684,-5.060976,40.060978,47.987804
1548434435005.000000,-0.689453,-0.595032,0.464478,-4.146341,39.695122,47.560978
1548434435013.000000,-0.695801,-0.600159,0.468994,-3.170732,39.817074,47.439026
1548434435020.000000,-0.669373,-0.629333,0.466309,-1.585366,40.670734,47.804878
1548434435035.000000,-0.686096,-0.636169,0.477173,0.731707,41.219513,48.780487
1548434435042.000000,-0.743164,-0.626343,0.480286,1.341463,39.634148,49.390244
1548434435050.000000,-0.730164,-0.633057,0.471619,-0.304878,40.487804,49.634148
1548434435065.000000,-0.708679,-0.642822,0.465637,-0.365854,44.939026,51.646343
1548434435072.000000,-0.721863,-0.630859,0.472107,-1.036585,46.402439,53.109756
1548434435080.000000,-0.713684,-0.633362,0.464355,-3.353659,46.768295,53.963417
1548434435095.000000,-0.727539,-0.611877,0.451111,-4.939024,47.987804,55.914635
1548434435103.000000,-0.773560,-0.592896,0.423340,-6.524390,47.195122,57.256100
1548434435110.000000,-0.767273,-0.589417,0.393555,-9.634147,47.195122,57.439026
1548434435125.000000,-0.747253,-0.580688,0.365784,-12.439025,49.756100,58.719513
1548434435133.000000,-0.732544,-0.554993,0.336182,-15.304878,50.609756,59.329269
1548434435140.000000,-0.733276,-0.522705,0.319641,-18.414635,49.268295,58.597561
1548434435155.000000,-0.779053,-0.492493,0.298035,-19.878050,46.402439,57.621952
1548434435162.000000,-0.783569,-0.491028,0.292603,-21.402439,43.353661,54.756100
1548434435170.000000,-0.780884,-0.481201,0.282043,-21.280489,43.292683,53.353661
1548434435185.000000,-0.774719,-0.466248,0.276367,-22.073172,42.621952,51.768295
1548434435192.000000,-0.776184,-0.431091,0.273865,-22.682928,41.951221,49.329269
1548434435200.000000,-0.797852,-0.391785,0.275269,-21.646341,39.939026,46.646343
1548434435215.000000,-0.820923,-0.390503,0.279968,-17.987804,37.560978,42.621952
1548434435222.000000,-0.842285,-0.394287,0.270813,-11.097561,36.280487,40.000000
1548434435230.000000,-0.832825,-0.399719,0.256287,-5.243903,35.731709,37.743904
1548434435245.000000,-0.830688,-0.403748,0.242859,-1.524390,36.463417,35.487804
1548434435252.000000,-0.842041,-0.412659,0.225342,1.524390,35.548782,33.353661
1548434435260.000000,-0.855103,-0.409424,0.220093,3.170732,33.658539,30.853659
1548434435275.000000,-0.855652,-0.408875,0.220947,3.475610,32.073170,29.207317
1548434435283.000000,-0.867432,-0.408203,0.228210,3.719512,30.731709,26.890245
1548434435290.000000,-0.876526,-0.428040,0.230164,4.207317,29.024391,25.182928
1548434435305.000000,-0.868591,-0.426636,0.237305,4.207317,28.902439,24.573172
1548434435313.000000,-0.874207,-0.410400,0.248535,2.865854,28.780489,23.780489
1548434435320.000000,-0.891174,-0.392517,0.253540,2.134146,27.987806,22.012196
1548434435335.000000,-0.891907,-0.388550,0.251221,4.329268,27.560976,20.548780
1548434435343.000000,-0.879089,-0.397583,0.233215,8.597561,28.292683,20.182928
1548434435350.000000,-0.854675,-0.417053,0.205627,12.073171,28.536587,19.207317
1548434435365.000000,-0.857483,-0.403381,0.186890,12.987805,27.743902,17.317074
1548434435373.000000,-0.890808,-0.396362,0.162109,11.951220,25.792683,15.304878
1548434435380.000000,-0.889526,-0.404968,0.139954,9.939025,23.963415,12.743903
1548434435395.000000,-0.860657,-0.408020,0.127014,9.390244,23.963415,11.097561
1548434435403.000000,-0.848511,-0.392151,0.113708,7.073171,23.170732,9.939025
1548434435410.000000,-0.877441,-0.365906,0.114685,3.109756,20.182928,7.560976
1548434435425.000000,-0.896790,-0.362976,0.115234,0.182927,16.341463,4.146341
1548434435432.000000,-0.898499,-0.365112,0.118530,0.243902,13.597561,2.134146
1548434435440.000000,-0.898376,-0.368469,0.130371,1.707317,11.219512,0.304878
1548434435455.000000,-0.911011,-0.376526,0.137512,3.231707,8.536586,-1.097561
1548434435463.000000,-0.915710,-0.397278,0.145142,3.841464,5.487805,-2.865854
1548434435470.000000,-0.920959,-0.399292,0.141052,3.719512,3.841464,-3.292683
1548434435485.000000,-0.923767,-0.414673,0.143921,2.682927,1.890244,-3.414634
1548434435493.000000,-0.926025,-0.433411,0.156860,2.073171,0.609756,-3.902439
1548434435500.000000,-0.924683,-0.456604,0.167358,2.926829,-0.609756,-3.536585
1548434435515.000000,-0.927490,-0.475952,0.181030,4.146341,-1.524390,-2.926829
1548434435522.000000,-0.930298,-0.490601,0.197571,3.414634,-2.256098,-2.439024
1548434435530.000000,-0.929138,-0.486633,0.208618,2.012195,-2.195122,-1.463415
1548434435545.000000,-0.931213,-0.484924,0.213379,0.914634,-1.890244,0.243902
1548434435552.000000,-0.918579,-0.493713,0.220154,0.670732,-1.402439,1.585366
1548434435560.000000,-0.916992,-0.484375,0.231201,1.646341,-1.036585,3.170732
1548434435575.000000,-0.968079,-0.469238,0.237305,2.621951,-1.890244,3.536585
1548434435582.000000,-0.971924,-0.456970,0.238464,2.134146,-2.439024,3.658537
1548434435590.000000,-0.940308,-0.458191,0.234131,3.719512,0.487805,6.036585
1548434435605.000000,-0.934448,-0.450378,0.226746,5.426829,2.804878,7.439024
1548434435612.000000,-0.936035,-0.449768,0.221008,6.463415,3.353659,7.500000
1548434435620.000000,-0.931641,-0.441101,0.216614,7.012195,3.719512,7.500000
1548434435635.000000,-0.929871,-0.424316,0.210571,7.195122,4.390244,7.621952
1548434435642.000000,-0.931091,-0.419250,0.209045,6.829268,4.573171,7.378049
1548434435650.000000,-0.929199,-0.401306,0.210510,7.560976,4.756098,6.707317
1548434435665.000000,-0.924133,-0.385498,0.204895,8.841464,5.243903,5.731708
1548434435672.000000,-0.921204,-0.368225,0.199036,10.975610,5.731708,4.024390
1548434435680.000000,-0.915649,-0.354248,0.189758,14.756098,6.280488,1.768293
1548434435695.000000,-0.909363,-0.342468,0.186951,19.512196,6.707317,-0.792683
1548434435702.000000,-0.903564,-0.316101,0.199219,24.695122,6.768293,-3.536585
1548434435710.000000,-0.906921,-0.300171,0.203308,28.170732,6.158537,-5.548780
1548434435725.000000,-0.899963,-0.325867,0.191528,28.658537,4.634146,-8.292683
1548434435732.000000,-0.885681,-0.372437,0.164673,27.987806,4.085366,-12.073171
1548434435740.000000,-0.889465,-0.411743,0.151855,28.780489,2.865854,-13.658537
1548434435755.000000,-0.901855,-0.435486,0.143433,30.670732,0.792683,-14.085366
1548434435762.000000,-0.911194,-0.452515,0.143494,29.756098,-1.158537,-14.634147
1548434435770.000000,-0.919983,-0.475586,0.159729,26.646341,-1.951220,-14.817074
1548434435785.000000,-0.932007,-0.497437,0.179077,23.780489,-3.170732,-13.597561
1548434435792.000000,-0.942566,-0.497070,0.198425,19.878050,-4.329268,-11.890244
1548434435800.000000,-0.940125,-0.505249,0.211304,15.060976,-5.121951,-10.243902
1548434435815.000000,-0.946167,-0.516235,0.216370,12.621951,-5.304878,-8.414635
1548434435823.000000,-0.953430,-0.514526,0.224548,11.158537,-5.792683,-5.792683
1548434435830.000000,-0.951599,-0.499878,0.232727,8.475610,-5.853659,-3.048780
1548434435845.000000,-0.947815,-0.479004,0.237976,5.731708,-5.365854,-0.975610
1548434435852.000000,-0.943604,-0.475647,0.240601,4.024390,-4.634146,0.914634
1548434435860.000000,-0.943848,-0.474915,0.237122,4.268293,-4.146341,2.439024
1548434435875.000000,-0.943420,-0.483093,0.236145,4.512195,-3.841464,3.719512
1548434435882.000000,-0.938477,-0.473206,0.232544,3.109756,-3.170732,4.207317
1548434435890.000000,-0.928772,-0.454651,0.228760,-0.304878,-2.439024,4.573171
1548434435905.000000,-0.924927,-0.449402,0.231262,-3.292683,-1.829268,4.817073
1548434435912.000000,-0.923340,-0.443359,0.232666,-4.207317,-1.463415,4.695122
1548434435920.000000,-0.920837,-0.446106,0.233826,-4.329268,-1.463415,4.695122
1548434435935.000000,-0.919373,-0.436340,0.234558,-4.390244,-1.402439,4.085366
1548434435943.000000,-0.916870,-0.427429,0.233276,-4.878049,-1.280488,3.658537
1548434435950.000000,-0.920776,-0.419617,0.225037,-4.817073,-1.219512,3.475610
1548434435965.000000,-0.916565,-0.415588,0.215454,-4.512195,-1.280488,3.231707
1548434435972.000000,-0.915344,-0.413513,0.201904,-4.146341,-1.280488,2.804878
1548434435980.000000,-0.912292,-0.413391,0.195740,-4.817073,-1.646341,2.256098
1548434435995.000000,-0.908142,-0.397400,0.193481,-6.097561,-2.195122,1.768293
1548434436002.000000,-0.899841,-0.385986,0.195679,-7.500000,-2.804878,1.280488
1548434436010.000000,-0.901245,-0.386108,0.201111,-7.743903,-3.231707,0.365854
1548434436025.000000,-0.903870,-0.387878,0.196228,-6.768293,-4.268293,-1.036585
1548434436032.000000,-0.903564,-0.393616,0.194214,-6.219512,-5.304878,-2.073171
1548434436040.000000,-0.903198,-0.395935,0.191345,-6.219512,-6.219512,-3.231707
1548434436055.000000,-0.913086,-0.385925,0.187561,-6.097561,-7.317073,-4.207317
1548434436062.000000,-0.912964,-0.392395,0.186218,-5.670732,-8.719512,-5.060976
1548434436070.000000,-0.913513,-0.397217,0.184204,-4.817073,-9.878049,-5.975610
1548434436085.000000,-0.915894,-0.394714,0.188538,-4.207317,-11.036586,-6.646342
1548434436092.000000,-0.915405,-0.399048,0.197754,-4.451220,-12.195122,-7.500000
1548434436100.000000,-0.914917,-0.391418,0.194153,-4.573171,-13.048780,-8.475610
1548434436115.000000,-0.915894,-0.378418,0.180237,-4.512195,-13.902439,-9.207317
1548434436122.000000,-0.909241,-0.373840,0.174805,-3.780488,-14.939025,-10.121951
1548434436130.000000,-0.902832,-0.388916,0.180481,-2.317073,-16.158537,-11.280488
1548434436145.000000,-0.903381,-0.381653,0.176025,-0.975610,-17.439024,-12.743903
1548434436152.000000,-0.897583,-0.386414,0.176575,-1.036585,-18.902439,-14.268293
1548434436160.000000,-0.890076,-0.398865,0.178711,-1.219512,-20.121952,-16.158537
1548434436175.000000,-0.888977,-0.403259,0.180786,-1.524390,-21.585367,-17.743902
1548434436182.000000,-0.886780,-0.403503,0.186523,-2.865854,-23.109756,-19.146341
1548434436190.000000,-0.876160,-0.407593,0.198303,-5.426829,-24.695122,-21.036587
1548434436205.000000,-0.868347,-0.415649,0.218872,-7.743903,-25.670732,-22.987806
1548434436212.000000,-0.864258,-0.421875,0.237854,-8.231708,-26.524391,-24.817074
1548434436220.000000,-0.865051,-0.427856,0.258362,-7.378049,-27.317074,-26.219513
1548434436235.000000,-0.863586,-0.434387,0.274658,-5.792683,-27.682928,-27.378050
1548434436242.000000,-0.862854,-0.446289,0.276978,-3.109756,-27.804878,-28.353659
1548434436250.000000,-0.858215,-0.468140,0.276428,0.243902,-28.048780,-29.451220
1548434436265.000000,-0.847534,-0.507080,0.280823,2.743902,-28.353659,-30.243902
1548434436272.000000,-0.842529,-0.541687,0.285950,3.597561,-28.536587,-30.182928
1548434436280.000000,-0.841248,-0.546875,0.283752,1.829268,-28.658537,-30.426830
1548434436295.000000,-0.844299,-0.551392,0.290527,-2.012195,-28.963415,-29.390245
1548434436302.000000,-0.838074,-0.560608,0.307861,-6.341464,-29.268293,-28.536587
1548434436310.000000,-0.833496,-0.562927,0.333862,-9.268292,-29.573172,-27.682928
1548434436325.000000,-0.839661,-0.571289,0.352539,-10.000000,-29.634148,-26.097561
1548434436332.000000,-0.841980,-0.562195,0.355591,-9.451220,-29.512196,-24.634148
1548434436340.000000,-0.836243,-0.558044,0.354065,-8.292683,-29.268293,-22.682928
1548434436355.000000,-0.835571,-0.552917,0.340210,-6.158537,-28.841465,-21.280489
1548434436362.000000,-0.834839,-0.549500,0.326416,-3.475610,-28.658537,-20.182928
1548434436370.000000,-0.832397,-0.562439,0.320435,-1.585366,-28.597561,-19.024391
1548434436385.000000,-0.830017,-0.557495,0.320740,-1.951220,-28.780489,-18.597561
1548434436392.000000,-0.826294,-0.552490,0.326233,-4.451220,-28.780489,-18.109756
1548434436400.000000,-0.820801,-0.555847,0.334778,-7.012195,-28.536587,-18.109756
1548434436415.000000,-0.816406,-0.542786,0.334778,-7.987805,-28.475611,-18.780489
1548434436422.000000,-0.808594,-0.558350,0.347473,-7.865854,-28.353659,-19.085367
1548434436430.000000,-0.804443,-0.560425,0.362976,-7.256098,-27.987806,-19.817074
1548434436445.000000,-0.801208,-0.553162,0.361267,-7.317073,-27.621952,-20.000000
1548434436453.000000,-0.801331,-0.565247,0.349670,-7.317073,-27.012196,-19.939024
1548434436460.000000,-0.795837,-0.558167,0.333740,-6.890244,-26.829269,-20.243902
1548434436475.000000,-0.786072,-0.548767,0.317078,-7.012195,-26.890245,-20.060976
1548434436482.000000,-0.779236,-0.558167,0.320496,-7.743903,-27.134148,-20.487804
1548434436490.000000,-0.777466,-0.551941,0.328247,-8.414635,-27.682928,-21.585367
1548434436505.000000,-0.766541,-0.552063,0.331909,-9.634147,-28.170732,-22.439024
1548434436512.000000,-0.758972,-0.565063,0.341858,-10.548780,-28.597561,-23.597561
1548434436520.000000,-0.751770,-0.565430,0.353760,-11.646341,-29.451220,-24.634148
1548434436535.000000,-0.744568,-0.558044,0.367981,-13.109756,-29.695122,-25.365854
1548434436542.000000,-0.745239,-0.570801,0.385925,-13.963415,-29.939026,-26.585367
1548434436550.000000,-0.743408,-0.572510,0.384277,-12.378049,-30.365854,-27.439026
1548434436565.000000,-0.738525,-0.569702,0.369080,-9.634147,-30.487806,-27.621952
1548434436572.000000,-0.730591,-0.563904,0.350708,-7.500000,-30.487806,-27.743902
1548434436580.000000,-0.720398,-0.576721,0.345825,-5.731708,-31.097561,-28.475611
1548434436595.000000,-0.706970,-0.597229,0.346558,-3.963415,-31.890245,-29.390245
1548434436602.000000,-0.702087,-0.596619,0.359314,-2.743902,-32.987804,-30.243902
1548434436610.000000,-0.696228,-0.619141,0.393860,-3.658537,-34.146343,-31.585367
1548434436625.000000,-0.691650,-0.631592,0.418884,-5.121951,-34.451221,-33.109756
1548434436632.000000,-0.686279,-0.626953,0.421509,-6.219512,-34.695122,-33.780487
1548434436640.000000,-0.682312,-0.622070,0.422852,-7.195122,-34.329269,-34.024391
1548434436655.000000,-0.681519,-0.631226,0.423584,-7.256098,-34.512196,-34.085365
1548434436662.000000,-0.666992,-0.639160,0.410950,-7.073171,-34.817074,-34.085365
1548434436670.000000,-0.651245,-0.644470,0.408447,-8.170732,-35.000000,-34.024391
1548434436685.000000,-0.638123,-0.649963,0.408936,-10.731708,-35.792683,-34.146343
1548434436692.000000,-0.627014,-0.639832,0.404541,-13.475610,-36.646343,-35.000000
1548434436700.000000,-0.624512,-0.643555,0.401001,-14.695123,-37.195122,-35.609756
1548434436715.000000,-0.623474,-0.651978,0.410095,-14.268293,-38.109756,-36.402439
1548434436722.000000,-0.619568,-0.641479,0.413269,-13.536586,-39.085365,-37.134148
1548434436730.000000,-0.616821,-0.643311,0.425232,-12.073171,-39.695122,-37.926830
1548434436745.000000,-0.615784,-0.657227,0.443787,-9.695122,-40.487804,-38.780487
1548434436752.000000,-0.614380,-0.670044,0.464783,-7.804878,-41.524391,-39.329269
1548434436760.000000,-0.608582,-0.678162,0.480835,-6.646342,-42.317074,-39.451221
1548434436775.000000,-0.600708,-0.692871,0.486206,-6.280488,-42.500000,-39.512196
1548434436782.000000,-0.592346,-0.717102,0.489014,-6.890244,-42.743904,-39.329269
1548434436790.000000,-0.592651,-0.719910,0.484436,-8.109756,-42.804878,-38.963417
1548434436805.000000,-0.592651,-0.717590,0.483826,-9.024390,-42.256100,-38.231709
1548434436812.000000,-0.590332,-0.718079,0.484924,-9.024390,-41.707317,-37.500000
1548434436820.000000,-0.585754,-0.720947,0.493408,-8.109756,-41.219513,-37.073170
1548434436835.000000,-0.583557,-0.732666,0.513000,-6.097561,-40.365856,-36.402439
1548434436842.000000,-0.578857,-0.738892,0.519897,-3.719512,-39.451221,-36.097561
1548434436850.000000,-0.575134,-0.745178,0.512329,-0.609756,-38.170734,-35.853661
1548434436865.000000,-0.569031,-0.767822,0.503662,3.170732,-36.646343,-35.426830
1548434436872.000000,-0.563782,-0.793213,0.495056,4.329268,-35.243904,-35.121952
1548434436880.000000,-0.553772,-0.790039,0.484375,0.670732,-34.207317,-34.634148
1548434436895.000000,-0.539734,-0.795166,0.488953,-5.975610,-33.048782,-33.963417
1548434436902.000000,-0.535645,-0.790833,0.499451,-12.378049,-32.621952,-33.353661
1548434436910.000000,-0.526184,-0.766357,0.512390,-16.768293,-32.621952,-32.682926
1548434436925.000000,-0.520203,-0.754761,0.521240,-17.256098,-31.768293,-32.012196
1548434436932.000000,-0.520386,-0.753418,0.525146,-12.560976,-31.280489,-31.890245
1548434436940.000000,-0.513489,-0.750305,0.511047,-4.573171,-30.914635,-31.646341
1548434436955.000000,-0.497986,-0.769226,0.501709,3.658537,-30.060976,-31.646341
1548434436962.000000,-0.483459,-0.815002,0.507874,9.756098,-29.695122,-32.195122
1548434436970.000000,-0.475159,-0.834229,0.508789,11.890244,-29.695122,-32.500000
1548434436985.000000,-0.471497,-0.830017,0.491882,7.682927,-29.207317,-31.280489
1548434436992.000000,-0.470215,-0.805359,0.487366,-2.317073,-28.719513,-30.304878
1548434437000.000000,-0.455750,-0.784363,0.499939,-13.658537,-28.841465,-29.817074
1548434437015.000000,-0.440247,-0.772888,0.515747,-20.304878,-28.902439,-29.817074
1548434437022.000000,-0.432373,-0.754456,0.533386,-20.548780,-28.536587,-29.634148
1548434437030.000000,-0.428223,-0.744263,0.552002,-16.585365,-28.414635,-29.695122
1548434437045.000000,-0.418701,-0.768372,0.562134,-9.756098,-28.170732,-30.670732
1548434437052.000000,-0.400940,-0.788513,0.547913,-0.609756,-27.317074,-31.158537
1548434437060.000000,-0.393311,-0.799744,0.528076,7.195122,-26.341463,-31.097561
1548434437075.000000,-0.390381,-0.833557,0.517273,10.731708,-26.036587,-31.158537
1548434437082.000000,-0.381042,-0.854675,0.505127,9.878049,-26.158537,-30.975611
1548434437090.000000,-0.371094,-0.846252,0.502747,3.658537,-25.975611,-29.939026
1548434437105.000000,-0.365723,-0.850525,0.524170,-5.975610,-26.219513,-28.536587
1548434437112.000000,-0.360291,-0.851501,0.538208,-14.817074,-26.524391,-28.231709
1548434437120.000000,-0.359070,-0.822266,0.547119,-21.280489,-26.036587,-27.500000
1548434437135.000000,-0.357605,-0.795715,0.575928,-25.121952,-25.548780,-26.768293
1548434437142.000000,-0.351257,-0.792908,0.601868,-24.146341,-25.243902,-27.012196
1548434437150.000000,-0.348694,-0.793701,0.591858,-15.792684,-24.024391,-27.012196
1548434437165.000000,-0.353699,-0.799744,0.555420,-3.414634,-22.195122,-26.585367
1548434437172.000000,-0.356140,-0.811829,0.515015,5.670732,-21.219513,-26.585367
1548434437180.000000,-0.349915,-0.825012,0.488220,8.536586,-20.914635,-27.195122
1548434437195.000000,-0.343201,-0.835266,0.470947,6.829268,-21.219513,-27.621952
1548434437202.000000,-0.338379,-0.831360,0.477722,2.256098,-21.890244,-27.987806
1548434437210.000000,-0.338440,-0.807373,0.496338,-4.085366,-22.682928,-28.475611
1548434437225.000000,-0.330017,-0.792114,0.516846,-9.451220,-23.170732,-29.329269
1548434437232.000000,-0.314087,-0.799927,0.541443,-10.853659,-23.109756,-30.426830
1548434437240.000000,-0.299316,-0.809082,0.568237,-7.987805,-22.926830,-31.463415
1548434437255.000000,-0.294312,-0.802917,0.574341,-2.256098,-22.621952,-32.500000
1548434437262.000000,-0.289978,-0.801697,0.561890,4.695122,-21.951220,-32.865856
1548434437270.000000,-0.286316,-0.815430,0.542297,11.585366,-21.219513,-33.536587
1548434437285.000000,-0.277100,-0.839966,0.521423,16.219513,-21.158537,-34.207317
1548434437292.000000,-0.269043,-0.848633,0.514343,16.524391,-21.158537,-34.573170
1548434437300.000000,-0.258545,-0.858154,0.530884,13.353659,-21.463415,-34.451221
1548434437315.000000,-0.251282,-0.860596,0.552307,9.512196,-21.707317,-34.451221
1548434437323.000000,-0.244934,-0.849792,0.572083,7.195122,-21.524391,-33.841465
1548434437330.000000,-0.236084,-0.849182,0.581421,7.378049,-20.975611,-33.231709
1548434437345.000000,-0.224792,-0.870178,0.585693,8.231708,-20.243902,-33.231709
1548434437353.000000,-0.212463,-0.891663,0.587341,8.353659,-19.817074,-33.048782
1548434437360.000000,-0.208923,-0.900269,0.580200,7.560976,-19.390244,-32.378048
1548434437383.000000,-0.203430,-0.891418,0.573364,5.365854,-18.536585,-31.158537
1548434437383.000000,-0.203674,-0.874390,0.569946,2.743902,-17.865854,-30.487806
1548434437398.000000,-0.206787,-0.875305,0.567200,1.036585,-18.170732,-29.817074
1548434437405.000000,-0.201050,-0.895691,0.578369,1.585366,-18.109756,-29.634148
1548434437413.000000,-0.200562,-0.921631,0.591492,2.926829,-17.621952,-29.268293
1548434437420.000000,-0.192932,-0.955322,0.603149,4.207317,-17.256098,-28.963415
1548434437435.000000,-0.199890,-0.906006,0.602722,5.853659,-16.280489,-28.841465
1548434437443.000000,-0.212891,-0.805237,0.584106,10.975610,-16.097561,-28.170732
1548434437450.000000,-0.196045,-0.873291,0.566528,18.902439,-15.914635,-29.573172
1548434437465.000000,-0.166504,-0.916504,0.555176,27.134148,-15.609756,-34.268295
1548434437473.000000,-0.166992,-0.910400,0.544006,28.536587,-18.475611,-36.707317
1548434437480.000000,-0.164185,-0.884460,0.542725,27.073172,-22.256098,-36.890244
1548434437488.000000,-0.142273,-0.870422,0.574036,34.329269,-22.560976,-37.743904
1548434437503.000000,-0.146057,-0.866760,0.577881,44.146343,-23.902439,-39.329269
1548434437510.000000,-0.147400,-0.862732,0.579529,54.390244,-26.158537,-39.817074
1548434437518.000000,-0.133118,-0.827515,0.686401,70.609756,-26.829269,-40.365856
1548434437533.000000,-0.102051,-0.852905,0.729736,81.585365,-25.304878,-40.000000
1548434437540.000000,-0.049805,-0.916199,0.708862,73.780487,-21.768293,-37.987804
1548434437548.000000,-0.048340,-0.887756,0.727295,65.914635,-19.634148,-32.865856
1548434437563.000000,-0.084900,-0.850525,0.750366,58.902439,-18.536585,-22.560976
1548434437570.000000,-0.086670,-0.829773,0.741272,47.865856,-16.646341,-15.426829
1548434437578.000000,-0.070496,-0.798950,0.713623,35.121952,-14.268293,-14.085366
1548434437593.000000,-0.061707,-0.775635,0.701538,25.487806,-12.621951,-13.719513
1548434437600.000000,-0.060120,-0.768799,0.698181,19.573172,-11.280488,-11.951220
1548434437608.000000,-0.058289,-0.757141,0.694031,13.902439,-10.121951,-9.756098
1548434437623.000000,-0.056824,-0.751526,0.688049,7.560976,-8.597561,-7.865854
1548434437631.000000,-0.056519,-0.757385,0.692017,2.987805,-7.134147,-6.280488
1548434437638.000000,-0.057861,-0.765015,0.692810,0.670732,-5.975610,-5.426829
1548434437653.000000,-0.061768,-0.767151,0.682800,-1.158537,-4.878049,-4.695122
1548434437660.000000,-0.070618,-0.766418,0.676086,-3.353659,-4.268293,-3.719512
1548434437668.000000,-0.071289,-0.784241,0.676453,-4.512195,-3.597561,-3.353659
1548434437683.000000,-0.063354,-0.806213,0.681091,-3.841464,-3.231707,-3.658537
1548434437691.000000,-0.061523,-0.817322,0.685059,-2.682927,-2.743902,-3.109756
1548434437698.000000,-0.066101,-0.812561,0.676147,-2.317073,-1.829268,-1.219512
1548434437713.000000,-0.069580,-0.800598,0.659546,-3.353659,-0.975610,0.548781
1548434437720.000000,-0.070007,-0.785339,0.653137,-4.207317,-0.487805,1.097561
1548434437728.000000,-0.070679,-0.775452,0.645752,-3.597561,-0.304878,0.914634
1548434437743.000000,-0.072205,-0.769287,0.641357,-1.585366,-0.304878,0.853659
1548434437751.000000,-0.075562,-0.767029,0.646851,0.975610,-0.365854,0.731707
1548434437758.000000,-0.077881,-0.763611,0.646667,3.353659,-0.548781,0.365854
1548434437773.000000,-0.078003,-0.767822,0.648010,5.182927,-0.914634,0.060976
1548434437780.000000,-0.075317,-0.774902,0.655701,6.768293,-1.158537,-0.304878
1548434437788.000000,-0.072693,-0.785034,0.665955,8.658537,-1.524390,-0.670732
1548434437803.000000,-0.072571,-0.786804,0.676025,9.939025,-1.768293,-0.609756
1548434437811.000000,-0.074951,-0.784912,0.681702,10.000000,-1.890244,-0.243902
1548434437818.000000,-0.074158,-0.785889,0.686035,9.329268,-1.829268,0.060976
1548434437833.000000,-0.074036,-0.780762,0.684021,7.804878,-1.707317,0.243902
1548434437840.000000,-0.075134,-0.774658,0.679688,5.670732,-1.524390,0.365854
1548434437848.000000,-0.075256,-0.772705,0.674988,3.780488,-1.341463,0.487805
1548434437863.000000,-0.073730,-0.774353,0.673096,2.195122,-1.036585,0.487805
1548434437871.000000,-0.074402,-0.772705,0.670410,1.158537,-0.975610,0.365854
1548434437878.000000,-0.075256,-0.770020,0.668457,0.731707,-1.036585,0.182927
1548434437893.000000,-0.073364,-0.773071,0.671143,0.792683,-1.097561,0.365854
1548434437901.000000,-0.070984,-0.773682,0.671631,0.914634,-0.975610,0.182927
1548434437916.000000,-0.071960,-0.774902,0.671448,0.853659,-1.036585,0.060976
1548434437923.000000,-0.071472,-0.775818,0.673706,1.219512,-0.975610,0.182927
1548434437931.000000,-0.073486,-0.772888,0.673584,1.524390,-1.097561,0.182927
1548434437938.000000,-0.073486,-0.770874,0.674622,1.463415,-1.036585,0.000000
1548434437954.000000,-0.071106,-0.773254,0.675232,1.463415,-1.036585,0.000000
1548434437961.000000,-0.067871,-0.776367,0.677612,1.951220,-0.975610,-0.060976
1548434437968.000000,-0.067017,-0.777771,0.677429,2.378049,-0.914634,-0.060976
1548434437990.000000,-0.069458,-0.774841,0.679138,2.378049,-0.914634,0.121951
1548434437991.000000,-0.068481,-0.772827,0.675171,2.256098,-0.853659,0.182927
1548434437998.000000,-0.068542,-0.773254,0.677917,1.890244,-0.792683,0.243902
1548434438013.000000,-0.068359,-0.775146,0.677979,1.829268,-0.792683,0.304878
1548434438020.000000,-0.068726,-0.774048,0.676453,1.585366,-0.670732,0.426829
1548434438035.000000,-0.070740,-0.774353,0.677979,1.280488,-0.609756,0.609756
1548434438043.000000,-0.070801,-0.775269,0.675293,0.914634,-0.548781,0.853659
1548434438050.000000,-0.069763,-0.772644,0.676147,0.487805,-0.487805,0.853659
1548434438058.000000,-0.070557,-0.773926,0.678894,0.060976,-0.487805,0.975610
1548434438073.000000,-0.071350,-0.777344,0.680420,-0.182927,-0.548781,0.914634
1548434438080.000000,-0.070435,-0.774902,0.675903,-0.853659,-0.670732,0.975610
1548434438088.000000,-0.071167,-0.772156,0.669312,-1.524390,-0.670732,1.097561
1548434438103.000000,-0.069153,-0.776611,0.672241,-1.585366,-0.670732,1.097561
1548434438110.000000,-0.067932,-0.777283,0.674255,-1.341463,-0.792683,1.097561
1548434438118.000000,-0.070923,-0.771057,0.671631,-0.914634,-0.853659,1.219512
1548434438133.000000,-0.071777,-0.772766,0.673279,-0.731707,-0.914634,1.524390
1548434438140.000000,-0.069885,-0.774292,0.671143,-0.548781,-1.036585,1.341463
1548434438148.000000,-0.069824,-0.775452,0.670166,-0.182927,-0.975610,1.341463
1548434438163.000000,-0.070557,-0.775269,0.669250,0.121951,-1.097561,1.402439
1548434438170.000000,-0.071533,-0.776672,0.670654,0.670732,-1.280488,1.524390
1548434438178.000000,-0.074768,-0.774292,0.671997,1.158537,-1.280488,1.524390
1548434438193.000000,-0.075806,-0.770081,0.674316,1.585366,-1.341463,1.524390
1548434438200.000000,-0.077026,-0.767273,0.678711,2.012195,-1.341463,1.524390
1548434438215.000000,-0.080261,-0.766541,0.674438,2.500000,-1.646341,1.341463
1548434438230.000000,-0.080261,-0.769226,0.674377,2.926829,-1.768293,1.036585
1548434438231.000000,-0.080444,-0.771851,0.675903,3.292683,-1.829268,0.426829
1548434438238.000000,-0.076843,-0.773254,0.675171,3.719512,-2.012195,-0.121951
1548434438252.000000,-0.076599,-0.772095,0.678101,4.390244,-2.012195,-0.426829
1548434438260.000000,-0.075256,-0.769104,0.681152,5.182927,-2.012195,-0.426829
1548434438268.000000,-0.073975,-0.765808,0.680908,5.792683,-2.012195,-0.548781
1548434438283.000000,-0.071716,-0.765137,0.683350,5.975610,-2.073171,-0.792683
1548434438290.000000,-0.067566,-0.767944,0.687805,5.914634,-2.073171,-0.975610
1548434438298.000000,-0.067871,-0.768066,0.690186,5.670732,-1.951220,-0.914634
1548434438313.000000,-0.069275,-0.767944,0.691406,5.243903,-1.768293,-0.731707
1548434438320.000000,-0.068481,-0.768738,0.694275,4.512195,-1.463415,-0.609756
1548434438335.000000,-0.068604,-0.767395,0.692444,3.109756,-1.158537,-0.304878
1548434438343.000000,-0.066772,-0.768066,0.691223,1.768293,-0.853659,-0.060976
1548434438350.000000,-0.068848,-0.767090,0.688843,0.731707,-0.609756,0.121951
1548434438366.000000,-0.068726,-0.766479,0.687622,-0.121951,-0.487805,0.426829
1548434438388.000000,-0.068420,-0.766785,0.681824,-0.609756,-0.365854,0.487805
1548434438388.000000,-0.070007,-0.763916,0.678772,-0.548781,-0.365854,0.548781
1548434438389.000000,-0.071777,-0.764099,0.677002,-0.243902,-0.304878,0.670732
1548434438403.000000,-0.071228,-0.766724,0.681091,0.000000,-0.487805,0.548781
1548434438410.000000,-0.071655,-0.771790,0.682617,0.487805,-0.548781,0.304878
1548434438418.000000,-0.073242,-0.771790,0.681519,0.792683,-0.548781,0.304878
1548434438434.000000,-0.072571,-0.769592,0.681946,1.097561,-0.548781,0.182927
1548434438455.000000,-0.072388,-0.769531,0.682800,1.097561,-0.487805,0.182927
1548434438456.000000,-0.074097,-0.767517,0.679932,1.219512,-0.487805,0.121951
1548434438463.000000,-0.077087,-0.768921,0.680237,1.341463,-0.487805,0.060976
1548434438485.000000,-0.076721,-0.769043,0.680115,1.280488,-0.487805,0.000000
1548434438508.000000,-0.078369,-0.765320,0.678772,1.341463,-0.548781,-0.060976
1548434438516.000000,-0.076721,-0.768005,0.677734,1.341463,-0.548781,-0.121951
1548434438516.000000,-0.074707,-0.768799,0.677002,1.219512,-0.609756,-0.243902
1548434438517.000000,-0.073242,-0.764709,0.679626,1.341463,-0.792683,-0.365854
1548434438523.000000,-0.072327,-0.764526,0.679688,1.463415,-0.975610,-0.487805
1548434438531.000000,-0.067993,-0.768188,0.678833,1.829268,-0.914634,-0.487805
1548434438538.000000,-0.064331,-0.770691,0.680237,2.012195,-0.853659,-0.426829
1548434438554.000000,-0.064575,-0.767700,0.681030,2.195122,-0.914634,-0.243902
1548434438568.000000,-0.065735,-0.768494,0.683350,2.317073,-1.158537,0.000000
1548434438575.000000,-0.066833,-0.765198,0.684631,2.134146,-1.158537,0.304878
1548434438583.000000,-0.067627,-0.765625,0.682251,1.829268,-1.097561,0.609756
1548434438598.000000,-0.066895,-0.766357,0.684021,1.890244,-1.219512,0.670732
1548434438598.000000,-0.067932,-0.766113,0.685974,2.134146,-1.341463,0.670732
1548434438613.000000,-0.067200,-0.766052,0.686279,1.951220,-1.341463,0.731707
1548434438628.000000,-0.069641,-0.764954,0.686401,1.829268,-1.341463,0.731707
1548434438629.000000,-0.070496,-0.762146,0.687378,2.073171,-1.280488,0.670732
1548434438665.000000,-0.067627,-0.762268,0.688782,2.560976,-1.280488,0.670732
1548434438673.000000,-0.068237,-0.763916,0.690002,2.743902,-1.341463,0.487805
1548434438680.000000,-0.071350,-0.761047,0.685547,2.500000,-1.219512,0.426829
1548434438681.000000,-0.071960,-0.760498,0.685852,2.073171,-1.097561,0.426829
1548434438682.000000,-0.070923,-0.762878,0.688965,2.134146,-1.097561,0.304878
1548434438689.000000,-0.071228,-0.763306,0.689575,2.195122,-1.097561,0.365854
1548434438710.000000,-0.072632,-0.763000,0.689941,2.012195,-1.097561,0.304878
1548434438711.000000,-0.072571,-0.763489,0.692688,1.768293,-0.975610,0.304878
1548434438733.000000,-0.071533,-0.764160,0.693665,1.585366,-0.914634,0.548781
1548434438733.000000,-0.073181,-0.761536,0.689636,1.158537,-0.914634,0.670732
1548434438741.000000,-0.074829,-0.761108,0.688904,0.670732,-0.975610,0.670732
1548434438748.000000,-0.073120,-0.763245,0.688049,0.609756,-0.914634,0.548781
1548434438763.000000,-0.074707,-0.764465,0.689392,0.853659,-0.853659,0.426829
1548434438770.000000,-0.072327,-0.766418,0.687256,1.219512,-0.792683,0.487805
1548434438778.000000,-0.070862,-0.766174,0.690674,1.402439,-0.670732,0.609756
1548434438793.000000,-0.070068,-0.765808,0.692078,1.524390,-0.365854,0.792683
1548434438800.000000,-0.067505,-0.769287,0.692017,1.829268,0.182927,1.036585
1548434438808.000000,-0.064941,-0.768188,0.689514,2.560976,0.609756,1.524390
1548434438823.000000,-0.063843,-0.766479,0.689453,3.536585,1.219512,2.256098
1548434438830.000000,-0.065491,-0.764587,0.687866,4.573171,1.829268,3.231707
1548434438838.000000,-0.067871,-0.764343,0.684509,5.487805,2.317073,4.085366
1548434438853.000000,-0.070068,-0.761963,0.679443,5.792683,2.682927,4.756098
1548434438860.000000,-0.073792,-0.759460,0.686340,6.463415,2.682927,5.243903
1548434438868.000000,-0.072693,-0.764160,0.696655,7.378049,2.682927,5.426829
1548434438883.000000,-0.071960,-0.764160,0.699829,7.804878,2.682927,5.670732
1548434438891.000000,-0.070190,-0.765808,0.701416,7.134147,2.804878,6.280488
1548434438898.000000,-0.071716,-0.769958,0.706726,6.158537,2.926829,7.134147
1548434438913.000000,-0.072998,-0.771912,0.719971,5.121951,3.109756,8.475610
1548434438920.000000,-0.080200,-0.777161,0.723328,3.414634,3.536585,10.060976
1548434438928.000000,-0.083923,-0.775269,0.721191,0.731707,4.085366,11.768293
1548434438943.000000,-0.090088,-0.764709,0.709717,-1.890244,5.121951,13.414635
1548434438950.000000,-0.092285,-0.764832,0.697205,-4.451220,5.914634,14.756098
1548434438958.000000,-0.084290,-0.774414,0.689758,-6.280488,6.585366,15.365854
1548434438973.000000,-0.078857,-0.773743,0.689453,-7.500000,7.195122,16.341463
1548434438980.000000,-0.080688,-0.774170,0.697571,-7.500000,7.500000,18.414635
1548434438988.000000,-0.087830,-0.779541,0.713867,-7.073171,8.292683,21.280489
1548434439003.000000,-0.096069,-0.789001,0.728943,-7.256098,9.085366,24.695122
1548434439010.000000,-0.101746,-0.797913,0.734375,-8.536586,10.182927,28.231709
1548434439018.000000,-0.103027,-0.804932,0.727173,-9.390244,11.646341,31.707317
1548434439033.000000,-0.133240,-0.784302,0.712708,-9.329268,13.109756,35.853661
1548434439040.000000,-0.197021,-0.710571,0.722412,-8.292683,14.878049,39.634148
1548434439048.000000,-0.152771,-0.790039,0.702637,-7.073171,17.378050,39.512196
1548434439063.000000,-0.095520,-0.881714,0.694092,-7.256098,19.878050,34.878048
1548434439070.000000,-0.132202,-0.819946,0.707886,-4.024390,18.780489,33.536587
1548434439078.000000,-0.130310,-0.804504,0.699341,-2.987805,15.426829,35.853661
1548434439093.000000,-0.102783,-0.819519,0.694336,-2.195122,14.756098,31.097561
1548434439101.000000,-0.162048,-0.843201,0.704102,2.560976,11.951220,17.378050
1548434439108.000000,-0.259277,-0.881287,0.718628,7.987805,7.804878,4.512195
1548434439123.000000,-0.242432,-0.858154,0.727539,11.951220,8.475610,9.390244
1548434439131.000000,-0.177795,-0.807373,0.723267,13.170732,13.963415,23.902439
1548434439138.000000,-0.182556,-0.805725,0.718994,10.000000,15.975610,28.170732
1548434439153.000000,-0.204163,-0.810059,0.724670,7.439024,15.121951,25.853659
1548434439161.000000,-0.204834,-0.818115,0.725037,7.378049,15.975610,27.195122
1548434439168.000000,-0.208496,-0.815186,0.723206,2.134146,17.073172,28.597561
1548434439183.000000,-0.210449,-0.792542,0.722656,-5.426829,18.109756,28.719513
1548434439191.000000,-0.222839,-0.769836,0.722473,-9.085366,19.085367,30.487806
1548434439198.000000,-0.233093,-0.763062,0.710510,-8.414635,19.634148,32.134148
1548434439213.000000,-0.241882,-0.757996,0.709778,-5.548780,20.304878,32.317074
1548434439221.000000,-0.248108,-0.764038,0.719116,-3.475610,20.731709,32.195122
1548434439228.000000,-0.246399,-0.763367,0.725342,-2.195122,21.524391,31.951220
1548434439244.000000,-0.247925,-0.761292,0.718262,-1.036585,22.317074,32.439026
1548434439251.000000,-0.246521,-0.757263,0.707153,-1.829268,23.963415,32.987804
1548434439258.000000,-0.252319,-0.762146,0.700012,-2.560976,25.609756,33.048782
1548434439273.000000,-0.266418,-0.763306,0.693542,-2.378049,25.670732,33.048782
1548434439280.000000,-0.266235,-0.750366,0.673523,-2.926829,26.219513,33.353661
1548434439288.000000,-0.270020,-0.739990,0.664124,-4.390244,27.439026,33.658539
1548434439303.000000,-0.287292,-0.732117,0.677917,-5.731708,27.987806,33.109756
1548434439310.000000,-0.294617,-0.754944,0.676025,-6.097561,28.109756,33.292683
1548434439318.000000,-0.296143,-0.756165,0.665222,-3.902439,28.170732,35.182926
1548434439333.000000,-0.308289,-0.747498,0.661011,0.000000,29.024391,33.658539
1548434439340.000000,-0.317078,-0.743835,0.665649,-0.853659,28.658537,31.524391
1548434439348.000000,-0.320801,-0.743958,0.647400,-1.097561,28.536587,31.524391
1548434439363.000000,-0.331177,-0.729370,0.636658,-1.036585,28.902439,31.707317
1548434439370.000000,-0.342957,-0.729797,0.645081,-2.560976,28.475611,31.646341
1548434439378.000000,-0.354492,-0.733704,0.643433,-4.390244,27.987806,31.341465
1548434439393.000000,-0.364685,-0.729797,0.634888,-5.182927,27.987806,31.463415
1548434439400.000000,-0.377808,-0.721802,0.635742,-5.609756,27.987806,31.524391
1548434439408.000000,-0.381409,-0.720459,0.638245,-4.695122,27.500000,31.829269
1548434439423.000000,-0.385620,-0.722778,0.638428,-2.682927,27.256098,32.012196
1548434439431.000000,-0.398132,-0.726990,0.628235,-0.487805,27.378050,32.073170
1548434439438.000000,-0.408691,-0.719543,0.616638,-0.182927,27.195122,32.073170
1548434439453.000000,-0.411316,-0.722107,0.621704,-0.914634,27.134148,31.951220
1548434439460.000000,-0.413574,-0.731262,0.625000,-0.914634,27.195122,31.951220
1548434439468.000000,-0.422302,-0.729309,0.619995,-0.609756,27.256098,32.500000
1548434439483.000000,-0.432190,-0.732361,0.620056,-0.731707,27.439026,33.231709
1548434439490.000000,-0.440369,-0.729736,0.629028,-1.341463,27.804878,33.536587
1548434439498.000000,-0.451477,-0.718933,0.628662,-1.951220,28.109756,33.658539
1548434439513.000000,-0.458618,-0.718567,0.631226,-1.646341,28.475611,33.902439
1548434439520.000000,-0.464905,-0.716919,0.628174,-1.219512,28.902439,34.024391
1548434439528.000000,-0.471069,-0.715149,0.630005,-1.463415,29.207317,33.841465
1548434439542.000000,-0.473877,-0.718750,0.640015,-2.500000,29.695122,33.536587
1548434439550.000000,-0.477600,-0.714600,0.641296,-3.414634,30.304878,33.902439
1548434439557.000000,-0.479187,-0.713562,0.643921,-4.695122,30.792685,34.207317
1548434439573.000000,-0.484558,-0.710754,0.641052,-5.853659,31.768293,34.268295
1548434439580.000000,-0.492493,-0.700806,0.638123,-6.707317,32.439026,34.756100
1548434439588.000000,-0.499207,-0.712402,0.644714,-6.951220,33.597561,35.304878
1548434439602.000000,-0.511108,-0.712646,0.643799,-5.731708,34.634148,35.670734
1548434439610.000000,-0.515015,-0.707397,0.632446,-3.963415,35.670734,36.524391
1548434439618.000000,-0.521301,-0.715515,0.624878,-3.048780,37.256100,37.073170
1548434439633.000000,-0.526306,-0.710022,0.608459,-3.231707,38.292683,37.256100
1548434439640.000000,-0.533142,-0.699646,0.609070,-5.853659,39.146343,37.743904
1548434439648.000000,-0.539062,-0.699707,0.615723,-9.512196,40.121952,38.414635
1548434439663.000000,-0.544495,-0.687988,0.603394,-12.195122,40.792683,38.902439
1548434439670.000000,-0.551758,-0.667419,0.591125,-13.902439,41.585365,39.695122
1548434439678.000000,-0.561462,-0.671509,0.587158,-15.426829,42.195122,40.000000
1548434439693.000000,-0.567810,-0.670410,0.573730,-16.280489,42.682926,39.939026
1548434439700.000000,-0.574036,-0.661255,0.560608,-15.609756,43.231709,40.670734
1548434439708.000000,-0.583130,-0.657715,0.547180,-14.939025,43.597561,41.097561
1548434439723.000000,-0.592957,-0.654907,0.534546,-15.365854,43.780487,41.158539
1548434439730.000000,-0.594055,-0.647217,0.525452,-16.097561,44.207317,41.219513
1548434439737.000000,-0.598145,-0.639221,0.516846,-16.768293,44.695122,41.463417
1548434439753.000000,-0.610596,-0.624146,0.506775,-17.682928,44.268295,41.463417
1548434439760.000000,-0.623352,-0.615723,0.495972,-17.926830,43.353661,41.097561
1548434439768.000000,-0.634705,-0.610168,0.497803,-17.073172,42.682926,40.304878
1548434439783.000000,-0.647400,-0.595093,0.497314,-15.426829,42.073174,39.756100
1548434439790.000000,-0.658020,-0.571106,0.476990,-13.780488,41.646343,39.634148
1548434439798.000000,-0.665588,-0.542358,0.456726,-12.256098,41.402439,38.841465
1548434439813.000000,-0.667603,-0.527527,0.446533,-10.304878,40.975609,38.231709
1548434439820.000000,-0.666138,-0.567627,0.440308,-7.134147,40.182926,37.256100
1548434439828.000000,-0.671082,-0.612122,0.442322,-2.256098,39.390244,36.280487
1548434439843.000000,-0.685486,-0.625732,0.438538,1.951220,38.475609,36.707317
1548434439850.000000,-0.694885,-0.618408,0.434631,2.256098,38.109756,37.439026
1548434439857.000000,-0.698669,-0.616638,0.441772,0.914634,37.926830,37.682926
1548434439873.000000,-0.705200,-0.613159,0.444092,-0.182927,37.500000,37.743904
1548434439880.000000,-0.717773,-0.602051,0.443542,-1.646341,37.500000,38.292683
1548434439895.000000,-0.731873,-0.602783,0.443176,-4.634146,37.987804,38.719513
1548434439903.000000,-0.740784,-0.595642,0.429382,-7.256098,38.231709,38.841465
1548434439910.000000,-0.749939,-0.578918,0.420593,-9.146341,38.414635,39.085365
1548434439918.000000,-0.757141,-0.570435,0.403748,-10.609756,39.268295,39.146343
1548434439933.000000,-0.764465,-0.554565,0.381287,-10.792684,39.634148,39.085365
1548434439940.000000,-0.768005,-0.552429,0.362427,-9.756098,39.512196,38.780487
1548434439948.000000,-0.778076,-0.550049,0.347107,-7.926829,39.390244,38.536587
1548434439962.000000,-0.784058,-0.551331,0.337463,-7.621952,38.841465,38.170734
1548434439970.000000,-0.787109,-0.551575,0.332214,-9.451220,38.231709,37.682926
1548434439977.000000,-0.796753,-0.548828,0.331543,-12.073171,37.560978,37.134148
1548434439993.000000,-0.802185,-0.530151,0.322571,-14.939025,37.012196,36.402439
1548434440000.000000,-0.808472,-0.497070,0.313782,-16.890244,36.585365,36.463417
1548434440008.000000,-0.818481,-0.482361,0.305542,-17.134148,36.158539,35.609756
1548434440023.000000,-0.818420,-0.484375,0.298584,-14.939025,35.304878,34.146343
1548434440030.000000,-0.820251,-0.483154,0.294067,-11.341464,34.329269,33.292683
1548434440037.000000,-0.825989,-0.493530,0.297363,-9.146341,33.536587,32.012196
1548434440053.000000,-0.832703,-0.493713,0.298279,-8.414635,32.682926,30.670732
1548434440060.000000,-0.835388,-0.489075,0.297119,-8.597561,31.951220,29.817074
1548434440075.000000,-0.837830,-0.497192,0.296936,-9.268292,31.707317,28.841465
1548434440082.000000,-0.839111,-0.498718,0.293396,-9.817074,31.219513,28.170732
1548434440090.000000,-0.842224,-0.507507,0.293091,-10.548780,30.731709,27.743902
1548434440097.000000,-0.846741,-0.517212,0.299072,-11.524390,30.548780,27.195122
1548434440112.000000,-0.850647,-0.509216,0.298218,-12.621951,30.121952,27.134148
1548434440120.000000,-0.852722,-0.506775,0.305420,-13.353659,30.121952,27.317074
1548434440127.000000,-0.859497,-0.505188,0.307922,-12.012196,30.243902,27.682928
1548434440142.000000,-0.867615,-0.484009,0.297913,-9.146341,30.182928,27.926830
1548434440150.000000,-0.874634,-0.486938,0.291382,-6.341464,30.365854,28.536587
1548434440157.000000,-0.885254,-0.500671,0.283752,-3.231707,30.853659,28.780489
1548434440172.000000,-0.890930,-0.501648,0.267761,-1.341463,30.975611,29.878050
1548434440180.000000,-0.891418,-0.497009,0.257935,-2.012195,31.280489,30.975611
1548434440187.000000,-0.893555,-0.485291,0.250427,-4.878049,31.524391,31.463415
1548434440202.000000,-0.898193,-0.468201,0.240112,-8.170732,31.463415,32.195122
1548434440210.000000,-0.900146,-0.458557,0.236084,-10.731708,31.646341,32.926830
1548434440217.000000,-0.903625,-0.452209,0.227539,-12.621951,31.707317,33.658539
1548434440233.000000,-0.911316,-0.417419,0.217468,-13.536586,31.402439,33.963417
1548434440240.000000,-0.913086,-0.401062,0.216187,-13.963415,30.670732,34.268295
1548434440247.000000,-0.918701,-0.402649,0.210205,-12.317074,30.731709,34.024391
1548434440263.000000,-0.926575,-0.393188,0.202209,-7.012195,30.182928,33.719513
1548434440270.000000,-0.927185,-0.401428,0.200317,-0.670732,29.695122,33.536587
1548434440277.000000,-0.924866,-0.402039,0.201294,5.121951,29.512196,32.621952
1548434440293.000000,-0.924622,-0.401794,0.194092,9.390244,29.268293,31.890245
1548434440300.000000,-0.927307,-0.408813,0.184570,11.280488,29.268293,31.280489
1548434440307.000000,-0.929993,-0.390625,0.172485,10.548780,29.085367,30.731709
1548434440323.000000,-0.928772,-0.378723,0.173462,7.073171,28.780489,30.548780
1548434440330.000000,-0.928101,-0.402527,0.175232,2.621951,29.390245,29.878050
1548434440338.000000,-0.934692,-0.401917,0.172363,0.487805,29.695122,29.451220
1548434440353.000000,-0.942444,-0.383301,0.160889,-0.731707,29.390245,29.817074
1548434440360.000000,-0.944458,-0.365967,0.151245,-2.012195,29.634148,29.024391
1548434440368.000000,-0.944397,-0.355103,0.141541,-1.707317,29.878050,28.048780
1548434440383.000000,-0.954224,-0.356201,0.127686,0.792683,29.817074,27.073172
1548434440390.000000,-0.970093,-0.359131,0.121338,4.512195,29.390245,25.914635
1548434440398.000000,-0.977600,-0.369385,0.118164,7.195122,28.719513,25.060976
1548434440413.000000,-0.987549,-0.387146,0.116882,7.987805,28.780489,23.353659
1548434440420.000000,-0.990845,-0.378418,0.102661,7.317073,28.841465,22.256098
1548434440428.000000,-0.985291,-0.360168,0.080872,4.756098,29.024391,21.524391
1548434440443.000000,-0.975159,-0.359619,0.067383,0.975610,29.024391,20.426830
1548434440450.000000,-0.974487,-0.347290,0.053040,-2.256098,28.902439,19.085367
1548434440458.000000,-0.955261,-0.341858,0.046875,-4.329268,28.109756,18.292683
1548434440473.000000,-0.987244,-0.315369,0.049500,-5.731708,26.890245,16.829269
1548434440480.000000,-1.007263,-0.308472,0.047607,-6.890244,24.268293,13.536586
1548434440488.000000,-0.996826,-0.307190,0.048462,-6.646342,24.268293,12.317074
1548434440503.000000,-0.983826,-0.309509,0.051086,-3.414634,24.512196,12.682927
1548434440510.000000,-0.971008,-0.320557,0.059021,-0.670732,23.231709,10.670732
1548434440518.000000,-0.951538,-0.334106,0.059875,1.280488,22.439024,9.085366
1548434440533.000000,-0.968567,-0.336182,0.067749,2.621951,21.524391,7.500000
1548434440540.000000,-1.009827,-0.347595,0.074890,3.597561,19.573172,5.365854
1548434440548.000000,-0.983459,-0.358704,0.081055,3.475610,19.207317,5.548780
1548434440562.000000,-0.951599,-0.355896,0.082825,2.256098,21.219513,7.804878
1548434440570.000000,-0.957031,-0.348572,0.079773,0.731707,20.853659,8.475610
1548434440578.000000,-0.957092,-0.335815,0.068970,0.060976,19.512196,8.475610
1548434440592.000000,-0.945984,-0.339905,0.064453,0.000000,18.963415,9.329268
1548434440601.000000,-0.941772,-0.348328,0.061768,0.121951,18.109756,9.695122
1548434440607.000000,-0.941284,-0.345032,0.049011,0.548781,17.012196,10.304878
1548434440622.000000,-0.938782,-0.329529,0.042603,0.487805,16.036585,11.097561
1548434440630.000000,-0.939331,-0.313354,0.042847,0.182927,14.939025,11.341464
1548434440637.000000,-0.942505,-0.315979,0.037842,0.792683,13.902439,10.792684
1548434440652.000000,-0.937317,-0.321472,0.041931,2.560976,12.500000,10.609756
1548434440660.000000,-0.923523,-0.312073,0.037659,3.841464,11.280488,10.853659
1548434440667.000000,-0.960022,-0.303894,0.044861,3.231707,9.512196,10.060976
1548434440683.000000,-0.987793,-0.312012,0.039978,2.500000,7.134147,8.902439
1548434440690.000000,-0.951172,-0.300842,0.032288,1.829268,6.646342,9.878049
1548434440698.000000,-0.942078,-0.285400,0.031555,0.548781,6.768293,10.731708
1548434440712.000000,-0.949585,-0.291626,0.030823,-1.097561,5.243903,9.146341
1548434440720.000000,-0.949707,-0.298523,0.033325,-0.792683,3.719512,7.926829
1548434440727.000000,-0.948853,-0.295471,0.027405,0.000000,2.743902,7.317073
1548434440742.000000,-0.952698,-0.282288,0.016357,-0.304878,1.829268,5.975610
1548434440750.000000,-0.955444,-0.280396,0.010559,-0.975610,0.853659,4.695122
1548434440757.000000,-0.958801,-0.289429,0.006714,-0.792683,-0.243902,3.475610
1548434440772.000000,-0.966919,-0.288452,0.008423,-1.036585,-1.463415,2.317073
1548434440780.000000,-0.977051,-0.279968,0.005188,-2.743902,-2.439024,1.402439
1548434440787.000000,-0.981995,-0.278809,0.005798,-4.573171,-3.048780,0.243902
1548434440810.000000,-0.984070,-0.275269,0.008911,-4.695122,-4.024390,-0.853659
1548434440810.000000,-0.976746,-0.280334,0.017029,-3.658537,-4.817073,-1.890244
1548434440817.000000,-0.938904,-0.292114,0.028015,-2.560976,-5.670732,-2.682927
1548434440832.000000,-1.003906,-0.294800,0.058167,-1.341463,-6.890244,-4.085366
1548434440840.000000,-1.049255,-0.319153,0.066895,-0.365854,-9.390244,-6.524390
1548434440847.000000,-0.991882,-0.329346,0.063904,0.243902,-7.621952,-5.060976
1548434440862.000000,-0.979980,-0.318054,0.057861,0.975610,-4.756098,-2.439024
1548434440870.000000,-0.996948,-0.318604,0.049744,1.158537,-4.878049,-2.743902
1548434440877.000000,-0.997864,-0.330444,0.048645,2.865854,-4.756098,-2.743902
1548434440892.000000,-0.995728,-0.333252,0.048401,4.390244,-4.390244,-1.829268
1548434440900.000000,-0.998047,-0.337952,0.055054,3.658537,-4.146341,-1.219512
1548434440907.000000,-1.001648,-0.333191,0.067200,1.707317,-3.841464,-0.487805
1548434440922.000000,-0.998596,-0.328064,0.071167,0.792683,-3.597561,0.000000
1548434440930.000000,-0.999512,-0.320679,0.069702,0.792683,-3.292683,0.487805
1548434440937.000000,-0.999084,-0.321899,0.067993,1.402439,-3.048780,0.609756
1548434440952.000000,-0.996216,-0.329529,0.062012,1.951220,-2.743902,0.731707
1548434440960.000000,-0.998352,-0.324402,0.055176,2.439024,-2.378049,0.853659
1548434440975.000000,-0.999084,-0.310669,0.050110,2.560976,-2.195122,0.975610
1548434440982.000000,-0.997070,-0.312988,0.050476,2.743902,-1.951220,0.853659
1548434440990.000000,-0.975342,-0.328247,0.047119,3.780488,-1.951220,0.548781
1548434440997.000000,-0.989502,-0.311096,0.046692,4.573171,-2.439024,0.487805
1548434441012.000000,-1.031494,-0.319092,0.055908,3.658537,-3.780488,-0.182927
1548434441020.000000,-1.017761,-0.325195,0.054932,1.768293,-3.780488,-1.158537
1548434441027.000000,-0.986816,-0.315979,0.049011,1.158537,-2.012195,0.121951
1548434441042.000000,-0.997131,-0.318787,0.049561,0.548781,-1.219512,0.365854
1548434441050.000000,-1.001099,-0.317993,0.048035,0.487805,-1.524390,-0.365854
1548434441057.000000,-0.996765,-0.328247,0.048218,1.341463,-1.646341,-0.060976
1548434441072.000000,-0.994812,-0.336487,0.049255,1.646341,-1.463415,-0.182927
1548434441080.000000,-0.992493,-0.345520,0.053467,1.524390,-1.280488,0.060976
1548434441087.000000,-0.988098,-0.349121,0.053101,1.097561,-1.036585,0.365854
1548434441102.000000,-0.987854,-0.347534,0.055420,0.426829,-0.731707,0.548781
1548434441110.000000,-0.987244,-0.340942,0.058472,-0.670732,-0.548781,0.792683
1548434441117.000000,-0.990784,-0.332275,0.052307,-1.707317,-0.426829,0.853659
1548434441132.000000,-0.989075,-0.321350,0.051697,-2.439024,-0.243902,1.219512
1548434441140.000000,-0.992554,-0.315186,0.051758,-2.378049,-0.060976,1.280488
1548434441147.000000,-1.001282,-0.300781,0.049744,-1.463415,0.121951,1.158537
1548434441162.000000,-0.996033,-0.311523,0.043884,-0.426829,0.121951,1.158537
1548434441170.000000,-0.993958,-0.315002,0.038147,0.792683,0.365854,0.731707
1548434441177.000000,-0.990784,-0.307312,0.033997,0.792683,0.426829,0.609756
1548434441192.000000,-0.989624,-0.303528,0.029968,-0.426829,0.609756,0.548781
1548434441200.000000,-0.987793,-0.303284,0.024841,-1.158537,0.426829,0.304878
1548434441207.000000,-0.985291,-0.294556,0.026306,-1.951220,-0.060976,0.060976
1548434441222.000000,-0.985657,-0.287109,0.030701,-2.560976,-0.609756,-0.060976
1548434441230.000000,-0.986084,-0.286926,0.038391,-2.682927,-1.219512,-0.609756
1548434441237.000000,-0.986389,-0.286316,0.041687,-2.500000,-2.012195,-1.219512
1548434441252.000000,-0.984253,-0.288147,0.042358,-2.134146,-2.743902,-1.768293
1548434441260.000000,-0.983887,-0.284180,0.040283,-1.219512,-3.353659,-2.195122
1548434441267.000000,-0.985596,-0.281982,0.040344,-0.304878,-4.146341,-2.743902
1548434441282.000000,-0.983154,-0.298096,0.040466,0.731707,-4.634146,-3.231707
1548434441290.000000,-0.983276,-0.303284,0.039917,2.317073,-5.182927,-3.597561
1548434441297.000000,-0.981445,-0.304993,0.042175,3.475610,-5.731708,-3.841464
1548434441312.000000,-0.986511,-0.306580,0.042297,3.841464,-6.036585,-4.207317
1548434441320.000000,-0.986389,-0.307129,0.041443,3.658537,-6.524390,-4.390244
1548434441327.000000,-0.985168,-0.316345,0.042480,3.353659,-6.707317,-4.634146
1548434441342.000000,-0.985168,-0.320740,0.047058,2.439024,-6.951220,-5.060976
1548434441350.000000,-0.981934,-0.320679,0.047302,1.768293,-7.256098,-5.121951
1548434441357.000000,-0.982117,-0.315735,0.046082,1.402439,-7.500000,-5.182927
1548434441380.000000,-0.981079,-0.306641,0.045410,0.853659,-7.865854,-5.487805
1548434441380.000000,-0.975952,-0.316284,0.047974,0.548781,-8.536586,-5.853659
1548434441387.000000,-0.978333,-0.322693,0.053711,0.914634,-9.024390,-6.463415
1548434441403.000000,-0.981201,-0.324951,0.059204,1.280488,-9.512196,-6.463415
1548434441410.000000,-0.980103,-0.329285,0.063232,1.097561,-9.939025,-6.951220
1548434441417.000000,-0.982727,-0.330872,0.064941,0.914634,-10.000000,-7.500000
1548434441433.000000,-0.986633,-0.337219,0.070435,1.036585,-10.182927,-7.621952
1548434441440.000000,-0.986267,-0.340881,0.077209,1.341463,-10.487805,-7.743903
1548434441447.000000,-0.985657,-0.347229,0.083130,1.097561,-10.365854,-7.195122
1548434441463.000000,-0.989319,-0.340515,0.093079,0.182927,-10.365854,-7.073171
1548434441470.000000,-0.987610,-0.342102,0.097595,-1.402439,-10.182927,-6.951220
1548434441478.000000,-0.990173,-0.333618,0.097900,-2.439024,-9.756098,-6.463415
1548434441493.000000,-0.996460,-0.297424,0.085449,-3.170732,-9.390244,-6.036585
1548434441500.000000,-0.995544,-0.281311,0.072998,-3.841464,-9.207317,-6.036585
1548434441508.000000,-0.995239,-0.291626,0.065063,-3.109756,-8.963415,-6.524390
1548434441530.000000,-0.995239,-0.300476,0.063904,-0.975610,-9.085366,-7.134147
1548434441530.000000,-0.991089,-0.313477,0.062195,1.158537,-9.329268,-7.195122
1548434441537.000000,-0.988159,-0.316833,0.059143,2.500000,-9.573171,-7.378049
1548434441560.000000,-0.986877,-0.307922,0.046753,2.804878,-9.939025,-8.109756
1548434441560.000000,-0.983093,-0.292725,0.036072,2.073171,-10.548780,-8.902439
1548434441567.000000,-0.975708,-0.304504,0.038879,1.463415,-11.524390,-9.878049
1548434441582.000000,-0.967712,-0.325500,0.050232,0.792683,-12.500000,-11.036586
1548434441590.000000,-0.966003,-0.324341,0.056641,-0.731707,-13.536586,-12.378049
1548434441597.000000,-0.960388,-0.330872,0.054565,-3.353659,-14.756098,-13.780488
1548434441613.000000,-0.960449,-0.339172,0.049316,-4.817073,-15.914635,-15.000000
1548434441620.000000,-0.960632,-0.358765,0.045776,-5.121951,-17.134148,-15.975610
1548434441628.000000,-0.953857,-0.366699,0.048035,-4.939024,-18.353659,-16.768293
1548434441643.000000,-0.951843,-0.367859,0.054138,-4.634146,-19.634148,-16.951220
1548434441650.000000,-0.952881,-0.377441,0.069946,-3.963415,-20.792683,-17.195122
1548434441658.000000,-0.951355,-0.394714,0.088318,-3.109756,-21.951220,-17.134148
1548434441673.000000,-0.948486,-0.395508,0.100220,-2.195122,-22.987806,-16.768293
1548434441680.000000,-0.949158,-0.393555,0.114319,-1.829268,-24.207317,-16.951220
1548434441688.000000,-0.943787,-0.397888,0.125671,-2.195122,-24.878050,-16.890244
1548434441703.000000,-0.945007,-0.397888,0.131042,-2.378049,-25.243902,-16.646341
1548434441711.000000,-0.944519,-0.399597,0.138977,-1.890244,-25.914635,-16.524391
1548434441725.000000,-0.931885,-0.411926,0.162537,-1.585366,-26.463415,-16.585365
1548434441733.000000,-0.927551,-0.418518,0.188721,-1.280488,-26.402439,-16.829269
1548434441740.000000,-0.927612,-0.423523,0.213074,-0.731707,-26.341463,-17.012196
1548434441748.000000,-0.927063,-0.438049,0.233704,0.365854,-25.853659,-17.073172
1548434441763.000000,-0.924438,-0.438354,0.241333,1.951220,-24.939026,-16.829269
1548434441770.000000,-0.921448,-0.434998,0.240723,3.902439,-23.902439,-16.158537
1548434441778.000000,-0.923523,-0.432495,0.231567,5.426829,-22.743902,-16.097561
1548434441793.000000,-0.927002,-0.423340,0.215454,6.768293,-21.768293,-15.548780
1548434441800.000000,-0.929443,-0.409912,0.194824,7.195122,-21.097561,-15.365854
1548434441808.000000,-0.929016,-0.399048,0.172852,6.768293,-20.548780,-15.487805
1548434441823.000000,-0.928711,-0.392090,0.153748,5.792683,-20.243902,-15.914635
1548434441830.000000,-0.925903,-0.387268,0.137024,4.512195,-20.365854,-16.829269
1548434441838.000000,-0.917542,-0.400391,0.134949,2.256098,-20.792683,-18.109756
1548434441853.000000,-0.908508,-0.411621,0.142029,-0.670732,-21.524391,-19.817074
1548434441860.000000,-0.904175,-0.401672,0.147461,-4.024390,-22.073172,-22.012196
1548434441868.000000,-0.897766,-0.413940,0.158264,-7.378049,-22.743902,-23.597561
1548434441883.000000,-0.896179,-0.415833,0.164368,-10.000000,-23.414635,-25.304878
1548434441890.000000,-0.896057,-0.410828,0.162231,-11.829268,-24.329269,-26.402439
1548434441898.000000,-0.894531,-0.415405,0.160156,-12.682927,-25.182928,-27.195122
1548434441913.000000,-0.892334,-0.419373,0.156372,-11.524390,-26.402439,-27.987806
1548434441920.000000,-0.888123,-0.420227,0.147400,-9.207317,-27.682928,-28.658537
1548434441928.000000,-0.881165,-0.431702,0.149841,-7.134147,-29.024391,-29.451220
1548434441943.000000,-0.872375,-0.443787,0.158264,-6.036585,-30.487806,-30.365854
1548434441950.000000,-0.863220,-0.456177,0.170044,-5.426829,-32.073170,-31.463415
1548434441958.000000,-0.855530,-0.473267,0.179993,-5.243903,-33.475609,-32.195122
1548434441973.000000,-0.852356,-0.468262,0.192993,-6.036585,-34.939026,-33.170731
1548434441980.000000,-0.846863,-0.473267,0.218018,-7.378049,-36.280487,-33.597561
1548434441988.000000,-0.846008,-0.483704,0.252197,-7.987805,-37.012196,-34.329269
1548434442003.000000,-0.842712,-0.490906,0.280884,-6.707317,-37.682926,-34.634148
1548434442010.000000,-0.837585,-0.497070,0.300232,-4.390244,-38.048782,-35.243904
1548434442018.000000,-0.831726,-0.507568,0.314331,-1.280488,-38.231709,-35.853661
1548434442033.000000,-0.823608,-0.518127,0.317505,1.829268,-38.109756,-36.402439
1548434442040.000000,-0.813293,-0.525208,0.311584,3.719512,-37.560978,-36.829269
1548434442048.000000,-0.818054,-0.520264,0.299805,4.390244,-37.012196,-36.951221
1548434442063.000000,-0.825073,-0.522583,0.298584,4.085366,-36.951221,-36.890244
1548434442070.000000,-0.819336,-0.533997,0.298218,3.353659,-36.768295,-37.195122
1548434442078.000000,-0.820129,-0.527832,0.298035,2.926829,-36.524391,-37.682926
1548434442093.000000,-0.825623,-0.522339,0.299438,2.926829,-36.524391,-37.865856
1548434442100.000000,-0.823120,-0.540894,0.307617,2.865854,-36.585365,-38.414635
1548434442108.000000,-0.812500,-0.561401,0.316162,2.621951,-36.280487,-39.451221
1548434442123.000000,-0.809814,-0.561768,0.318726,2.682927,-36.036587,-40.000000
1548434442130.000000,-0.812500,-0.575623,0.318237,3.170732,-35.304878,-40.304878
1548434442138.000000,-0.813965,-0.576477,0.305298,4.207317,-35.000000,-40.487804
1548434442153.000000,-0.809875,-0.577393,0.299744,4.878049,-34.939026,-40.365856
1548434442160.000000,-0.803040,-0.594910,0.299011,4.451220,-34.817074,-39.878048
1548434442168.000000,-0.797363,-0.604370,0.300354,3.475610,-35.243904,-39.573174
1548434442183.000000,-0.788574,-0.624878,0.317810,1.890244,-35.731709,-39.268295
1548434442190.000000,-0.785156,-0.635803,0.321045,0.670732,-35.792683,-38.353661
1548434442198.000000,-0.786743,-0.618286,0.316040,-0.670732,-36.280487,-37.500000
1548434442213.000000,-0.780640,-0.613586,0.310974,-2.256098,-36.585365,-36.951221
1548434442220.000000,-0.770447,-0.625183,0.312805,-3.170732,-36.890244,-36.402439
1548434442228.000000,-0.760315,-0.630432,0.336487,-2.804878,-37.682926,-35.792683
1548434442243.000000,-0.748962,-0.640198,0.368958,-2.500000,-38.597561,-35.060978
1548434442250.000000,-0.738586,-0.667603,0.393250,-1.829268,-39.207317,-34.207317
1548434442258.000000,-0.735229,-0.679993,0.399109,0.121951,-39.695122,-33.658539
1548434442273.000000,-0.727600,-0.686523,0.402893,1.463415,-39.573174,-32.743904
1548434442280.000000,-0.717346,-0.682800,0.395264,1.219512,-39.207317,-31.341465
1548434442288.000000,-0.712341,-0.670105,0.372070,0.853659,-39.268295,-29.817074
1548434442303.000000,-0.708618,-0.659546,0.347107,0.060976,-39.512196,-28.658537
1548434442310.000000,-0.699951,-0.650879,0.340942,-1.341463,-40.304878,-27.804878
1548434442318.000000,-0.690002,-0.648560,0.349731,-3.109756,-41.402439,-27.378050
1548434442333.000000,-0.677063,-0.652466,0.388306,-4.695122,-42.743904,-27.439026
1548434442340.000000,-0.666016,-0.666077,0.424866,-4.939024,-43.536587,-27.743902
1548434442348.000000,-0.665955,-0.647705,0.440613,-3.902439,-43.841465,-28.597561
1548434442363.000000,-0.660034,-0.662659,0.453613,-3.414634,-43.719513,-29.329269
1548434442370.000000,-0.650635,-0.693481,0.457581,-2.682927,-43.170734,-29.817074
1548434442378.000000,-0.639587,-0.694519,0.433533,-1.829268,-43.048782,-29.695122
1548434442393.000000,-0.633545,-0.680725,0.413269,-2.987805,-42.317074,-29.207317
1548434442408.000000,-0.622742,-0.682739,0.411011,-5.365854,-42.378048,-29.146341
1548434442408.000000,-0.612610,-0.674805,0.408447,-6.280488,-43.597561,-29.085367
1548434442423.000000,-0.611267,-0.665955,0.426086,-6.463415,-44.390244,-29.024391
1548434442430.000000,-0.605835,-0.675720,0.465881,-6.463415,-45.121952,-29.207317
1548434442438.000000,-0.593628,-0.674561,0.497070,-5.792683,-45.731709,-29.817074
1548434442454.000000,-0.585632,-0.683716,0.515625,-5.121951,-45.243904,-30.304878
1548434442460.000000,-0.577148,-0.717285,0.534485,-3.841464,-44.329269,-30.609756
1548434442468.000000,-0.567627,-0.726746,0.522278,-3.902439,-43.658539,-30.975611
1548434442483.000000,-0.556091,-0.707214,0.497681,-7.621952,-42.500000,-31.158537
1548434442491.000000,-0.545715,-0.708069,0.501526,-11.890244,-41.402439,-31.402439
1548434442498.000000,-0.538269,-0.716492,0.507935,-12.439025,-41.341465,-31.402439
1548434442513.000000,-0.537781,-0.699158,0.499573,-9.085366,-41.524391,-31.158537
1548434442521.000000,-0.539978,-0.678650,0.489868,-4.695122,-41.219513,-30.914635
1548434442528.000000,-0.539124,-0.692993,0.486694,0.000000,-40.975609,-31.158537
1548434442543.000000,-0.531006,-0.707703,0.483032,4.390244,-41.219513,-32.195122
1548434442550.000000,-0.530212,-0.716980,0.491577,6.097561,-41.219513,-32.987804
1548434442558.000000,-0.523682,-0.717590,0.507874,3.170732,-41.097561,-33.841465
1548434442573.000000,-0.514221,-0.702698,0.523193,-1.585366,-40.792683,-35.060978
1548434442581.000000,-0.500732,-0.720703,0.544128,-5.243903,-40.243904,-35.853661
1548434442588.000000,-0.485046,-0.738770,0.557373,-5.731708,-40.121952,-36.585365
1548434442603.000000,-0.473022,-0.742126,0.553589,-4.024390,-39.695122,-36.829269
1548434442611.000000,-0.469788,-0.740112,0.542053,-2.073171,-38.658539,-37.195122
1548434442618.000000,-0.466797,-0.734375,0.518005,0.365854,-37.987804,-37.378048
1548434442633.000000,-0.458618,-0.738342,0.496643,3.048780,-38.048782,-37.317074
1548434442641.000000,-0.453735,-0.748474,0.484802,5.000000,-38.414635,-37.804878
1548434442648.000000,-0.452271,-0.755005,0.500122,4.695122,-38.780487,-38.048782
1548434442663.000000,-0.443481,-0.762207,0.525757,1.158537,-39.390244,-38.414635
1548434442671.000000,-0.428650,-0.746826,0.536865,-2.621951,-39.512196,-38.902439
1548434442678.000000,-0.415344,-0.743103,0.550171,-4.390244,-38.963417,-39.207317
1548434442693.000000,-0.406433,-0.760986,0.561279,-3.719512,-38.658539,-40.000000
1548434442701.000000,-0.389221,-0.785706,0.568665,-1.341463,-38.841465,-40.548782
1548434442708.000000,-0.372192,-0.800476,0.568726,1.158537,-38.475609,-40.304878
1548434442723.000000,-0.365784,-0.804565,0.553772,3.231707,-38.414635,-39.695122
1548434442731.000000,-0.356384,-0.813049,0.540222,4.085366,-38.719513,-39.878048
1548434442738.000000,-0.350159,-0.813293,0.534790,3.780488,-38.841465,-39.451221
1548434442753.000000,-0.340454,-0.822144,0.548279,1.890244,-38.902439,-38.536587
1548434442761.000000,-0.336670,-0.813904,0.565613,-0.731707,-39.451221,-37.926830
1548434442768.000000,-0.331604,-0.800720,0.589111,-2.865854,-39.695122,-37.195122
1548434442782.000000,-0.322266,-0.807373,0.604858,-3.902439,-39.024391,-36.585365
1548434442790.000000,-0.314026,-0.807861,0.610168,-2.865854,-38.292683,-36.707317
1548434442798.000000,-0.301025,-0.819885,0.616943,-1.524390,-37.682926,-36.707317
1548434442813.000000,-0.284058,-0.820618,0.617432,-1.097561,-36.829269,-36.707317
1548434442820.000000,-0.262390,-0.829712,0.620178,-1.036585,-35.365856,-36.951221
1548434442835.000000,-0.250916,-0.843750,0.616272,-0.548781,-33.902439,-37.682926
1548434442843.000000,-0.251709,-0.848267,0.596191,-0.731707,-32.926830,-38.353661
1548434442850.000000,-0.254456,-0.844910,0.582886,-4.390244,-31.402439,-38.780487
1548434442858.000000,-0.251282,-0.847168,0.592896,-10.365854,-29.756098,-38.902439
1548434442873.000000,-0.247681,-0.850708,0.615051,-16.158537,-28.719513,-38.963417
1548434442880.000000,-0.241455,-0.832520,0.627625,-20.853659,-27.317074,-38.719513
1548434442888.000000,-0.227295,-0.825928,0.622681,-23.048780,-25.548780,-38.231709
1548434442903.000000,-0.215515,-0.844971,0.614441,-19.390244,-24.085367,-37.926830
1548434442910.000000,-0.214722,-0.861023,0.599121,-11.463415,-23.719513,-37.560978
1548434442918.000000,-0.217957,-0.851624,0.583679,-5.853659,-23.536587,-36.951221
1548434442932.000000,-0.213562,-0.856323,0.576050,-4.146341,-23.170732,-35.731709
1548434442940.000000,-0.205322,-0.873352,0.562378,-3.353659,-23.170732,-34.451221
1548434442948.000000,-0.201599,-0.882629,0.560303,-3.414634,-23.414635,-33.353661
1548434442963.000000,-0.199097,-0.888733,0.581909,-5.670732,-23.719513,-32.134148
1548434442970.000000,-0.192810,-0.873840,0.591309,-8.841464,-23.780489,-31.036587
1548434442978.000000,-0.184021,-0.845398,0.582458,-10.243902,-23.475611,-29.695122
1548434442993.000000,-0.180603,-0.849121,0.586609,-8.414635,-22.926830,-28.292683
1548434443001.000000,-0.174255,-0.866516,0.591187,-3.902439,-22.926830,-27.500000
1548434443008.000000,-0.169189,-0.864929,0.589294,1.036585,-22.865854,-26.768293
1548434443023.000000,-0.166016,-0.857300,0.585449,4.573171,-22.500000,-25.670732
1548434443030.000000,-0.160461,-0.869934,0.580994,6.707317,-22.378050,-24.817074
1548434443038.000000,-0.159485,-0.875793,0.569885,7.256098,-22.317074,-24.329269
1548434443053.000000,-0.158691,-0.859497,0.560242,4.390244,-22.500000,-23.719513
1548434443060.000000,-0.154419,-0.849487,0.560791,-0.182927,-22.560976,-23.048780
1548434443068.000000,-0.146057,-0.846619,0.566284,-3.231707,-22.804878,-23.109756
1548434443083.000000,-0.143188,-0.826050,0.569336,-4.024390,-22.987806,-23.536587
1548434443090.000000,-0.136841,-0.825684,0.565796,-2.804878,-22.865854,-23.841463
1548434443098.000000,-0.129578,-0.841980,0.575867,-0.121951,-22.987806,-24.817074
1548434443113.000000,-0.118652,-0.847961,0.569946,1.951220,-23.231709,-25.670732
1548434443120.000000,-0.109070,-0.849243,0.561401,2.073171,-23.109756,-25.975611
1548434443128.000000,-0.095520,-0.858887,0.557434,0.792683,-23.292683,-26.280489
1548434443143.000000,-0.086609,-0.872131,0.555298,-1.402439,-23.353659,-25.975611
1548434443158.000000,-0.075562,-0.868103,0.547852,-4.695122,-23.719513,-25.731709
1548434443158.000000,-0.068909,-0.859558,0.534729,-8.170732,-23.841463,-25.426830
1548434443172.000000,-0.066528,-0.858154,0.538208,-11.402439,-24.085367,-25.182928
1548434443180.000000,-0.061768,-0.859985,0.548523,-14.939025,-24.634148,-25.060976
1548434443188.000000,-0.047180,-0.860718,0.562317,-19.329269,-25.060976,-25.060976
1548434443203.000000,-0.032776,-0.865356,0.569580,-22.804878,-25.304878,-25.060976
1548434443210.000000,-0.019470,-0.873169,0.569946,-23.719513,-25.426830,-24.939026
1548434443218.000000,-0.011047,-0.890869,0.570923,-23.353659,-25.304878,-24.878050
1548434443233.000000,-0.002319,-0.907776,0.561584,-23.231709,-25.121952,-24.390244
1548434443240.000000,0.006287,-0.921448,0.548035,-24.634148,-24.695122,-23.292683
1548434443248.000000,0.011108,-0.916199,0.542114,-28.109756,-24.268293,-22.012196
1548434443263.000000,0.014038,-0.896606,0.536194,-32.743904,-24.024391,-20.426830
1548434443270.000000,0.013733,-0.863342,0.532043,-35.060978,-23.536587,-18.902439
1548434443278.000000,0.015747,-0.846985,0.538025,-31.707317,-22.926830,-17.500000
1548434443293.000000,0.021240,-0.868469,0.551575,-21.524391,-22.682928,-17.378050
1548434443308.000000,0.020081,-0.883301,0.550415,-7.560976,-22.682928,-17.743902
1548434443308.000000,0.016602,-0.888672,0.541199,3.048780,-22.560976,-17.987804
1548434443323.000000,0.014221,-0.892334,0.537537,8.048780,-22.134148,-18.048780
1548434443330.000000,0.018372,-0.902405,0.529419,8.902439,-21.951220,-17.987804
1548434443338.000000,0.023132,-0.910400,0.526428,7.560976,-21.524391,-17.926830
1548434443353.000000,0.021851,-0.903503,0.528687,4.939024,-21.402439,-17.560976
1548434443360.000000,0.019043,-0.884827,0.531128,0.853659,-21.036587,-17.195122
1548434443368.000000,0.016174,-0.868408,0.531982,-3.292683,-20.426830,-17.317074
1548434443383.000000,0.018738,-0.858154,0.535278,-5.060976,-19.878050,-17.804878
1548434443390.000000,0.025696,-0.855896,0.539612,-3.902439,-19.329269,-18.414635
1548434443398.000000,0.031067,-0.862427,0.543335,-0.609756,-19.024391,-19.451220
1548434443413.000000,0.034546,-0.879272,0.546387,2.682927,-18.719513,-20.548780
1548434443420.000000,0.045105,-0.879089,0.542175,4.573171,-18.475611,-21.280489
1548434443428.000000,0.053955,-0.886108,0.539246,5.304878,-17.926830,-21.463415
1548434443443.000000,0.057922,-0.899048,0.542297,5.182927,-17.621952,-21.341463
1548434443450.000000,0.062195,-0.897278,0.544312,3.597561,-17.560976,-21.036587
1548434443458.000000,0.070068,-0.895630,0.541382,0.731707,-17.134148,-20.000000
1548434443473.000000,0.073730,-0.893005,0.540710,-2.073171,-16.585365,-19.390244
1548434443480.000000,0.075012,-0.884949,0.546875,-4.207317,-16.341463,-18.841463
1548434443488.000000,0.081177,-0.878601,0.546875,-5.000000,-15.975610,-17.987804
1548434443503.000000,0.081970,-0.875488,0.543640,-4.451220,-15.426829,-17.500000
1548434443510.000000,0.079285,-0.874329,0.539612,-3.902439,-15.365854,-17.195122
1548434443518.000000,0.086304,-0.865173,0.542053,-3.414634,-15.060976,-16.890244
1548434443533.000000,0.090149,-0.866272,0.540649,-2.256098,-14.573171,-16.707317
1548434443540.000000,0.095337,-0.871765,0.539368,-1.097561,-14.268293,-16.646341
1548434443548.000000,0.098755,-0.879395,0.540161,-0.243902,-14.146341,-16.707317
1548434443563.000000,0.099182,-0.876465,0.543152,0.060976,-14.024390,-16.524391
1548434443570.000000,0.106934,-0.875977,0.546631,-0.060976,-13.719513,-16.219513
1548434443577.000000,0.117004,-0.886292,0.546875,-0.365854,-13.414635,-15.853659
1548434443592.000000,0.124512,-0.892883,0.544128,-0.487805,-13.048780,-15.426829
1548434443600.000000,0.127136,-0.886047,0.545898,-0.731707,-12.439025,-14.756098
1548434443608.000000,0.131409,-0.881836,0.546814,-0.975610,-11.951220,-13.902439
1548434443623.000000,0.138855,-0.882629,0.549255,-0.914634,-11.280488,-13.292684
1548434443630.000000,0.147156,-0.889404,0.554688,0.000000,-10.365854,-12.500000
1548434443638.000000,0.150208,-0.889099,0.556519,1.646341,-9.634147,-11.585366
1548434443653.000000,0.152466,-0.891418,0.560730,3.353659,-8.902439,-10.792684
1548434443660.000000,0.154297,-0.899536,0.556702,4.573171,-7.926829,-10.121951
1548434443668.000000,0.150696,-0.895935,0.549255,5.060976,-7.195122,-9.329268
1548434443682.000000,0.145386,-0.887451,0.541687,4.329268,-6.341464,-8.231708
1548434443690.000000,0.146057,-0.887207,0.539978,2.682927,-5.609756,-7.439024
1548434443698.000000,0.142090,-0.880737,0.535950,1.585366,-5.121951,-6.829268
1548434443720.000000,0.139771,-0.872192,0.528625,1.341463,-4.695122,-6.158537
1548434443720.000000,0.137146,-0.873474,0.530945,1.524390,-4.451220,-5.914634
1548434443727.000000,0.135010,-0.872192,0.528992,2.012195,-4.207317,-5.975610
1548434443743.000000,0.134644,-0.867004,0.518982,1.890244,-4.024390,-5.853659
1548434443751.000000,0.139587,-0.864929,0.507935,1.646341,-3.963415,-5.853659
1548434443758.000000,0.135864,-0.862244,0.502625,1.463415,-4.085366,-5.914634
1548434443773.000000,0.132874,-0.858276,0.502319,1.036585,-4.451220,-5.853659
1548434443780.000000,0.132263,-0.848877,0.503479,0.670732,-4.817073,-6.036585
1548434443789.000000,0.141602,-0.854614,0.509949,0.426829,-5.243903,-6.341464
1548434443804.000000,0.147217,-0.862000,0.503540,0.975610,-5.548780,-6.890244
1548434443810.000000,0.148254,-0.855957,0.494568,1.829268,-5.914634,-7.317073
1548434443817.000000,0.152466,-0.856506,0.497986,1.341463,-6.219512,-7.621952
1548434443833.000000,0.157166,-0.859741,0.500732,0.670732,-6.402439,-8.414635
1548434443840.000000,0.164856,-0.863403,0.505676,0.000000,-6.768293,-8.841464
1548434443847.000000,0.169922,-0.862427,0.504883,-0.975610,-6.829268,-9.207317
1548434443862.000000,0.173462,-0.856140,0.502380,-1.768293,-6.890244,-9.512196
1548434443870.000000,0.176392,-0.855408,0.503662,-2.439024,-6.829268,-9.817074
1548434443877.000000,0.181152,-0.857178,0.504272,-2.560976,-6.829268,-10.000000
1548434443893.000000,0.186035,-0.860901,0.506958,-2.012195,-7.012195,-10.060976
1548434443908.000000,0.185791,-0.857788,0.506775,-1.524390,-6.951220,-10.243902
1548434443908.000000,0.186829,-0.853027,0.501282,-1.585366,-6.890244,-10.304878
1548434443923.000000,0.192749,-0.857605,0.501404,-1.707317,-6.829268,-10.426829
1548434443931.000000,0.196045,-0.861572,0.506165,-1.890244,-6.829268,-10.670732
1548434443938.000000,0.196289,-0.856018,0.511108,-2.439024,-6.829268,-10.792684
1548434443953.000000,0.205078,-0.854980,0.506348,-3.292683,-6.707317,-10.853659
1548434443960.000000,0.205688,-0.857788,0.505249,-3.231707,-6.524390,-10.853659
1548434443968.000000,0.203369,-0.855774,0.508423,-2.743902,-6.585366,-10.914635
1548434443983.000000,0.206299,-0.854431,0.504456,-2.743902,-6.707317,-10.975610
1548434443991.000000,0.207275,-0.852112,0.508667,-3.109756,-6.646342,-11.097561
1548434443999.000000,0.205688,-0.845276,0.507568,-3.231707,-6.646342,-11.158537
1548434444013.000000,0.200439,-0.828979,0.499268,-3.292683,-6.585366,-11.341464
1548434444021.000000,0.203064,-0.831238,0.499695,-3.475610,-6.585366,-11.585366
1548434444028.000000,0.209412,-0.840881,0.496948,-2.987805,-6.707317,-12.012196
1548434444043.000000,0.207886,-0.841187,0.497192,-2.012195,-7.012195,-12.134147
1548434444051.000000,0.207886,-0.841736,0.506775,-1.768293,-7.134147,-12.195122
1548434444058.000000,0.213074,-0.845093,0.511719,-1.524390,-7.317073,-12.134147
1548434444074.000000,0.217712,-0.840576,0.512512,-0.731707,-7.500000,-11.951220
1548434444080.000000,0.219666,-0.843628,0.510925,-0.670732,-7.500000,-11.768293
1548434444088.000000,0.223755,-0.846558,0.521362,-1.463415,-7.560976,-11.707317
1548434444103.000000,0.234314,-0.836182,0.530762,-2.317073,-7.560976,-11.402439
1548434444110.000000,0.246033,-0.843079,0.543213,-1.768293,-7.195122,-10.853659
1548434444118.000000,0.258179,-0.861206,0.560059,0.853659,-6.463415,-10.548780
1548434444133.000000,0.271423,-0.866516,0.568726,5.182927,-5.914634,-9.390244
1548434444140.000000,0.273132,-0.863892,0.562012,9.878049,-4.878049,-7.926829
1548434444148.000000,0.251221,-0.869080,0.563232,14.451220,-3.780488,-6.280488
1548434444163.000000,0.221436,-0.880188,0.572693,17.317074,-3.170732,-4.573171
1548434444170.000000,0.273071,-0.900635,0.557800,16.585365,-1.768293,-1.890244
1548434444178.000000,0.270081,-0.860291,0.542114,14.390244,1.219512,1.524390
1548434444193.000000,0.221313,-0.828369,0.544861,9.878049,0.487805,1.890244
1548434444200.000000,0.226501,-0.852051,0.548523,7.621952,-0.548781,2.256098
1548434444208.000000,0.232849,-0.859192,0.554443,8.902439,0.792683,3.170732
1548434444223.000000,0.221252,-0.843994,0.562256,9.512196,1.341463,4.085366
1548434444231.000000,0.217712,-0.833496,0.566101,9.085366,1.890244,4.573171
1548434444245.000000,0.215393,-0.828979,0.561890,9.878049,2.743902,4.268293
1548434444253.000000,0.209167,-0.836182,0.553101,11.402439,3.292683,3.536585
1548434444261.000000,0.200867,-0.841125,0.549805,11.829268,3.963415,3.109756
1548434444268.000000,0.194702,-0.831482,0.547424,10.792684,4.268293,3.048780
1548434444283.000000,0.192749,-0.830078,0.544189,8.841464,4.573171,3.048780
1548434444291.000000,0.193787,-0.834534,0.539368,7.439024,4.878049,2.256098
1548434444298.000000,0.194641,-0.828064,0.541199,6.951220,5.304878,1.768293
1548434444313.000000,0.192444,-0.828430,0.543518,6.829268,5.426829,1.463415
1548434444321.000000,0.193970,-0.838745,0.537903,6.951220,5.548780,0.731707
1548434444328.000000,0.192078,-0.836670,0.529175,7.012195,5.914634,0.000000
1548434444343.000000,0.166443,-0.827698,0.532715,5.792683,6.463415,-0.365854
1548434444351.000000,0.201111,-0.860962,0.522644,3.353659,7.378049,-0.548781
1548434444358.000000,0.234680,-0.857727,0.506714,1.341463,9.695122,-0.426829
1548434444373.000000,0.211548,-0.829163,0.500549,-0.975610,9.390244,-2.134146
1548434444388.000000,0.187256,-0.835876,0.503784,-2.378049,7.378049,-3.780488
1548434444388.000000,0.222961,-0.868408,0.496643,-0.487805,7.134147,-4.451220
1548434444403.000000,0.250977,-0.886963,0.487427,1.829268,8.658537,-3.963415
1548434444410.000000,0.232849,-0.886414,0.485840,1.402439,7.560976,-3.658537
1548434444418.000000,0.212830,-0.882629,0.497009,-0.121951,5.304878,-4.390244
1548434444433.000000,0.219055,-0.901062,0.512268,1.036585,4.512195,-4.329268
1548434444440.000000,0.235535,-0.909851,0.514587,1.951220,5.060976,-3.231707
1548434444448.000000,0.224609,-0.896423,0.522888,0.243902,5.731708,-2.621951
1548434444463.000000,0.214294,-0.867310,0.528137,-3.414634,5.304878,-1.890244
1548434444470.000000,0.213074,-0.837952,0.504456,-6.585366,5.365854,-0.670732
1548434444478.000000,0.213440,-0.799927,0.491089,-8.780488,5.731708,0.792683
1548434444493.000000,0.213806,-0.803772,0.491089,-8.109756,5.182927,1.524390
1548434444501.000000,0.211731,-0.851074,0.511047,-3.170732,4.024390,0.731707
1548434444516.000000,0.205078,-0.869629,0.540344,1.097561,2.743902,0.670732
1548434444523.000000,0.212585,-0.873047,0.556885,1.097561,2.439024,1.463415
1548434444530.000000,0.217773,-0.865906,0.568054,-1.097561,3.353659,2.073171
1548434444545.000000,0.210144,-0.851624,0.575012,-4.024390,4.146341,2.804878
1548434444553.000000,0.196533,-0.843323,0.588074,-7.378049,5.060976,2.560976
1548434444560.000000,0.203003,-0.845520,0.590454,-10.487805,5.975610,2.560976
1548434444568.000000,0.208984,-0.841492,0.583191,-13.658537,8.414635,2.560976
1548434444583.000000,0.211670,-0.804016,0.568420,-18.048780,10.365854,2.378049
1548434444591.000000,0.216309,-0.749023,0.532471,-23.231709,11.585366,1.402439
1548434444598.000000,0.205566,-0.735352,0.496460,-24.817074,12.073171,-0.182927
1548434444613.000000,0.209351,-0.777893,0.460938,-20.548780,11.158537,-2.743902
1548434444628.000000,0.211060,-0.803711,0.439453,-13.170732,10.609756,-4.512195
1548434444629.000000,0.211548,-0.836548,0.438538,-6.097561,9.207317,-5.304878
1548434444643.000000,0.218445,-0.874146,0.455688,0.426829,7.439024,-5.914634
1548434444651.000000,0.212708,-0.883728,0.476074,5.304878,5.731708,-5.914634
1548434444658.000000,0.210632,-0.889160,0.488953,7.012195,4.268293,-5.243903
1548434444673.000000,0.214417,-0.895874,0.492981,6.829268,3.231707,-4.390244
1548434444680.000000,0.221191,-0.897583,0.484375,5.426829,2.317073,-3.597561
1548434444688.000000,0.210876,-0.893860,0.476379,3.475610,0.853659,-2.743902
1548434444703.000000,0.199951,-0.894165,0.486938,2.621951,-1.158537,-1.585366
1548434444718.000000,0.195068,-0.885742,0.505554,2.804878,-3.048780,-0.121951
1548434444718.000000,0.197021,-0.864929,0.504395,2.378049,-3.536585,1.402439
1548434444741.000000,0.199036,-0.851013,0.499329,1.829268,-3.292683,2.743902
1548434444741.000000,0.205261,-0.879211,0.501160,2.743902,-3.353659,4.207317
1548434444748.000000,0.208130,-0.900635,0.512939,4.451220,-3.719512,5.243903
1548434444763.000000,0.203674,-0.893677,0.532593,4.207317,-4.146341,6.768293
1548434444778.000000,0.198792,-0.888611,0.542358,1.951220,-4.268293,8.292683
1548434444778.000000,0.198669,-0.893677,0.541138,-0.914634,-4.085366,9.878049
1548434444793.000000,0.199036,-0.883667,0.537231,-4.329268,-3.170732,11.097561
1548434444800.000000,0.200989,-0.875732,0.537476,-7.987805,-2.134146,12.560976
1548434444808.000000,0.196045,-0.894653,0.528625,-10.548780,-1.707317,13.902439
1548434444823.000000,0.189148,-0.896912,0.519531,-12.073171,-1.280488,15.365854
1548434444832.000000,0.181885,-0.890198,0.500305,-13.780488,-0.182927,17.134148
1548434444838.000000,0.173035,-0.883423,0.476135,-15.426829,0.670732,17.987804
1548434444853.000000,0.173340,-0.895203,0.466675,-13.414635,1.341463,19.451220
1548434444860.000000,0.171143,-0.902954,0.469421,-7.560976,2.195122,22.134148
1548434444876.000000,0.168335,-0.887756,0.497681,-1.097561,2.500000,25.182928
1548434444883.000000,0.175598,-0.883057,0.512329,6.829268,2.500000,28.353659
1548434444913.000000,0.183411,-0.891052,0.519714,17.682928,2.439024,30.243902
1548434444913.000000,0.180481,-0.898621,0.533203,31.402439,1.768293,29.939026
1548434444914.000000,0.163696,-0.889282,0.553040,46.768295,-1.158537,28.841465
1548434444921.000000,0.145386,-0.914856,0.549011,62.804878,-3.841464,27.926830
1548434444928.000000,0.144409,-0.918152,0.570312,74.329269,-5.182927,30.487806
1548434444950.000000,0.134644,-0.936035,0.600830,77.439026,-5.548780,33.109756
1548434444951.000000,0.139709,-0.919312,0.636047,75.182930,-6.524390,33.780487
1548434444958.000000,0.146851,-0.916626,0.652405,73.048782,-5.121951,35.060978
1548434444973.000000,0.139282,-0.930298,0.652954,74.146339,-2.682927,37.439026
1548434444980.000000,0.122620,-0.933350,0.662720,69.512199,-0.365854,37.682926
1548434444988.000000,0.114319,-0.918213,0.675781,58.597561,1.768293,38.963417
1548434445003.000000,0.104126,-0.892273,0.691040,45.121952,4.207317,39.878048
1548434445010.000000,0.098206,-0.871460,0.703125,34.512196,6.646342,41.219513
1548434445018.000000,0.088623,-0.858521,0.719421,27.378050,9.146341,41.829269
1548434445033.000000,0.080505,-0.856995,0.732300,24.085367,11.219512,41.463417
1548434445041.000000,0.071167,-0.849243,0.731506,23.658537,13.231708,41.707317
1548434445048.000000,0.060730,-0.847534,0.726074,22.804878,15.487805,42.195122
1548434445063.000000,0.054016,-0.844971,0.730591,20.000000,17.987804,42.378048
1548434445071.000000,0.049561,-0.844421,0.728638,16.036585,20.365854,42.500000
1548434445078.000000,0.039429,-0.825378,0.714783,10.670732,22.926830,42.500000
1548434445093.000000,0.035095,-0.799316,0.701721,3.780488,25.609756,42.560978
1548434445101.000000,0.030640,-0.801147,0.706238,-1.219512,27.621952,42.500000
1548434445108.000000,0.022827,-0.804199,0.717651,-1.341463,29.390245,42.134148
1548434445123.000000,0.014221,-0.804504,0.702148,-0.365854,31.341465,41.646343
1548434445130.000000,0.004211,-0.800354,0.681091,-2.439024,33.292683,41.158539
1548434445138.000000,0.000916,-0.800415,0.672546,-5.182927,34.634148,41.097561
1548434445153.000000,-0.007629,-0.796692,0.664917,-5.853659,35.731709,41.219513
1548434445160.000000,-0.021851,-0.799561,0.656616,-6.402439,36.280487,40.975609
1548434445168.000000,-0.031616,-0.797852,0.654968,-9.390244,36.646343,40.365856
1548434445183.000000,-0.039001,-0.773499,0.652161,-13.414635,36.951221,40.121952
1548434445190.000000,-0.041748,-0.765137,0.659241,-15.731708,37.195122,40.365856
1548434445198.000000,-0.045593,-0.779846,0.661499,-13.170732,37.195122,40.182926
1548434445213.000000,-0.056641,-0.791260,0.635071,-10.060976,37.073170,39.512196
1548434445220.000000,-0.070679,-0.796204,0.609863,-12.012196,36.890244,39.390244
1548434445228.000000,-0.072571,-0.791992,0.605225,-15.182927,36.402439,39.817074
1548434445243.000000,-0.078369,-0.753662,0.601440,-17.500000,36.097561,39.451221
1548434445251.000000,-0.091309,-0.731812,0.602356,-19.207317,35.609756,39.146343
1548434445258.000000,-0.098511,-0.764526,0.623169,-16.158537,34.634148,38.841465
1548434445273.000000,-0.100952,-0.788147,0.626526,-10.121951,33.841465,37.439026
1548434445280.000000,-0.113770,-0.810791,0.607788,-10.792684,33.719513,36.219513
1548434445288.000000,-0.116516,-0.833313,0.600830,-18.109756,33.963417,35.487804
1548434445303.000000,-0.114563,-0.832092,0.597107,-27.439026,34.268295,34.878048
1548434445310.000000,-0.120483,-0.806458,0.576233,-37.682926,34.756100,34.451221
1548434445318.000000,-0.118591,-0.810364,0.559570,-45.731709,35.000000,34.939026
1548434445333.000000,-0.123047,-0.830688,0.560242,-46.829269,34.756100,35.365856
1548434445340.000000,-0.137329,-0.838135,0.566345,-44.634148,33.841465,35.365856
1548434445348.000000,-0.155701,-0.840881,0.588318,-44.024391,33.292683,35.304878
1548434445363.000000,-0.163513,-0.863281,0.607117,-45.731709,33.231709,34.939026
1548434445370.000000,-0.165527,-0.899963,0.584473,-51.097561,33.902439,34.573170
1548434445378.000000,-0.169800,-0.916931,0.537781,-61.280491,34.695122,34.512196
1548434445393.000000,-0.184875,-0.919861,0.516846,-74.268295,35.365856,35.487804
1548434445400.000000,-0.204285,-0.858215,0.488892,-87.012199,35.975609,36.280487
1548434445408.000000,-0.214966,-0.782104,0.454285,-97.256104,35.914635,37.926830
1548434445423.000000,-0.212952,-0.798645,0.456787,-98.048782,35.670734,40.000000
1548434445430.000000,-0.222656,-0.861206,0.467712,-83.963417,34.695122,38.780487
1548434445438.000000,-0.241638,-0.893311,0.468262,-66.402443,32.134148,38.170734
1548434445453.000000,-0.257324,-0.903687,0.445618,-57.682930,31.280489,36.463417
1548434445460.000000,-0.278687,-0.896484,0.429504,-56.463417,31.280489,34.268295
1548434445468.000000,-0.282593,-0.898560,0.418640,-60.426830,31.463415,34.207317
1548434445475.000000,-0.286621,-0.913879,0.413940,-65.243904,32.500000,34.939026
1548434445498.000000,-0.304993,-0.908020,0.416077,-71.280487,32.682926,33.475609
1548434445498.000000,-0.317078,-0.923279,0.414917,-76.341469,32.621952,32.743904
1548434445505.000000,-0.322083,-0.926208,0.406067,-77.256096,33.597561,34.207317
1548434445528.000000,-0.328064,-0.911316,0.376282,-74.329269,34.634148,35.182926
1548434445529.000000,-0.343506,-0.859680,0.328430,-71.097565,34.451221,35.670734
1548434445535.000000,-0.352722,-0.806641,0.293213,-68.902443,33.780487,37.134148
1548434445550.000000,-0.338135,-0.853027,0.273010,-60.731709,33.048782,37.987804
1548434445558.000000,-0.343445,-0.923218,0.287476,-45.243904,31.829269,37.682926
1548434445566.000000,-0.367004,-0.980896,0.320312,-31.768293,29.451220,38.353661
1548434445580.000000,-0.390320,-0.987366,0.328003,-31.402439,28.475611,37.926830
1548434445595.000000,-0.412537,-0.937683,0.328552,-42.317074,29.146341,38.048782
1548434445596.000000,-0.414856,-0.907654,0.332336,-54.146343,30.975611,38.841465
1548434445610.000000,-0.413025,-0.866272,0.325928,-55.426830,33.597561,40.792683
1548434445618.000000,-0.436401,-0.820862,0.314270,-44.329269,34.817074,40.487804
1548434445626.000000,-0.438171,-0.830444,0.306519,-23.292683,34.695122,40.731709
1548434445640.000000,-0.430786,-0.875366,0.286377,5.609756,35.487804,41.158539
1548434445648.000000,-0.439331,-0.896423,0.262207,32.134148,35.243904,40.182926
1548434445655.000000,-0.444702,-0.925598,0.245361,50.000000,34.817074,39.268295
1548434445670.000000,-0.457153,-0.945801,0.242676,55.792683,35.365856,38.536587
1548434445678.000000,-0.472351,-0.956238,0.258789,47.987804,35.426830,38.231709
1548434445686.000000,-0.480164,-0.923523,0.272949,28.536587,36.524391,37.743904
1548434445700.000000,-0.482117,-0.885010,0.270264,4.939024,38.536587,38.292683
1548434445716.000000,-0.482361,-0.882446,0.270447,-12.500000,40.121952,40.000000
1548434445717.000000,-0.479980,-0.876770,0.266602,-19.451220,40.670734,41.219513
1548434445730.000000,-0.480957,-0.846191,0.246216,-18.902439,40.426830,42.195122
1548434445737.000000,-0.493225,-0.814575,0.231689,-15.243903,40.060978,42.500000
1548434445745.000000,-0.498596,-0.819641,0.234802,-9.390244,39.268295,41.524391
1548434445760.000000,-0.493103,-0.839783,0.239807,-2.439024,38.414635,39.878048
1548434445767.000000,-0.501404,-0.849854,0.230591,1.707317,37.439026,38.902439
1548434445775.000000,-0.512024,-0.843811,0.219727,-0.487805,36.524391,38.048782
1548434445790.000000,-0.513855,-0.821716,0.202332,-6.951220,36.463417,37.560978
1548434445797.000000,-0.516296,-0.787659,0.182800,-14.268293,36.219513,37.073170
1548434445805.000000,-0.516357,-0.791809,0.169128,-19.634148,35.670734,36.158539
1548434445820.000000,-0.516174,-0.791382,0.167847,-21.463415,35.060978,35.609756
1548434445827.000000,-0.514954,-0.786316,0.160461,-20.853659,33.963417,35.182926
1548434445835.000000,-0.516846,-0.783569,0.165771,-19.024391,32.743904,34.451221
1548434445850.000000,-0.524841,-0.786682,0.167847,-15.121951,31.036587,32.865856
1548434445858.000000,-0.531677,-0.779358,0.160156,-9.817074,29.329269,31.768293
1548434445865.000000,-0.543945,-0.763855,0.156189,-5.182927,27.804878,29.939026
1548434445880.000000,-0.545532,-0.765137,0.149048,-1.646341,26.524391,28.048780
1548434445887.000000,-0.547485,-0.763428,0.153564,2.743902,25.487806,28.170732
1548434445895.000000,-0.555359,-0.763855,0.153015,8.475610,24.085367,27.500000
1548434445910.000000,-0.569275,-0.773926,0.162781,14.085366,22.012196,26.402439
1548434445917.000000,-0.579529,-0.786804,0.169678,19.512196,20.487804,25.609756
1548434445925.000000,-0.581787,-0.802063,0.170776,24.451220,19.329269,24.878050
1548434445940.000000,-0.587280,-0.817322,0.173706,26.402439,18.414635,24.756098
1548434445955.000000,-0.594177,-0.825317,0.175598,25.243902,17.804878,24.329269
1548434445956.000000,-0.591064,-0.818787,0.171814,21.646341,17.439024,24.390244
1548434445970.000000,-0.594910,-0.798279,0.171570,17.987804,17.134148,25.182928
1548434445978.000000,-0.602173,-0.812683,0.183289,16.951220,16.036585,25.853659
1548434445985.000000,-0.606384,-0.827515,0.193237,20.304878,15.487805,25.731709
1548434446002.000000,-0.613525,-0.815063,0.201660,26.280489,14.939025,26.707317
1548434446008.000000,-0.631287,-0.803528,0.197754,29.878050,14.634147,27.621952
1548434446015.000000,-0.643982,-0.795532,0.192078,29.390245,14.512196,27.682928
1548434446031.000000,-0.644958,-0.808655,0.188049,28.170732,14.817074,27.865854
1548434446038.000000,-0.648010,-0.797668,0.187500,29.390245,15.060976,28.231709
1548434446045.000000,-0.663147,-0.781738,0.196289,32.682926,14.695123,28.963415
1548434446060.000000,-0.669556,-0.784851,0.195862,36.158539,14.878049,29.390245
1548434446068.000000,-0.678833,-0.766479,0.187866,39.451221,14.756098,29.329269
1548434446075.000000,-0.687195,-0.765137,0.181152,40.365856,14.451220,29.329269
1548434446090.000000,-0.693481,-0.756470,0.174011,40.487804,14.878049,29.817074
1548434446098.000000,-0.695618,-0.745667,0.170410,41.280487,14.756098,30.060976
1548434446106.000000,-0.698181,-0.729065,0.168152,44.573174,14.268293,30.365854
1548434446121.000000,-0.704651,-0.706604,0.171997,50.853661,13.353659,30.548780
1548434446128.000000,-0.707092,-0.707397,0.173828,56.951221,12.560976,29.939026
1548434446135.000000,-0.705933,-0.686890,0.168823,61.646343,11.829268,28.902439
1548434446150.000000,-0.697632,-0.657776,0.168457,63.475613,10.670732,27.560976
1548434446158.000000,-0.721130,-0.641174,0.177795,65.670731,9.085366,25.853659
1548434446165.000000,-0.744019,-0.635376,0.187927,70.487808,7.012195,23.536587
1548434446181.000000,-0.725342,-0.637268,0.194458,75.731712,5.914634,22.743902
1548434446188.000000,-0.704651,-0.647156,0.208984,80.182930,5.792683,22.804878
1548434446195.000000,-0.693420,-0.651794,0.212524,82.682930,5.000000,20.000000
1548434446211.000000,-0.722839,-0.625916,0.225952,80.792686,2.926829,18.841463
1548434446218.000000,-0.729187,-0.693298,0.262085,77.378052,0.609756,17.134148
1548434446226.000000,-0.732178,-0.755859,0.317688,73.414635,0.670732,16.036585
1548434446240.000000,-0.751404,-0.763855,0.343689,59.878052,1.036585,17.195122
1548434446248.000000,-0.750671,-0.755127,0.361816,33.780487,2.926829,17.317074
1548434446255.000000,-0.747681,-0.713318,0.356262,6.951220,6.158537,17.804878
1548434446270.000000,-0.720337,-0.687439,0.334717,-13.353659,9.085366,18.658537
1548434446278.000000,-0.716248,-0.708740,0.325317,-25.243902,11.524390,19.756098
1548434446285.000000,-0.723755,-0.704712,0.317261,-34.329269,12.317074,19.695122
1548434446300.000000,-0.726074,-0.680420,0.312805,-44.268295,12.926829,20.426830
1548434446308.000000,-0.721741,-0.676880,0.317810,-52.865856,13.902439,20.792683
1548434446315.000000,-0.733643,-0.686584,0.323242,-58.658539,14.268293,19.756098
1548434446330.000000,-0.743835,-0.695190,0.322510,-65.121956,14.207317,19.085367
1548434446338.000000,-0.745850,-0.687622,0.310669,-76.219513,15.243903,18.719513
1548434446345.000000,-0.742615,-0.688782,0.299377,-88.292686,16.585365,18.658537
1548434446360.000000,-0.737915,-0.726257,0.302856,-96.524391,17.560976,18.048780
1548434446368.000000,-0.751038,-0.700134,0.260620,-104.756104,17.987804,18.231709
1548434446375.000000,-0.766479,-0.647949,0.210388,-118.963417,17.804878,19.390244
1548434446390.000000,-0.751160,-0.634094,0.172668,-133.353668,19.451220,20.487804
1548434446398.000000,-0.741760,-0.605164,0.129272,-135.670731,22.012196,20.060976
1548434446405.000000,-0.750183,-0.560425,0.095825,-123.658539,20.792683,20.792683
1548434446420.000000,-0.762756,-0.578003,0.098816,-104.817078,17.865854,20.853659
1548434446428.000000,-0.771667,-0.602295,0.094421,-82.560974,16.463415,19.329269
1548434446435.000000,-0.789185,-0.582031,0.090210,-63.719513,14.634147,17.317074
1548434446450.000000,-0.788208,-0.580505,0.085327,-49.817074,12.560976,16.097561
1548434446458.000000,-0.786377,-0.572510,0.068115,-35.975609,11.768293,14.878049
1548434446465.000000,-0.794800,-0.570312,0.054993,-23.048780,10.243902,12.195122
1548434446480.000000,-0.794434,-0.606506,0.055237,-10.731708,7.560976,10.670732
1548434446488.000000,-0.801331,-0.631042,0.051636,-1.097561,5.609756,10.365854
1548434446495.000000,-0.808289,-0.612427,0.042786,1.402439,4.268293,9.573171
1548434446511.000000,-0.809937,-0.608459,0.042480,-1.524390,3.475610,9.146341
1548434446518.000000,-0.807129,-0.621582,0.044983,-4.085366,3.292683,7.987805
1548434446525.000000,-0.807922,-0.605774,0.044617,-2.134146,2.804878,7.378049
1548434446540.000000,-0.809631,-0.623474,0.059509,2.926829,1.158537,7.134147
1548434446548.000000,-0.812927,-0.656555,0.079956,7.195122,-0.182927,6.158537
1548434446555.000000,-0.815674,-0.656311,0.078186,7.500000,-0.731707,5.792683
1548434446570.000000,-0.812988,-0.656982,0.075928,3.353659,-0.548781,5.792683
1548434446578.000000,-0.807373,-0.664246,0.077454,-0.060976,0.000000,5.487805
1548434446585.000000,-0.807678,-0.664856,0.074341,-0.853659,-0.304878,5.731708
1548434446600.000000,-0.811218,-0.662537,0.075073,-2.500000,-0.975610,6.158537
1548434446608.000000,-0.809021,-0.668823,0.079712,-5.487805,-0.609756,5.792683
1548434446615.000000,-0.804626,-0.653503,0.089966,-6.219512,0.426829,5.975610
1548434446630.000000,-0.807190,-0.655640,0.100830,-2.865854,0.914634,6.463415
1548434446638.000000,-0.813354,-0.662598,0.101440,1.280488,0.670732,6.585366
1548434446645.000000,-0.807495,-0.667969,0.093567,3.170732,0.426829,6.585366
1548434446661.000000,-0.802246,-0.680603,0.093567,3.170732,1.158537,6.463415
1548434446668.000000,-0.802673,-0.677246,0.089661,3.719512,1.768293,6.707317
1548434446676.000000,-0.803162,-0.659973,0.084961,4.634146,1.890244,7.073171
1548434446690.000000,-0.801697,-0.654175,0.075012,5.060976,2.378049,7.073171
1548434446699.000000,-0.799316,-0.651184,0.063843,4.939024,2.560976,6.890244
1548434446706.000000,-0.797119,-0.654785,0.058838,3.780488,2.560976,6.646342
1548434446723.000000,-0.794128,-0.652466,0.054382,2.560976,2.865854,6.341464
1548434446728.000000,-0.791809,-0.639954,0.055603,2.560976,2.865854,5.914634
1548434446738.000000,-0.798828,-0.631042,0.065125,5.000000,2.682927,5.609756
1548434446750.000000,-0.804077,-0.638000,0.079773,9.207317,2.195122,5.243903
1548434446757.000000,-0.808899,-0.657288,0.100159,14.329268,2.134146,5.000000
1548434446765.000000,-0.806335,-0.683044,0.119751,18.170732,2.012195,5.243903
1548434446780.000000,-0.806335,-0.690735,0.130554,18.841463,1.951220,6.036585
1548434446787.000000,-0.809143,-0.676025,0.128296,16.463415,2.195122,7.134147
1548434446795.000000,-0.813721,-0.671570,0.128479,13.048780,2.500000,7.195122
1548434446810.000000,-0.815979,-0.668396,0.117249,12.012196,2.743902,7.560976
1548434446817.000000,-0.838501,-0.635864,0.105591,13.536586,2.256098,9.512196
1548434446825.000000,-0.830566,-0.640991,0.100281,14.634147,1.890244,10.792684
1548434446840.000000,-0.820984,-0.661133,0.103271,16.707317,2.865854,11.768293
1548434446848.000000,-0.828796,-0.659668,0.100708,18.902439,2.926829,12.439025
1548434446859.000000,-0.838257,-0.640808,0.098938,17.134148,2.134146,13.170732
1548434446870.000000,-0.837585,-0.651978,0.106812,13.292684,2.317073,13.780488
1548434446877.000000,-0.837585,-0.654846,0.107971,9.939025,2.987805,14.207317
1548434446885.000000,-0.842163,-0.626648,0.103271,5.304878,2.865854,15.243903
1548434446900.000000,-0.839722,-0.621155,0.103638,0.182927,2.804878,15.914635
