timestamp, accel_x, accel_y, accel_z, gyro_x, gyro_y, gyro_z
1548438755723,-0.056396,-0.006348,-0.999146,4.390244,-1.158537,-0.304878
1548438755723,-0.061218,-0.013672,-1.007141,4.695122,-1.219512,-0.731707
1548438755729,-0.064880,-0.017639,-1.009766,3.231707,-0.975610,-1.280488
1548438755736,-0.061768,-0.009888,-1.006592,2.743902,-0.548781,-0.731707
1548438755743,-0.064880,-0.008484,-1.007690,1.951220,-0.365854,-0.060976
1548438755758,-0.065063,-0.012268,-1.015015,-0.975610,0.487805,-0.487805
1548438755766,-0.064636,-0.014954,-1.012146,-0.792683,0.853659,-0.975610
1548438755773,-0.064087,-0.016541,-1.012817,1.768293,0.365854,-0.426829
1548438755789,-0.061890,-0.014832,-1.011230,2.987805,0.365854,-0.304878
1548438755796,-0.057800,-0.013733,-1.005493,3.658537,1.097561,-0.914634
1548438755809,-0.058228,-0.013184,-1.001099,4.512195,1.097561,-1.219512
1548438755821,-0.057129,-0.016907,-1.007141,3.658537,0.426829,-1.036585
1548438755845,-0.059814,-0.015381,-1.010986,2.073171,-0.121951,-1.402439
1548438755845,-0.062134,-0.019531,-1.002747,1.890244,-0.548781,-1.463415
1548438755852,-0.061768,-0.022644,-1.003784,0.914634,-0.670732,-1.646341
1548438755856,-0.064941,-0.020569,-1.010071,-2.256098,-0.365854,-1.097561
1548438755863,-0.062622,-0.019226,-1.009338,-3.414634,-0.792683,-0.792683
1548438755879,-0.057495,-0.014160,-1.004333,-2.378049,-1.463415,0.000000
1548438755903,-0.059326,-0.006287,-0.999084,-1.280488,-1.585366,0.487805
1548438755903,-0.062012,-0.005127,-0.997864,-2.317073,-1.402439,0.426829
1548438755915,-0.063782,-0.007690,-1.012512,-5.853659,-1.524390,0.243902
1548438755917,-0.065002,-0.009827,-1.011658,-7.134147,-1.524390,0.121951
1548438755923,-0.063904,-0.008179,-1.009583,-5.304878,-2.012195,-0.243902
1548438755945,-0.065796,-0.011475,-1.010071,-5.792683,-1.707317,-0.975610
1548438755947,-0.067200,-0.009644,-1.013184,-7.012195,-0.975610,-1.524390
1548438755953,-0.065125,-0.009644,-1.011597,-6.829268,-0.914634,-1.341463
1548438755968,-0.062134,-0.005127,-1.011353,-5.304878,-1.585366,-0.853659
1548438755976,-0.062378,-0.005615,-1.008789,-3.475610,-1.890244,0.182927
1548438755984,-0.061462,-0.003357,-1.002686,-3.231707,-2.560976,1.951220
1548438755998,-0.061951,-0.008240,-1.008301,-3.109756,-3.231707,2.317073
1548438756005,-0.062134,-0.015198,-1.013062,-4.695122,-4.146341,2.439024
1548438756013,-0.063965,-0.014648,-1.014343,-5.365854,-4.512195,2.804878
1548438756028,-0.062561,-0.017151,-1.014038,-4.756098,-3.109756,2.987805
1548438756036,-0.059387,-0.014587,-1.006836,-4.268293,-2.621951,3.231707
1548438756043,-0.060181,0.002441,-1.018799,-2.012195,-2.560976,3.109756
1548438756058,-0.053589,-0.008728,-1.007080,-1.707317,-1.585366,2.621951
1548438756066,-0.056519,0.002747,-1.002930,-0.426829,-0.731707,2.439024
1548438756073,-0.055847,0.008118,-1.005859,2.682927,0.426829,5.487805
1548438756088,-0.057190,0.013062,-1.005310,2.195122,-0.853659,4.573171
1548438756096,-0.060547,0.004211,-0.998901,-0.731707,-1.341463,3.292683
1548438756103,-0.068420,-0.001709,-0.998840,-3.536585,-0.792683,1.463415
1548438756118,-0.067932,-0.003235,-1.008179,-4.878049,-0.731707,-0.121951
1548438756125,-0.066650,-0.003601,-1.014709,-6.036585,-1.158537,-0.609756
1548438756133,-0.063599,-0.007263,-1.015625,-6.707317,-1.951220,0.182927
1548438756149,-0.060120,0.003296,-1.010071,-5.426829,-2.134146,1.036585
1548438756159,-0.057739,0.008911,-1.006348,-2.195122,-1.890244,1.463415
1548438756163,-0.065430,0.013489,-1.012695,-0.304878,-2.073171,0.792683
1548438756178,-0.072083,-0.002258,-1.022217,0.548781,-1.646341,-0.487805
1548438756186,-0.076172,-0.007751,-1.006714,2.500000,-1.646341,-1.951220
1548438756193,-0.076050,-0.004272,-1.002014,2.743902,-2.926829,-1.524390
1548438756208,-0.076111,-0.000610,-1.003784,-0.121951,-2.560976,-0.914634
1548438756216,-0.074341,0.012695,-1.004700,-3.353659,-1.768293,0.000000
1548438756223,-0.069946,0.018616,-1.007874,-4.207317,-2.439024,-0.548781
1548438756238,-0.070984,0.013184,-1.007935,-4.817073,-2.987805,-1.463415
1548438756245,-0.071167,0.009949,-1.003723,-4.939024,-2.560976,-0.975610
1548438756255,-0.069397,0.009155,-1.003174,-4.451220,-2.560976,-0.548781
1548438756268,-0.066650,0.015137,-1.005432,-7.073171,-3.231707,0.426829
1548438756275,-0.061096,0.013306,-1.010315,-9.268292,-3.048780,0.670732
1548438756284,-0.060791,0.016785,-1.015198,-9.268292,-2.439024,0.243902
1548438756299,-0.058533,0.016296,-1.015198,-7.378049,-2.256098,0.609756
1548438756306,-0.060791,0.012329,-1.009949,-3.902439,-2.134146,0.731707
1548438756313,-0.064819,0.011719,-1.014526,-2.073171,-1.341463,0.731707
1548438756328,-0.065247,0.012573,-1.019531,-1.829268,-0.487805,1.402439
1548438756335,-0.067444,0.008179,-1.012878,1.951220,-0.365854,1.219512
1548438756343,-0.066345,0.008972,-1.009766,5.975610,-0.060976,0.670732
1548438756358,-0.064636,0.013489,-1.000427,7.073171,0.670732,0.243902
1548438756366,-0.064148,0.012207,-1.002014,5.670732,0.304878,-0.121951
1548438756373,-0.069702,0.006226,-1.005432,2.500000,-0.060976,-0.914634
1548438756388,-0.073425,0.010437,-1.006775,3.048780,-0.914634,-0.304878
1548438756396,-0.072327,0.012939,-1.012573,5.365854,-1.768293,0.304878
1548438756403,-0.070496,0.011292,-1.008728,5.304878,-1.463415,0.060976
1548438756418,-0.070251,0.010986,-1.010010,5.975610,-1.036585,0.304878
1548438756426,-0.070740,0.007324,-1.017273,6.524390,-0.609756,-0.060976
1548438756433,-0.072021,0.006592,-1.013184,8.109756,-0.304878,-0.609756
1548438756449,-0.072998,-0.002319,-1.009644,10.243902,0.609756,-1.402439
1548438756456,-0.071533,-0.012024,-1.004883,11.036586,1.646341,-2.317073
1548438756463,-0.068970,-0.009644,-0.996399,12.195122,1.036585,-1.707317
1548438756479,-0.066833,-0.010010,-1.006958,9.207317,0.182927,0.243902
1548438756487,-0.065918,-0.005371,-1.009583,3.902439,-0.060976,0.731707
1548438756495,-0.064636,-0.000305,-1.003967,4.146341,-0.426829,1.524390
1548438756508,-0.062012,0.002686,-0.999451,4.939024,-0.731707,1.829268
1548438756516,-0.062805,0.003052,-1.004395,2.621951,-0.670732,1.341463
1548438756523,-0.064697,-0.004089,-1.006470,-1.158537,-1.036585,1.036585
1548438756538,-0.066345,-0.003784,-1.008240,-2.317073,-1.585366,0.731707
1548438756546,-0.071472,-0.005798,-1.013733,-0.609756,-1.707317,0.609756
1548438756554,-0.068665,-0.005310,-1.016235,1.829268,-1.768293,0.426829
1548438756568,-0.069031,-0.004822,-1.006836,4.329268,-1.646341,0.731707
1548438756576,-0.066223,-0.013062,-0.998413,6.158537,-1.646341,0.609756
1548438756583,-0.067749,-0.015015,-0.997742,4.756098,-1.158537,0.060976
1548438756598,-0.071350,-0.021606,-0.995422,0.792683,-0.853659,2.073171
1548438756606,-0.072144,0.004089,-1.022583,-1.463415,-1.402439,5.000000
1548438756613,-0.067566,-0.008179,-1.019653,-1.036585,-2.256098,3.353659
1548438756628,-0.068970,-0.007446,-1.003662,0.853659,-2.682927,2.134146
1548438756636,-0.069336,0.004028,-1.006104,2.500000,-1.280488,3.170732
1548438756643,-0.065063,-0.001648,-0.996277,2.926829,-0.853659,3.902439
1548438756658,-0.065247,0.003113,-1.006775,1.585366,-2.134146,3.536585
1548438756665,-0.064026,-0.016602,-1.003235,-2.256098,-2.256098,3.292683
1548438756673,-0.070801,0.006714,-1.014587,-4.634146,-2.256098,3.841464
1548438756688,-0.065796,-0.000061,-1.017883,-4.390244,-2.073171,5.670732
1548438756696,-0.069519,-0.002869,-1.010803,-2.317073,-2.560976,2.865854
1548438756703,-0.071594,-0.007996,-1.014526,0.121951,-1.707317,2.560976
1548438756718,-0.072876,-0.009338,-1.013123,0.548781,-0.853659,1.707317
1548438756725,-0.072327,-0.011719,-1.017517,1.585366,-0.914634,0.853659
1548438756733,-0.067932,-0.010925,-1.015747,2.317073,-0.731707,0.304878
1548438756748,-0.064819,-0.008301,-0.997864,5.243903,-0.243902,0.670732
1548438756756,-0.062195,-0.006104,-0.981750,7.439024,-0.609756,0.792683
1548438756763,-0.060730,0.002502,-1.002563,3.536585,-1.707317,1.219512
1548438756778,-0.062561,-0.003723,-1.012939,-1.280488,-2.317073,0.853659
1548438756785,-0.064636,0.001221,-1.005371,0.792683,-3.292683,-0.060976
1548438756793,-0.072388,-0.003174,-1.006104,1.829268,-3.597561,-0.060976
1548438756808,-0.078552,-0.006287,-1.011353,-0.304878,-2.926829,-1.524390
1548438756815,-0.086060,-0.009033,-1.011108,-0.121951,-2.865854,-2.134146
1548438756823,-0.083374,-0.009705,-1.012695,0.365854,-3.292683,-2.256098
1548438756838,-0.078247,-0.007568,-1.008606,1.219512,-2.256098,-2.073171
1548438756845,-0.070679,-0.001587,-1.007812,2.439024,-0.731707,-0.609756
1548438756853,-0.068420,-0.001343,-1.011902,2.804878,0.000000,0.670732
1548438756868,-0.064148,0.002930,-1.013489,3.536585,1.158537,2.012195
1548438756876,-0.063171,-0.000488,-1.002441,5.853659,1.646341,2.439024
1548438756883,-0.065369,-0.013489,-1.000244,6.219512,1.524390,1.768293
1548438756898,-0.071167,-0.017822,-1.002136,3.658537,1.585366,2.073171
1548438756906,-0.071045,-0.018066,-1.008179,1.768293,0.365854,2.256098
1548438756913,-0.071411,-0.014343,-1.008179,0.060976,-1.280488,1.768293
1548438756928,-0.072388,-0.012512,-1.009827,-0.243902,-1.890244,1.219512
1548438756936,-0.068848,-0.010193,-1.014160,-1.036585,-1.646341,0.182927
1548438756943,-0.064331,-0.011963,-1.003052,-0.060976,-1.524390,-0.060976
1548438756959,-0.066223,-0.011597,-1.000977,0.670732,-1.402439,0.000000
1548438756966,-0.067383,-0.008789,-1.011780,-0.487805,-1.463415,-0.365854
1548438756985,-0.068726,-0.008545,-1.015747,0.060976,-1.707317,-0.609756
1548438756992,-0.068970,-0.013245,-1.015320,2.926829,-1.219512,-0.487805
1548438756996,-0.072205,-0.010620,-1.006775,5.000000,-0.060976,-0.182927
1548438757004,-0.069458,-0.010559,-1.000000,5.609756,0.548781,-0.182927
1548438757019,-0.070251,-0.013000,-1.012756,4.756098,0.609756,-0.548781
1548438757026,-0.071045,-0.014648,-1.008423,2.560976,0.792683,0.609756
1548438757033,-0.074036,-0.016541,-0.997986,2.560976,0.304878,1.829268
1548438757048,-0.074341,-0.015137,-1.009705,1.768293,-0.426829,2.073171
1548438757056,-0.070740,-0.014404,-1.010376,0.975610,-0.975610,2.500000
1548438757063,-0.071899,-0.019592,-1.007141,1.524390,-1.463415,2.682927
1548438757078,-0.071106,-0.021362,-1.012207,1.280488,-1.585366,1.402439
1548438757085,-0.064697,-0.019836,-1.010925,2.682927,-1.097561,0.365854
1548438757093,-0.062439,-0.018372,-0.997437,4.634146,-0.792683,0.121951
1548438757108,-0.064514,-0.017395,-1.000610,4.268293,-0.853659,0.304878
1548438757116,-0.064270,-0.017273,-1.011963,1.463415,-0.975610,-0.182927
1548438757123,-0.064697,-0.015869,-1.007935,2.012195,-1.097561,-0.121951
1548438757138,-0.067322,-0.014099,-1.007690,3.658537,-1.524390,0.121951
1548438757146,-0.072449,-0.018677,-1.011353,2.134146,-0.609756,0.243902
1548438757153,-0.076111,-0.023438,-1.009644,2.012195,0.182927,0.243902
1548438757168,-0.078308,-0.019348,-1.007690,4.634146,0.060976,0.426829
1548438757175,-0.073792,-0.021912,-1.007446,5.243903,-0.182927,0.731707
1548438757183,-0.072449,-0.024414,-1.004639,5.243903,-0.060976,0.365854
1548438757198,-0.070007,-0.023193,-1.003174,4.878049,-0.060976,0.670732
1548438757205,-0.068970,-0.019287,-1.004883,4.390244,-0.121951,0.670732
1548438757213,-0.068359,-0.021729,-1.008057,3.658537,-0.304878,0.304878
1548438757228,-0.066467,-0.027954,-1.010315,2.987805,-0.304878,-0.243902
1548438757235,-0.069031,-0.032349,-1.002625,3.841464,-0.426829,-0.182927
1548438757243,-0.064697,-0.033325,-0.995605,4.756098,-0.853659,-0.243902
1548438757258,-0.064697,-0.026184,-1.006836,3.963415,-1.097561,-0.365854
1548438757265,-0.066528,-0.021973,-1.015320,2.256098,-0.670732,-0.121951
1548438757273,-0.063904,-0.023071,-1.012024,-0.792683,-1.219512,-0.304878
1548438757288,-0.066223,-0.027344,-1.003662,-1.219512,-1.158537,-0.792683
1548438757295,-0.069458,-0.027161,-0.993042,1.158537,-0.548781,0.121951
1548438757303,-0.070984,-0.027649,-1.005310,0.731707,-1.341463,1.707317
1548438757318,-0.070862,-0.033142,-1.013245,-4.390244,-2.439024,1.890244
1548438757325,-0.072205,-0.019897,-1.005127,-3.902439,-2.378049,2.987805
1548438757333,-0.074951,-0.016541,-1.012695,-2.743902,-2.073171,4.024390
1548438757348,-0.073303,-0.016235,-1.020569,-4.939024,-2.195122,2.682927
1548438757355,-0.072998,-0.015930,-1.008972,-2.317073,-2.317073,2.682927
1548438757363,-0.069336,-0.020264,-1.012329,0.731707,-2.073171,3.109756
1548438757378,-0.070984,-0.027649,-1.017090,1.341463,-2.012195,3.109756
1548438757386,-0.067993,-0.027710,-1.012329,7.073171,-2.621951,4.085366
1548438757394,-0.071289,-0.031006,-1.011047,12.621951,-3.475610,5.243903
1548438757408,-0.072083,-0.036072,-1.018188,13.719513,-3.597561,5.304878
1548438757416,-0.073730,-0.031494,-1.010376,16.036585,-2.560976,5.182927
1548438757423,-0.075745,-0.027100,-1.010620,18.109756,-1.890244,5.792683
1548438757438,-0.071289,-0.038147,-1.016235,16.341463,-0.609756,5.792683
1548438757450,-0.071960,-0.040222,-1.018066,18.170732,1.463415,6.158537
1548438757469,-0.074219,-0.040588,-1.007996,23.109756,2.987805,7.804878
1548438757469,-0.067871,-0.048340,-1.007141,25.000000,3.658537,8.475610
1548438757476,-0.067139,-0.049500,-0.962952,27.256098,5.487805,8.963415
1548438757484,-0.055664,-0.057373,-0.970764,24.390244,6.524390,10.121951
1548438757499,-0.079773,-0.049683,-0.977295,4.329268,6.463415,10.243902
1548438757506,-0.072144,-0.067139,-0.926697,-13.536586,-0.975610,11.036586
1548438757513,-0.059265,-0.032593,-1.036377,-43.597561,-12.987805,14.329268
1548438757529,-0.046875,-0.058655,-1.117004,-94.390244,-21.158537,16.341463
1548438757536,-0.072144,-0.009583,-1.018616,-47.621952,-2.378049,13.902439
1548438757544,-0.077393,-0.002441,-0.991272,-10.000000,3.048780,20.243902
1548438757559,-0.069031,-0.015808,-1.026733,-11.646341,-0.182927,16.829269
1548438757565,-0.066833,-0.034485,-1.012390,-7.134147,-2.195122,13.353659
1548438757573,-0.098022,0.002930,-0.967651,1.280488,-5.182927,13.353659
1548438757588,-0.076416,-0.011414,-1.015442,-9.024390,-8.170732,17.804878
1548438757597,-0.055420,-0.070496,-1.034790,-27.621952,-6.585366,11.341464
1548438757604,-0.081055,-0.043762,-1.030823,-25.914635,-11.402439,9.390244
1548438757618,-0.077332,-0.001221,-1.028381,-3.109756,-16.097561,19.817074
1548438757627,-0.075989,0.003296,-0.977844,3.841464,-19.878050,26.341463
1548438757633,-0.072205,0.008911,-1.036621,17.743902,-7.439024,27.804878
1548438757648,-0.079834,-0.015198,-1.033936,14.573171,2.256098,28.902439
1548438757657,-0.085632,-0.007568,-1.004456,32.012196,7.682927,30.731709
1548438757663,-0.089233,-0.009460,-1.024841,36.646343,5.243903,33.536587
1548438757680,-0.093811,-0.009521,-0.966309,37.317074,4.939024,34.207317
1548438757686,-0.072693,-0.036987,-1.011230,35.304878,-1.585366,30.243902
1548438757694,-0.051941,-0.090881,-1.030640,28.719513,-1.402439,27.682928
1548438757709,-0.079224,-0.049133,-1.019714,40.426830,1.585366,28.902439
1548438757716,-0.076782,-0.047485,-1.018860,48.475613,3.048780,35.304878
1548438757723,-0.081238,-0.082886,-1.024719,47.560978,6.707317,34.207317
1548438757738,-0.081665,-0.080933,-1.008911,46.585365,8.109756,32.804878
1548438757746,-0.091919,-0.078247,-0.979126,51.463417,4.817073,35.121952
1548438757754,-0.089355,-0.097107,-0.975525,45.792683,0.731707,33.902439
1548438757768,-0.081665,-0.091125,-1.002319,27.317074,-4.207317,28.963415
1548438757776,-0.081726,-0.090637,-1.011414,16.890244,-5.609756,23.963415
1548438757783,-0.082031,-0.082825,-0.985779,17.987804,-4.207317,19.451220
1548438757798,-0.084167,-0.081238,-0.980774,15.426829,-3.048780,17.987804
1548438757805,-0.081421,-0.087097,-1.006470,1.585366,-0.792683,13.963415
1548438757813,-0.074524,-0.086182,-1.012024,-1.585366,2.500000,10.060976
1548438757829,-0.075073,-0.091003,-1.004150,4.207317,3.902439,10.060976
1548438757835,-0.075256,-0.092590,-0.991455,5.121951,3.719512,11.219512
1548438757843,-0.075806,-0.096313,-0.985168,3.414634,1.463415,11.890244
1548438757858,-0.080933,-0.122437,-0.995605,-4.573171,-1.646341,9.573171
1548438757866,-0.079956,-0.119324,-1.010986,-11.646341,-3.719512,5.609756
1548438757874,-0.079529,-0.091370,-1.021667,-3.414634,-4.756098,10.426829
1548438757888,-0.080688,-0.098755,-1.030762,1.524390,-3.048780,10.548780
1548438757895,-0.083618,-0.092224,-1.024170,0.975610,-0.853659,7.012195
1548438757903,-0.083679,-0.079407,-1.004272,8.780488,2.073171,7.500000
1548438757918,-0.082703,-0.090149,-0.994141,12.621951,2.926829,5.609756
1548438757925,-0.084839,-0.101013,-0.991150,7.926829,2.987805,2.195122
1548438757933,-0.085632,-0.087708,-0.992432,4.878049,2.378049,1.280488
1548438757948,-0.081604,-0.087097,-0.996460,1.463415,-0.121951,0.548781
1548438757955,-0.079346,-0.086304,-0.999146,-2.134146,-1.707317,-1.829268
1548438757963,-0.075867,-0.082825,-0.990112,-2.378049,-1.585366,-3.597561
1548438757982,-0.078125,-0.095032,-0.974670,-4.878049,-1.585366,-6.158537
1548438757991,-0.079773,-0.097839,-0.992004,-13.048780,-2.439024,-9.512196
1548438757994,-0.081116,-0.097717,-1.012756,-17.195122,-3.109756,-10.121951
1548438758009,-0.080811,-0.102539,-1.023132,-15.914635,-3.109756,-9.390244
1548438758018,-0.083191,-0.112305,-1.021179,-15.792684,-3.597561,-6.158537
1548438758033,-0.079102,-0.091797,-1.010925,-13.902439,-5.121951,-2.682927
1548438758039,-0.083740,-0.085022,-1.012268,-10.121951,-4.756098,0.426829
1548438758072,-0.085144,-0.087097,-1.013306,-11.463415,-2.560976,0.000000
1548438758072,-0.081482,-0.075806,-1.003174,-9.451220,-0.792683,-0.121951
1548438758073,-0.080872,-0.073975,-0.993958,-4.207317,-0.792683,0.853659
1548438758076,-0.080688,-0.076233,-0.997864,-4.024390,-1.768293,0.365854
1548438758106,-0.077026,-0.063171,-1.001892,-4.695122,-2.195122,0.121951
1548438758106,-0.077881,-0.063477,-0.993713,-1.646341,-1.585366,0.182927
1548438758107,-0.084290,-0.069763,-1.001099,-4.085366,-1.097561,-0.487805
1548438758125,-0.083374,-0.070923,-1.015686,-9.634147,-0.304878,-1.402439
1548438758182,-0.084290,-0.080139,-1.017700,-9.878049,0.121951,-2.378049
1548438758192,-0.088013,-0.083130,-0.998291,-3.841464,-0.609756,-2.682927
1548438758193,-0.082947,-0.089172,-0.989380,1.890244,-2.500000,-0.914634
1548438758193,-0.083862,-0.087952,-0.997070,0.304878,-3.536585,-0.121951
1548438758193,-0.085449,-0.080261,-1.005249,-4.146341,-3.597561,0.914634
1548438758193,-0.082031,-0.065552,-1.010925,-5.182927,-3.475610,1.890244
1548438758214,-0.084045,-0.061157,-1.014648,-2.012195,-3.109756,1.524390
1548438758217,-0.085876,-0.063843,-1.023193,-0.426829,-2.256098,0.792683
1548438758217,-0.085266,-0.060852,-1.028931,1.036585,-0.731707,-0.121951
1548438758223,-0.084778,-0.068909,-1.022339,5.975610,0.853659,-0.731707
1548438758231,-0.080505,-0.079712,-1.004089,10.731708,1.524390,-1.524390
1548438758238,-0.081299,-0.075317,-0.990051,13.719513,2.012195,-1.463415
1548438758252,-0.083374,-0.072144,-0.981934,11.158537,2.926829,-0.121951
1548438758259,-0.085144,-0.077393,-0.991394,4.878049,2.073171,-0.670732
1548438758264,-0.080139,-0.079529,-1.001160,0.182927,0.670732,-1.341463
1548438758278,-0.081787,-0.086060,-1.004272,1.585366,-0.182927,-0.975610
1548438758286,-0.082031,-0.085266,-1.005676,1.646341,-0.670732,-0.121951
1548438758294,-0.078064,-0.080566,-1.004211,2.134146,-0.365854,1.585366
1548438758309,-0.081604,-0.085876,-0.998901,1.585366,-0.487805,1.951220
1548438758316,-0.082520,-0.091370,-1.003906,-3.292683,-1.219512,1.219512
1548438758324,-0.081360,-0.074768,-1.007019,-4.695122,-1.585366,2.012195
1548438758338,-0.081177,-0.069580,-1.016663,-1.646341,-1.524390,2.804878
1548438758346,-0.083191,-0.068604,-1.025391,-2.012195,-0.853659,1.402439
1548438758353,-0.082397,-0.066040,-1.018616,-0.060976,0.487805,0.304878
1548438758369,-0.083801,-0.060669,-1.010010,2.439024,1.646341,-1.036585
1548438758375,-0.080261,-0.068970,-1.013306,-0.975610,2.073171,-3.231707
1548438758383,-0.081665,-0.075195,-1.018738,-4.939024,2.865854,-4.939024
1548438758398,-0.087158,-0.080933,-1.016113,-8.170732,4.695122,-5.243903
1548438758406,-0.086304,-0.078064,-1.022278,-14.268293,5.060976,-5.182927
1548438758413,-0.080139,-0.078064,-1.010559,-17.195122,4.451220,-3.963415
1548438758428,-0.078613,-0.071899,-0.996094,-13.902439,5.365854,-2.804878
1548438758436,-0.074463,-0.068359,-1.025696,-18.231709,5.914634,-2.804878
1548438758457,-0.078552,-0.064453,-1.002747,-25.914635,5.243903,-3.902439
1548438758459,-0.081116,-0.044800,-0.975098,-26.890245,1.951220,-4.268293
1548438758488,-0.068115,-0.032593,-1.006958,-43.719513,-2.926829,-5.487805
1548438758488,-0.078674,-0.016724,-0.989380,-61.097561,-5.670732,-9.756098
1548438758501,-0.095154,0.024658,-0.971191,-67.439026,-6.768293,-11.402439
1548438758501,-0.076416,0.005249,-1.002136,-100.792686,-15.000000,-12.987805
1548438758509,-0.071167,-0.004395,-1.003479,-120.304878,-19.207317,-17.073172
1548438758523,-0.067322,0.017029,-1.049866,-115.487808,-17.621952,-16.097561
1548438758530,-0.089417,0.071228,-1.037476,-104.390244,-12.378049,-11.646341
1548438758536,-0.099121,0.090027,-1.007996,-73.841469,-6.646342,-6.280488
1548438758549,-0.108093,0.083496,-1.007507,-69.329269,-7.682927,-5.731708
1548438758556,-0.112183,0.090454,-0.989136,-73.841469,-10.243902,-4.939024
1548438758567,-0.104858,0.101807,-0.982300,-58.292683,-13.170732,5.121951
1548438758578,-0.088745,0.103882,-1.026672,-71.951218,-19.024391,12.987805
1548438758586,-0.091797,0.094788,-1.043457,-85.000000,-20.121952,13.475610
1548438758597,-0.090271,0.069275,-1.064819,-62.195122,-17.500000,16.341463
1548438758608,-0.102966,0.126465,-1.012390,-43.963417,-14.085366,16.585365
1548438758621,-0.130066,0.192444,-0.887146,-18.902439,-13.414635,23.170732
1548438758629,-0.112122,0.201355,-0.897583,-11.280488,-17.195122,25.426830
1548438758641,-0.120239,0.228882,-0.907654,-58.841465,-25.487806,17.500000
1548438758646,-0.135376,0.201660,-0.904968,-74.390244,-30.000000,15.121951
1548438758653,-0.105713,0.146545,-1.031799,-108.109756,-33.597561,9.085366
1548438758669,-0.134766,0.250610,-1.044739,-167.621948,-23.231709,-2.682927
1548438758675,-0.149963,0.287170,-1.020508,-176.097565,1.524390,0.670732
1548438758683,-0.126465,0.303528,-1.050903,-201.585373,-3.414634,-0.182927
1548438758699,-0.164612,0.388306,-0.919373,-241.585373,-15.121951,-1.463415
1548438758723,-0.152161,0.432556,-0.863037,-244.024399,-25.914635,6.097561
1548438758723,-0.166504,0.432373,-0.896423,-251.402451,-38.292683,10.121951
1548438758731,-0.156921,0.428345,-0.900452,-267.073181,-48.536587,11.646341
1548438758736,-0.189819,0.429382,-0.925842,-236.158539,-42.378048,17.439024
1548438758747,-0.084045,0.514465,-0.830444,-185.304886,-34.573170,26.463415
1548438758752,-0.168945,0.529297,-0.739868,-129.207321,-18.048780,19.634148
1548438758767,-0.070129,0.536438,-0.763245,-107.804878,1.463415,16.951220
1548438758773,-0.098511,0.478516,-0.795227,-138.048782,11.219512,7.987805
1548438758783,-0.065125,0.536560,-0.833801,-143.353668,33.841465,12.926829
1548438758797,-0.102905,0.593140,-0.840332,-113.353661,66.219513,22.743902
1548438758805,-0.084106,0.595764,-0.858093,-106.341469,53.048782,35.060978
1548438758811,-0.073242,0.633972,-0.819885,-79.756096,44.573174,34.451221
1548438758825,-0.099609,0.702881,-0.752563,-48.414635,21.463415,40.914635
1548438758834,-0.115845,0.742004,-0.699463,-14.512196,0.121951,49.573174
1548438758840,-0.116943,0.745300,-0.683289,26.707317,-7.012195,48.841465
1548438758862,-0.109009,0.769653,-0.716675,15.304878,-6.768293,37.926830
1548438758870,-0.109741,0.813293,-0.875671,-44.146343,-2.743902,21.158537
1548438758870,-0.102173,0.738770,-0.960754,-88.292686,0.853659,1.341463
1548438758891,-0.045105,0.506470,-0.875549,-99.146347,-18.231709,-23.963415
1548438758896,-0.034180,0.451721,-0.746948,-74.573174,-38.963417,-30.792685
1548438758921,-0.066345,0.441162,-0.589600,-26.463415,-34.695122,-7.012195
1548438758921,-0.101318,0.544556,-0.544006,8.231708,-20.304878,10.000000
1548438758925,-0.104431,0.657837,-0.628296,-17.804878,-10.792684,20.792683
1548438758934,-0.090088,0.666931,-0.733276,-51.951221,-9.451220,23.292683
1548438758948,-0.089417,0.747803,-0.781250,-58.353661,-12.256098,24.878050
1548438758954,-0.093140,0.771667,-0.744995,-60.426830,-17.012196,28.780489
1548438758963,-0.091431,0.774963,-0.708008,-69.878052,-25.243902,26.219513
1548438758976,-0.080933,0.749939,-0.728943,-88.536591,-32.317074,27.987806
1548438758984,-0.096252,0.741211,-0.657043,-117.195122,-34.817074,24.451220
1548438758991,-0.124146,0.728760,-0.611023,-134.085373,-25.670732,23.963415
1548438759006,-0.092712,0.716003,-0.674866,-158.658539,-15.731708,30.609756
1548438759016,-0.085510,0.761475,-0.619690,-176.768295,-11.219512,42.500000
1548438759021,-0.085754,0.837463,-0.614075,-165.426834,-9.878049,58.170734
1548438759035,-0.071045,0.893921,-0.588684,-151.280487,-11.829268,69.085365
1548438759043,-0.061890,0.878357,-0.530273,-140.243912,-20.914635,66.402443
1548438759071,-0.047791,0.844238,-0.537781,-121.707321,-26.341463,55.853661
1548438759071,-0.063843,0.911255,-0.486023,-107.560982,-24.939026,47.621952
1548438759075,-0.055115,0.914062,-0.467529,-111.280487,-21.097561,38.353661
1548438759088,-0.039734,0.870911,-0.463562,-110.731712,-13.841464,22.560976
1548438759105,-0.051025,0.866394,-0.440125,-105.487808,-10.121951,21.768293
1548438759106,-0.031067,0.877869,-0.439697,-83.658539,-3.048780,21.158537
1548438759118,-0.028015,0.893250,-0.427368,-59.085369,3.231707,19.329269
1548438759126,-0.033875,0.845032,-0.421875,-30.487806,7.073171,11.951220
1548438759134,-0.042236,0.823669,-0.396606,-12.804878,3.536585,1.829268
1548438759145,-0.046265,0.806091,-0.406616,-4.634146,2.500000,1.097561
1548438759156,-0.041687,0.834045,-0.424500,-1.341463,0.243902,2.743902
1548438759166,-0.035522,0.880920,-0.449341,0.975610,-1.280488,3.048780
1548438759170,-0.023865,0.902588,-0.474854,7.987805,-4.756098,6.646342
1548438759186,-0.025757,0.935425,-0.426819,12.378049,-6.890244,6.524390
1548438759193,-0.044983,0.959900,-0.399109,19.329269,-4.634146,7.500000
1548438759201,-0.050842,0.971252,-0.391724,12.621951,-2.256098,5.853659
1548438759216,-0.050903,0.943970,-0.376160,-17.195122,-2.134146,1.585366
1548438759223,-0.027893,0.908447,-0.421997,-42.195122,-1.646341,-0.975610
1548438759231,-0.033813,0.903198,-0.426086,-59.817074,-0.121951,-1.829268
1548438759246,-0.027405,0.855042,-0.467590,-69.085365,2.682927,-1.829268
1548438759253,-0.028442,0.858215,-0.416748,-68.414635,3.841464,-2.621951
1548438759261,-0.041687,0.899597,-0.358643,-54.024391,1.280488,0.182927
1548438759276,-0.032715,0.919373,-0.386536,-47.378052,-0.609756,-2.134146
1548438759283,-0.034851,0.934021,-0.373840,-42.195122,-3.048780,-3.658537
1548438759290,-0.046753,0.932861,-0.317444,-32.500000,-5.365854,-2.317073
1548438759305,-0.020813,0.904785,-0.390503,-34.146343,-5.243903,-3.109756
1548438759315,-0.016174,0.907837,-0.424744,-32.926830,-3.292683,-5.000000
1548438759321,-0.025818,0.910461,-0.409241,-12.682927,-1.829268,-1.219512
1548438759335,-0.020508,0.910522,-0.404175,7.256098,0.487805,5.914634
1548438759343,-0.011169,0.902771,-0.416321,21.829269,2.865854,10.853659
1548438759350,0.014099,0.923584,-0.405884,40.060978,5.853659,12.012196
1548438759366,0.028992,0.922791,-0.426514,75.304878,9.695122,9.085366
1548438759373,-0.013916,0.889221,-0.487915,129.451218,17.256098,-5.060976
1548438759381,-0.082336,0.921814,-0.353455,197.317078,23.658537,-15.548780
1548438759395,-0.069458,0.867004,-0.405029,235.304886,11.463415,-14.512196
1548438759403,-0.058533,0.827576,-0.480713,203.719513,8.048780,-33.902439
1548438759410,-0.069580,0.838867,-0.509399,205.121964,12.500000,-42.439026
1548438759426,-0.064087,0.789612,-0.535645,220.182938,22.926830,-38.902439
1548438759433,-0.069702,0.720947,-0.611328,228.414642,32.134148,-42.256100
1548438759440,-0.059998,0.647034,-0.723938,232.743912,36.158539,-46.829269
1548438759456,-0.069458,0.691528,-0.760010,249.878052,35.548782,-32.560978
1548438759463,-0.049622,0.715942,-0.734558,285.792694,30.182928,-6.585366
1548438759470,-0.070007,0.683777,-0.764038,284.634155,17.378050,1.280488
1548438759486,-0.056335,0.578369,-0.734436,274.817078,13.292684,-9.878049
1548438759493,-0.063843,0.510315,-0.706665,284.146362,11.341464,-15.304878
1548438759500,-0.100281,0.558228,-0.768555,238.536591,15.487805,-20.670732
1548438759517,-0.006714,0.454224,-0.890747,168.963425,15.000000,-36.463417
1548438759523,-0.015137,0.391602,-0.925110,129.451218,3.170732,-53.597561
1548438759530,-0.055237,0.478455,-0.923950,135.243912,0.853659,-40.365856
1548438759546,-0.056091,0.459717,-0.946289,148.048782,-0.975610,-20.060976
1548438759553,-0.061096,0.404358,-0.926758,152.987808,-8.353659,-23.414635
1548438759560,-0.067871,0.420715,-0.898987,186.463425,-6.463415,-14.024390
1548438759576,-0.072388,0.387878,-0.923523,217.134155,8.231708,4.085366
1548438759583,-0.053467,0.323303,-0.979797,231.341461,20.304878,15.243903
1548438759591,-0.034912,0.266541,-0.967590,274.329285,26.829269,36.341465
1548438759606,-0.038818,0.183167,-0.979248,280.609772,23.658537,49.146343
1548438759614,-0.040466,0.185181,-1.035645,265.975616,20.000000,48.353661
1548438759621,-0.036377,0.177734,-1.116821,270.304871,17.682928,50.243904
1548438759635,-0.040894,0.120361,-1.221497,235.121964,15.731708,46.829269
1548438759643,0.020569,0.089539,-1.235840,205.121964,9.085366,30.914635
1548438759650,0.050537,-0.061523,-1.200684,222.926834,12.682927,15.487805
1548438759666,0.035156,-0.073364,-1.033752,221.890244,31.707317,4.329268
1548438759673,-0.006775,-0.077515,-0.864563,224.451218,37.256100,8.719512
1548438759681,-0.005310,-0.088257,-0.820801,249.939026,44.451221,16.341463
1548438759696,-0.032349,-0.036987,-0.755798,291.829285,45.426830,9.695122
1548438759703,-0.051575,-0.033325,-0.716309,328.292694,38.902439,12.256098
1548438759710,0.000732,0.003784,-0.667480,347.439026,28.902439,29.634148
1548438759725,0.000610,-0.044373,-0.825317,310.975616,9.817074,43.902439
1548438759734,-0.018982,-0.208252,-1.013855,163.048782,-16.280489,39.329269
1548438759741,0.003906,-0.461670,-1.154419,88.719513,-25.548780,35.914635
1548438759755,0.019470,-0.661072,-1.242432,87.500000,-22.073172,28.841465
1548438759763,-0.106934,-0.434937,-1.160034,89.390244,-9.390244,9.268292
1548438759771,-0.009155,-0.376038,-0.994202,154.451218,3.475610,15.000000
1548438759786,0.000122,-0.481628,-0.797485,149.573181,8.353659,21.280489
1548438759793,-0.022034,-0.359558,-0.722473,118.231712,10.548780,9.024390
1548438759803,-0.016724,-0.202515,-0.630432,157.621948,7.804878,6.158537
1548438759818,-0.035706,-0.292480,-0.690857,155.121948,-10.670732,4.756098
1548438759825,0.007080,-0.524170,-1.011536,97.804878,-30.792685,6.768293
1548438759834,0.019592,-0.652710,-1.219910,51.768295,-40.670734,13.902439
1548438759850,-0.005127,-0.757935,-1.078125,28.780489,-36.097561,15.487805
1548438759853,0.018127,-0.699768,-0.834778,82.378052,-24.756098,14.146341
1548438759860,-0.003296,-0.665588,-0.835693,158.658539,-18.048780,4.207317
1548438759877,-0.038818,-0.602051,-0.973816,146.707321,-19.085367,-16.036585
1548438759884,-0.019714,-0.550415,-0.960144,138.109756,-18.658537,-22.987806
1548438759890,-0.028137,-0.589111,-0.904297,147.317078,-15.914635,-24.573172
1548438759906,-0.043884,-0.574280,-0.770996,120.121956,-12.743903,-29.146341
1548438759917,-0.068115,-0.477844,-0.684509,131.402435,-11.463415,-18.353659
1548438759921,-0.039062,-0.671082,-0.593628,142.500000,-17.682928,-6.097561
1548438759935,-0.034058,-0.686768,-0.564026,131.158539,-24.878050,-0.548781
1548438759943,0.002197,-0.603149,-0.601074,187.378052,-19.268293,12.865854
1548438759951,-0.018738,-0.690552,-0.776184,168.414642,-30.609756,-1.219512
1548438759968,-0.034058,-0.717957,-0.786194,97.500000,-38.414635,-19.939024
1548438759973,-0.022400,-0.760864,-0.763733,110.060982,-34.390244,-15.121951
1548438759984,-0.047119,-0.804077,-0.812378,101.280487,-30.060976,-13.109756
1548438760001,-0.036743,-0.787476,-0.723938,95.304878,-25.000000,-11.707317
1548438760003,-0.053467,-0.805237,-0.660889,136.341461,-18.902439,-7.317073
1548438760010,-0.051208,-0.875488,-0.628479,126.402443,-16.463415,-11.951220
1548438760026,-0.044250,-0.810120,-0.587219,111.829269,-17.195122,-14.817074
1548438760035,-0.054138,-0.770203,-0.582825,93.109756,-20.182928,-13.475610
1548438760040,-0.040710,-0.754456,-0.615845,66.829269,-22.621952,-13.658537
1548438760055,-0.045898,-0.787537,-0.641113,68.475609,-22.865854,-8.414635
1548438760063,-0.072327,-0.848206,-0.672302,68.841469,-19.329269,-5.000000
1548438760070,-0.037781,-0.848328,-0.645691,70.243904,-14.329268,-5.792683
1548438760086,-0.026306,-0.830811,-0.561707,107.073174,-8.536586,0.182927
1548438760093,-0.042114,-0.856140,-0.579712,100.060982,-3.231707,-0.609756
1548438760104,-0.045105,-0.804077,-0.550598,78.231712,0.182927,-7.012195
1548438760116,-0.048584,-0.804260,-0.545410,95.000000,3.475610,-1.402439
1548438760123,-0.081604,-0.825256,-0.506531,67.500000,5.975610,-3.048780
1548438760131,-0.068420,-0.836365,-0.442200,56.585365,7.134147,-4.512195
1548438760146,-0.052307,-0.899414,-0.418762,59.817074,7.073171,-5.182927
1548438760153,-0.069336,-0.869934,-0.468262,24.390244,3.719512,-9.817074
1548438760160,-0.024170,-0.849609,-0.471924,31.890245,-1.585366,-6.646342
1548438760176,-0.022156,-0.888977,-0.514954,42.621952,-2.256098,-5.609756
1548438760183,-0.020142,-0.871460,-0.543091,10.121951,0.426829,-10.731708
1548438760190,-0.016907,-0.860474,-0.502625,20.975611,4.878049,-11.524390
1548438760206,-0.019348,-0.855896,-0.517090,32.012196,8.963415,-11.158537
1548438760213,-0.026306,-0.876831,-0.465942,34.268295,12.560976,-9.024390
1548438760221,-0.034607,-0.972473,-0.428528,50.792683,14.634147,-4.024390
1548438760236,-0.035095,-1.001831,-0.336548,54.451221,14.268293,-0.731707
1548438760243,-0.030029,-0.963745,-0.304749,68.292686,9.573171,6.524390
1548438760251,-0.032227,-0.914307,-0.335754,55.304878,1.402439,6.951220
1548438760266,0.002258,-0.877563,-0.288818,52.439026,-3.963415,3.170732
1548438760274,-0.003052,-0.891052,-0.358093,53.658539,-6.890244,-2.378049
1548438760281,-0.015808,-0.884521,-0.435974,15.914635,-8.902439,-9.634147
1548438760296,-0.010376,-0.898682,-0.427368,14.695123,-9.268292,-8.658537
1548438760303,-0.015442,-0.919434,-0.419312,30.060976,-7.804878,-1.890244
1548438760311,-0.022705,-0.948242,-0.399963,23.475611,-6.951220,0.914634
1548438760333,-0.026123,-0.958984,-0.370544,29.695122,-6.646342,5.365854
1548438760334,-0.040466,-0.935120,-0.374756,38.292683,-7.560976,8.170732
1548438760341,-0.045227,-0.965515,-0.420288,34.695122,-8.353659,5.609756
1548438760355,-0.039612,-1.004150,-0.443604,33.353661,-7.621952,5.365854
1548438760363,-0.041077,-0.987244,-0.408264,46.890244,-5.243903,8.780488
1548438760370,-0.040710,-0.929138,-0.384033,64.634148,-2.073171,11.036586
1548438760410,-0.029663,-0.875793,-0.321960,81.951218,2.560976,13.353659
1548438760411,-0.039612,-0.854553,-0.291016,89.390244,5.060976,12.926829
1548438760469,-0.046265,-0.831726,-0.254700,67.560974,4.390244,9.390244
1548438760470,-0.021484,-0.866028,-0.242126,48.109756,2.134146,10.304878
1548438760470,-0.030945,-0.952637,-0.270325,6.036585,-2.256098,9.634147
1548438760525,-0.032898,-1.039856,-0.287415,-21.829269,-4.207317,9.817074
1548438760525,-0.032532,-1.076843,-0.303162,-15.121951,-5.182927,11.463415
1548438760526,-0.058044,-0.996277,-0.307434,-14.756098,-5.975610,7.743903
1548438760526,-0.064880,-0.975403,-0.367676,-28.231709,-6.829268,0.975610
1548438760526,-0.054443,-0.961548,-0.398254,-42.439026,-7.012195,-3.292683
1548438760526,-0.042236,-0.925659,-0.391968,-33.170731,-5.365854,-4.024390
1548438760526,-0.041443,-0.882202,-0.375916,-28.292683,-2.987805,-2.560976
1548438760526,-0.040283,-0.847351,-0.326477,-25.731709,-0.914634,0.914634
1548438760526,-0.022156,-0.883667,-0.313232,-19.817074,0.304878,6.036585
1548438760527,-0.002625,-0.966736,-0.309814,-32.804878,0.792683,6.463415
1548438760545,0.005249,-1.044556,-0.360046,-50.914635,1.219512,5.060976
1548438760545,-0.015015,-0.963074,-0.401672,-69.817078,2.621951,-0.121951
1548438760557,-0.029175,-0.872620,-0.463684,-77.682930,5.000000,-3.231707
1548438760586,-0.025330,-0.915100,-0.474792,-112.012199,7.378049,-8.048780
1548438760587,-0.032410,-0.895813,-0.435974,-144.268295,13.353659,-14.268293
1548438760587,-0.028625,-0.824463,-0.419312,-154.573181,20.792683,-16.585365
1548438760597,-0.069641,-0.712646,-0.444519,-172.134155,21.097561,-19.329269
1548438760606,-0.088257,-0.583679,-0.413391,-188.292694,20.670732,-16.951220
1548438760617,-0.045654,-0.566528,-0.507080,-187.195129,15.853659,-1.646341
1548438760629,-0.011108,-0.658936,-0.679932,-220.792694,9.695122,14.085366
1548438760635,-0.010864,-0.658936,-0.831787,-283.231720,5.060976,18.048780
1548438760646,-0.005676,-0.661438,-0.953430,-323.353668,8.231708,26.097561
1548438760657,-0.034851,-0.734314,-0.983459,-387.012207,12.134147,26.158537
1548438760667,-0.083618,-0.721924,-0.917664,-437.500000,20.426830,19.390244
1548438760672,-0.199768,-0.621704,-0.725281,-439.695129,24.329269,17.865854
1548438760694,-0.218811,-0.509033,-0.642883,-419.329285,8.597561,25.975611
1548438760695,-0.112427,-0.542419,-0.798584,-357.804901,-14.329268,52.134148
1548438760704,-0.026550,-0.621155,-1.028076,-279.329285,-28.841465,71.768295
1548438760716,-0.034790,-0.567078,-1.109375,-255.548782,-32.926830,63.658539
1548438760723,-0.067749,-0.375244,-1.090942,-241.158539,-28.109756,52.500000
1548438760731,-0.094971,-0.278870,-1.060181,-223.658539,-19.085367,46.768295
1548438760749,-0.111572,-0.194458,-1.051086,-236.524399,-9.512196,36.646343
1548438760755,-0.123596,-0.135315,-0.993591,-252.560974,-5.182927,30.426830
1548438760761,-0.138916,-0.155029,-0.976562,-250.609756,-4.756098,27.987806
1548438760776,-0.157104,-0.147522,-0.970947,-277.987823,-8.414635,23.353659
1548438760802,-0.142944,-0.085876,-0.910645,-287.195129,-16.158537,23.597561
1548438760815,-0.124390,-0.115051,-1.122009,-276.707336,-29.512196,22.195122
1548438760834,-0.104492,-0.109558,-1.340271,-306.219513,-37.865856,14.207317
1548438760846,-0.112122,-0.042908,-1.166077,-311.890259,-31.829269,23.231709
1548438760857,-0.094727,-0.007385,-1.088745,-232.439026,-18.475611,30.914635
1548438760869,-0.112671,0.132690,-0.997314,-200.243912,-12.682927,31.890245
1548438760873,-0.117798,0.217712,-0.950745,-156.158539,-9.146341,32.743904
1548438760879,-0.102844,0.195129,-1.012695,-130.853668,-9.695122,33.048782
1548438760885,-0.108215,0.193115,-0.945312,-162.378052,-11.707317,29.451220
1548438760887,-0.117859,0.205017,-0.869934,-165.000000,-12.317074,28.475611
1548438760893,-0.084717,0.155823,-0.876587,-173.963425,-16.036585,21.768293
1548438760905,-0.076538,0.148804,-0.922546,-195.000000,-23.597561,15.670732
1548438760905,-0.133362,0.304626,-0.927002,-180.853668,-25.304878,7.500000
1548438760911,-0.151855,0.366516,-0.852783,-187.865860,-31.280489,10.853659
1548438760926,-0.167358,0.375549,-0.887207,-207.500000,-35.487804,13.292684
1548438760933,-0.119812,0.350220,-0.965637,-235.426834,-42.500000,16.158537
1548438760940,-0.130432,0.412598,-0.909729,-252.317078,-45.426830,22.195122
1548438760956,-0.155396,0.471558,-0.847046,-213.719513,-39.085365,29.634148
1548438760963,-0.151184,0.491333,-0.825500,-177.804886,-33.658539,34.756100
1548438760970,-0.135498,0.505737,-0.802429,-168.963425,-30.243902,38.658539
1548438760987,-0.141602,0.553589,-0.756226,-159.512192,-24.695122,35.304878
1548438760993,-0.145325,0.571411,-0.767700,-154.695129,-20.304878,31.829269
1548438761000,-0.117615,0.533752,-0.833862,-173.414642,-20.060976,24.756098
1548438761016,-0.133850,0.615540,-0.793884,-178.780487,-14.634147,19.207317
1548438761023,-0.143860,0.648743,-0.772949,-161.951218,-4.817073,25.121952
1548438761031,-0.139404,0.684082,-0.718201,-159.695129,-1.341463,30.548780
1548438761046,-0.147400,0.765198,-0.618896,-155.914642,2.256098,31.036587
1548438761053,-0.144165,0.738098,-0.659912,-170.670731,2.560976,27.134148
1548438761061,-0.141785,0.751099,-0.596069,-198.353668,1.585366,18.475611
1548438761084,-0.135925,0.742798,-0.578308,-185.609756,-3.292683,15.487805
1548438761084,-0.124146,0.757080,-0.615662,-185.426834,-5.243903,11.097561
1548438761090,-0.127136,0.848206,-0.611328,-174.024399,-1.524390,8.353659
1548438761106,-0.139099,0.832336,-0.600098,-149.573181,4.756098,9.451220
1548438761125,-0.139099,0.835144,-0.625183,-121.463417,5.304878,4.268293
1548438761125,-0.108826,0.829590,-0.588013,-92.621956,5.487805,7.378049
1548438761140,-0.105896,0.817688,-0.487427,-70.609756,8.719512,3.841464
1548438761146,-0.101868,0.793152,-0.493958,-56.036587,9.146341,1.463415
1548438761154,-0.097412,0.788635,-0.486084,-53.963417,6.646342,-2.256098
1548438761168,-0.122314,0.863525,-0.345215,-53.719513,4.939024,-6.402439
1548438761173,-0.126099,0.902588,-0.377319,-50.060978,0.853659,-7.317073
1548438761181,-0.143066,0.951416,-0.360352,-74.817078,-4.329268,-16.585365
1548438761197,-0.172058,0.899597,-0.447083,-98.231712,-7.987805,-25.792683
1548438761203,-0.104797,0.815857,-0.739502,-134.207321,-12.073171,-33.719513
1548438761218,-0.153931,0.922791,-0.511658,-134.146347,-2.865854,-34.756100
1548438761226,-0.187073,0.930237,-0.417358,-93.414635,11.707317,-20.975611
1548438761233,-0.141418,0.919617,-0.443176,-89.695122,11.524390,-10.060976
1548438761242,-0.135132,0.916870,-0.353271,-93.231712,7.560976,0.121951
1548438761263,-0.127197,0.899231,-0.348999,-96.585365,6.707317,8.109756
1548438761263,-0.104675,0.885559,-0.377502,-90.731712,6.463415,7.317073
1548438761275,-0.125427,0.927490,-0.269470,-80.243904,7.682927,1.646341
1548438761286,-0.131226,0.972046,-0.216370,-59.268295,7.256098,2.256098
1548438761293,-0.134644,0.986084,-0.282654,-73.231712,0.792683,0.975610
1548438761305,-0.126648,0.973022,-0.393066,-112.987808,-5.670732,-2.987805
1548438761323,-0.139282,1.013550,-0.340088,-123.780487,-7.134147,-5.670732
1548438761327,-0.155762,0.999329,-0.293701,-98.292686,-2.804878,-1.890244
1548438761335,-0.129700,0.955139,-0.338074,-85.000000,0.670732,-4.146341
1548438761346,-0.139587,0.919556,-0.250000,-63.353661,3.902439,-4.573171
1548438761354,-0.155090,0.864441,-0.252991,-16.402439,9.085366,-1.402439
1548438761361,-0.139221,0.904480,-0.293030,14.695123,11.768293,-1.341463
1548438761376,-0.141296,0.911011,-0.255493,44.756100,12.926829,1.707317
1548438761384,-0.146423,0.964417,-0.228821,72.073174,12.743903,7.256098
1548438761395,-0.141113,0.966736,-0.239502,72.073174,9.451220,15.548780
1548438761408,-0.130005,0.933838,-0.234131,39.390244,6.402439,11.524390
1548438761413,-0.128967,0.954224,-0.215576,14.207317,3.963415,5.731708
1548438761421,-0.134521,0.956421,-0.228088,5.365854,1.097561,3.658537
1548438761436,-0.120117,0.929138,-0.271545,-1.890244,-3.170732,2.621951
1548438761443,-0.112000,0.951355,-0.265625,4.878049,-6.463415,3.170732
1548438761450,-0.161926,0.943298,-0.265503,42.865856,-4.207317,-4.817073
1548438761466,-0.151978,0.919312,-0.330994,77.865852,-1.646341,-20.670732
1548438761481,-0.153625,0.871460,-0.360229,65.365852,2.012195,-33.475609
1548438761482,-0.160034,0.888123,-0.336975,75.000000,4.939024,-37.865856
1548438761496,-0.153564,0.856689,-0.359558,89.634148,1.707317,-32.743904
1548438761503,-0.138611,0.832520,-0.413147,101.402443,-0.121951,-32.743904
1548438761511,-0.144287,0.842529,-0.471497,134.817078,0.243902,-27.560976
1548438761526,-0.163757,0.831787,-0.529602,195.000000,5.121951,-20.365854
1548438761533,-0.183838,0.854553,-0.523560,273.048798,7.317073,-6.585366
1548438761542,-0.191895,0.889709,-0.522583,346.951233,6.829268,17.804878
1548438761558,-0.175354,0.832703,-0.573792,357.073181,16.219513,27.621952
1548438761564,-0.178040,0.800110,-0.607056,304.207336,12.317074,14.451220
1548438761571,-0.156311,0.764099,-0.652466,240.243912,-0.975610,5.975610
1548438761585,-0.177368,0.778076,-0.725891,210.731705,-6.646342,11.707317
1548438761593,-0.175171,0.678589,-0.757141,205.914642,-10.731708,10.182927
1548438761602,-0.152710,0.523743,-0.717285,188.231705,-12.256098,6.158537
1548438761616,-0.127686,0.469238,-0.771606,202.500000,-14.024390,-2.560976
1548438761623,-0.142517,0.524536,-0.763794,217.865860,-15.548780,-10.121951
1548438761634,-0.167297,0.521790,-0.755554,231.036591,-15.182927,-19.878050
1548438761647,-0.167786,0.544373,-0.732910,251.585373,-12.621951,-32.439026
1548438761653,-0.190918,0.560425,-0.775696,274.573181,-15.548780,-31.341465
1548438761661,-0.225342,0.544739,-0.841980,263.292694,-12.439025,-26.036587
1548438761675,-0.200256,0.535034,-0.883850,252.743912,-9.695122,-14.634147
1548438761683,-0.207764,0.405945,-1.038208,176.097565,-23.780489,-8.963415
1548438761691,-0.191589,0.308838,-1.081299,92.195122,-25.853659,-12.804878
1548438761706,-0.198669,0.307861,-1.059448,115.365860,-16.951220,-6.646342
1548438761713,-0.205811,0.220886,-1.101196,136.463425,-11.646341,2.621951
1548438761722,-0.198608,0.193237,-1.069824,156.280487,-1.402439,-3.292683
1548438761736,-0.210632,0.230957,-0.982239,208.353668,9.573171,-8.536586
1548438761743,-0.215881,0.199097,-0.977051,228.902451,13.902439,-13.597561
1548438761750,-0.195435,0.240295,-0.923340,260.243896,20.121952,-31.768293
1548438761767,-0.214905,0.253174,-0.839966,301.829285,22.804878,-39.695122
1548438761774,-0.210327,0.252319,-0.875244,299.451233,27.987806,-41.524391
1548438761780,-0.192749,0.220581,-0.952637,291.463409,27.682928,-24.451220
1548438761796,-0.187195,0.119385,-1.021423,218.048782,10.975610,-17.621952
1548438761803,-0.166199,-0.040833,-1.079651,138.231705,-5.182927,-15.731708
1548438761811,-0.159729,-0.226257,-1.177673,100.853661,-9.756098,-12.560976
1548438761825,-0.163940,-0.253662,-1.083740,93.902443,-1.585366,-19.085367
1548438761833,-0.174927,-0.265137,-1.002197,171.829269,14.939025,-30.609756
1548438761841,-0.182068,-0.255371,-0.949585,231.280487,21.341463,-37.926830
1548438761857,-0.200012,-0.184265,-0.829651,267.987823,23.963415,-52.926830
1548438761863,-0.195801,-0.107361,-0.846375,295.670746,21.036587,-63.414635
1548438761870,-0.184021,-0.120056,-0.946167,277.134155,14.756098,-60.975613
1548438761886,-0.179321,-0.191101,-1.000000,252.987808,3.658537,-56.280491
1548438761893,-0.146057,-0.268188,-1.065979,227.621964,-1.097561,-48.109756
1548438761901,-0.142517,-0.298462,-1.010559,173.780487,-6.768293,-35.670734
1548438761916,-0.155273,-0.362427,-0.948059,135.365860,-4.573171,-25.182928
1548438761924,-0.163025,-0.459290,-0.969604,98.109756,-1.646341,-15.670732
1548438761931,-0.149475,-0.560486,-0.952209,93.109756,0.304878,-14.939025
1548438761946,-0.143494,-0.579041,-0.923096,129.024399,7.134147,-28.109756
1548438761955,-0.145264,-0.475037,-0.839233,150.792679,5.609756,-32.865856
1548438761961,-0.158081,-0.468384,-0.817322,172.256104,3.048780,-35.670734
1548438761976,-0.135315,-0.522461,-0.911621,184.878052,-0.914634,-33.475609
1548438761984,-0.126892,-0.605591,-1.030701,196.646347,-2.560976,-31.585367
1548438761990,-0.144409,-0.637451,-1.040649,209.573181,2.926829,-33.902439
1548438762009,-0.138000,-0.621460,-0.898987,242.804886,15.426829,-27.682928
1548438762013,-0.147156,-0.656067,-0.919189,224.024399,15.365854,-18.536585
1548438762021,-0.139282,-0.613647,-0.797974,154.634155,13.780488,-16.768293
1548438762036,-0.118591,-0.702148,-0.747559,154.146347,20.121952,-19.939024
1548438762043,-0.119629,-0.648254,-0.689209,129.085373,21.951220,-27.073172
1548438762051,-0.103394,-0.584045,-0.567383,134.146347,17.743902,-19.634148
1548438762066,-0.102112,-0.571777,-0.562683,133.414642,9.817074,-14.512196
1548438762073,-0.096924,-0.580872,-0.559692,95.792686,-1.524390,-10.914635
1548438762080,-0.084229,-0.696960,-0.588257,86.585365,-9.939025,-5.609756
1548438762095,-0.085388,-0.825073,-0.649902,77.134148,-15.304878,-3.902439
1548438762104,-0.094666,-0.817810,-0.698853,75.060974,-16.402439,-9.268292
1548438762110,-0.105591,-0.863586,-0.719727,115.060982,-13.109756,-12.134147
1548438762126,-0.132996,-0.906982,-0.690247,156.768295,-8.902439,-14.512196
1548438762133,-0.110168,-0.881165,-0.556274,180.853668,-6.280488,-18.963415
1548438762141,-0.103638,-0.833801,-0.614990,161.219513,-8.902439,-18.353659
1548438762158,-0.096252,-0.769653,-0.537048,97.378052,-11.890244,-17.195122
1548438762163,-0.093079,-0.756775,-0.434753,112.073174,-10.731708,-17.317074
1548438762173,-0.095764,-0.760376,-0.454468,105.609756,-13.902439,-12.317074
1548438762186,-0.086243,-0.754150,-0.475525,83.353661,-19.573172,-7.743903
1548438762193,-0.076599,-0.843811,-0.519226,101.280487,-21.707317,-2.500000
1548438762203,-0.103699,-0.932617,-0.579285,97.134148,-21.341463,-1.158537
1548438762216,-0.088196,-0.974548,-0.529785,94.573174,-17.865854,-2.256098
1548438762223,-0.086609,-1.037231,-0.484619,123.536591,-12.500000,0.365854
1548438762230,-0.094360,-0.994202,-0.486572,106.402443,-8.597561,-5.182927
1548438762245,-0.087585,-0.919312,-0.388916,110.975609,-2.682927,-6.646342
1548438762253,-0.097595,-0.852661,-0.402588,119.878052,-2.621951,-11.463415
1548438762261,-0.099182,-0.825562,-0.405945,75.548782,-7.195122,-21.341463
1548438762276,-0.086609,-0.851135,-0.376282,78.536591,-5.670732,-17.378050
1548438762283,-0.087646,-0.907043,-0.391541,82.317078,-4.146341,-10.548780
1548438762291,-0.084534,-0.934814,-0.375244,80.731712,-2.926829,-5.975610
1548438762306,-0.074951,-0.973267,-0.343079,113.841469,-0.792683,2.743902
1548438762313,-0.084412,-0.999023,-0.302551,136.829269,4.329268,7.621952
1548438762321,-0.065491,-0.989319,-0.138062,152.682938,12.804878,17.012196
1548438762336,-0.061279,-0.944580,-0.203308,137.560974,5.487805,9.085366
1548438762343,-0.082214,-0.879578,-0.291382,35.548782,-6.524390,1.707317
1548438762351,-0.093445,-0.917969,-0.247498,10.121951,-8.841464,0.609756
1548438762367,-0.090088,-0.974121,-0.262756,23.597561,-6.219512,3.414634
1548438762373,-0.093445,-1.004272,-0.254456,14.024390,-6.463415,4.329268
1548438762383,-0.081848,-1.006836,-0.213684,38.597561,-5.121951,7.012195
1548438762396,-0.081482,-1.009705,-0.238953,62.865856,-3.963415,5.975610
1548438762404,-0.080200,-1.002808,-0.231567,50.731709,-3.292683,-0.487805
1548438762411,-0.074890,-0.963684,-0.208252,53.780491,-1.402439,-3.719512
1548438762426,-0.093689,-0.932251,-0.258911,38.231709,-0.487805,-4.390244
1548438762434,-0.110229,-0.918579,-0.238464,13.963415,0.487805,-3.597561
1548438762442,-0.084900,-0.954407,-0.222412,26.890245,3.170732,-0.365854
1548438762457,-0.082886,-0.993042,-0.218811,27.195122,4.878049,-0.487805
1548438762463,-0.090820,-0.970398,-0.160034,21.036587,6.646342,-3.048780
1548438762473,-0.061768,-0.996704,-0.070862,36.585365,7.378049,-2.073171
1548438762486,-0.066833,-1.011292,-0.141846,27.743902,4.695122,-0.426829
1548438762493,-0.072327,-1.015076,-0.176086,-15.670732,0.609756,-0.609756
1548438762501,-0.066650,-1.010315,-0.153687,-3.231707,0.914634,0.243902
1548438762517,-0.079163,-0.959412,-0.180725,1.951220,1.707317,-0.121951
1548438762523,-0.083130,-0.967163,-0.181763,-13.292684,1.341463,-1.036585
1548438762533,-0.072388,-0.944702,-0.217896,-13.048780,1.646341,0.304878
1548438762547,-0.088684,-0.858521,-0.246582,-42.195122,1.463415,-0.548781
1548438762564,-0.081299,-0.860779,-0.188965,-62.743904,4.512195,1.280488
1548438762575,-0.059509,-0.926086,-0.195862,-65.304878,8.170732,8.719512
1548438762576,-0.074646,-0.924316,-0.252930,-95.731712,8.658537,14.085366
1548438762584,-0.091064,-0.884949,-0.270264,-120.060982,10.060976,12.256098
1548438762593,-0.082031,-0.872070,-0.299011,-127.317078,12.073171,10.975610
1548438762606,-0.090027,-0.823975,-0.377075,-149.085373,12.256098,12.560976
1548438762619,-0.104004,-0.754883,-0.406921,-186.585373,12.195122,12.256098
1548438762622,-0.096863,-0.727783,-0.417969,-200.000000,13.292684,16.951220
1548438762636,-0.146851,-0.680603,-0.459900,-219.512207,12.865854,27.195122
1548438762643,-0.177307,-0.669434,-0.539429,-263.780487,11.646341,36.768295
1548438762651,-0.156189,-0.870300,-0.671387,-280.548798,10.426829,54.451221
1548438762667,-0.166809,-1.070312,-0.778015,-307.134155,9.573171,63.292683
1548438762673,-0.174072,-1.095215,-0.682922,-313.597565,12.500000,55.121952
1548438762683,-0.156677,-1.043457,-0.572205,-234.146347,18.109756,48.536587
1548438762704,-0.156799,-0.960144,-0.524292,-169.573181,17.865854,37.987804
1548438762711,-0.152405,-0.852295,-0.562317,-150.548782,11.463415,22.560976
1548438762711,-0.142822,-0.782043,-0.646667,-137.804886,4.268293,10.853659
1548438762726,-0.130676,-0.690186,-0.758789,-146.768295,-2.500000,4.512195
1548438762734,-0.144104,-0.554749,-0.747559,-158.048782,-8.048780,6.890244
1548438762742,-0.156799,-0.457520,-0.738403,-150.304886,-8.658537,13.109756
1548438762757,-0.157593,-0.475342,-0.843994,-184.634155,-13.170732,18.963415
1548438762763,-0.154175,-0.553467,-0.963501,-241.097565,-15.000000,21.646341
1548438762776,-0.134644,-0.615601,-1.053711,-267.804871,-12.987805,24.085367
1548438762786,-0.156433,-0.669922,-0.994507,-284.695129,-5.609756,27.134148
1548438762793,-0.235962,-0.528564,-0.818115,-294.817078,1.951220,24.207317
1548438762801,-0.226807,-0.400146,-0.746216,-266.829285,2.804878,30.182928
1548438762817,-0.149292,-0.463684,-0.895996,-214.390244,-5.609756,41.585365
1548438762824,-0.140259,-0.526489,-0.998535,-212.195129,-12.560976,37.195122
1548438762831,-0.179321,-0.425537,-0.953613,-224.329269,-12.012196,21.097561
1548438762846,-0.197021,-0.321655,-0.961670,-209.390244,-11.829268,14.024390
1548438762853,-0.209351,-0.266846,-0.976624,-197.256104,-8.048780,11.280488
1548438762866,-0.184937,-0.204773,-0.992798,-175.609756,-9.024390,16.402439
1548438762878,-0.176880,-0.208435,-1.026123,-170.487808,-10.609756,24.817074
1548438762917,-0.176575,-0.239746,-1.066284,-202.134155,-12.073171,17.804878
1548438762917,-0.172913,-0.224792,-1.046997,-221.402451,-10.426829,23.597561
1548438762918,-0.216492,-0.188843,-0.985535,-237.378052,-9.573171,26.280489
1548438762918,-0.224426,-0.112915,-0.978027,-250.853668,-10.243902,24.207317
1548438762924,-0.175842,-0.093811,-1.062439,-203.536591,-12.134147,29.573172
1548438762936,-0.167969,-0.089539,-1.118164,-162.743912,-11.158537,28.292683
1548438762943,-0.187256,-0.000549,-1.150391,-164.878052,-6.097561,18.963415
1548438762950,-0.211609,0.092651,-1.044128,-159.817078,1.402439,13.719513
1548438762966,-0.223755,0.148804,-0.925110,-148.719513,8.658537,14.451220
1548438762974,-0.233765,0.178894,-0.862427,-148.353668,9.512196,13.963415
1548438762983,-0.204834,0.095215,-0.936279,-161.280487,-0.548781,10.609756
1548438762996,-0.194336,0.140869,-0.964539,-197.500000,-13.170732,12.621951
1548438763003,-0.223938,0.148010,-0.972717,-226.219513,-20.365854,12.073171
1548438763011,-0.210022,0.171570,-1.025208,-244.207321,-23.414635,0.304878
1548438763026,-0.194702,0.197205,-1.039978,-245.670731,-25.487806,13.780488
1548438763035,-0.198975,0.301941,-1.030090,-209.634155,-20.792683,28.414635
1548438763040,-0.200317,0.387024,-0.931702,-158.780487,-10.609756,50.000000
1548438763057,-0.202393,0.442078,-0.832703,-126.036591,0.670732,67.012199
1548438763063,-0.206360,0.463684,-0.779297,-96.219513,6.158537,71.524391
1548438763070,-0.182861,0.450439,-0.824585,-77.682930,2.439024,75.670731
1548438763086,-0.164490,0.416687,-0.845276,-129.756104,-6.097561,68.048782
1548438763100,-0.167236,0.439514,-0.883179,-166.158539,-9.939025,53.963417
1548438763111,-0.151978,0.359619,-0.949646,-195.365860,-11.829268,38.780487
1548438763125,-0.174866,0.411865,-0.846313,-225.365860,-10.121951,22.865854
1548438763127,-0.177368,0.517334,-0.816956,-202.378052,-5.121951,24.817074
1548438763131,-0.155884,0.538086,-0.871521,-161.585373,-4.207317,31.951220
1548438763146,-0.182312,0.628235,-0.726746,-143.475616,-1.036585,35.121952
1548438763153,-0.177185,0.646118,-0.725708,-113.353661,2.743902,41.890244
1548438763161,-0.154846,0.598572,-0.810059,-126.463417,-1.890244,45.182926
1548438763176,-0.158813,0.575439,-0.753174,-147.500000,-3.841464,44.390244
1548438763183,-0.154846,0.632568,-0.666382,-146.402435,-1.158537,42.012196
1548438763190,-0.147034,0.614319,-0.744873,-142.500000,-1.219512,39.146343
1548438763206,-0.136719,0.643066,-0.749878,-144.634155,-3.902439,28.963415
1548438763213,-0.155823,0.753174,-0.644958,-114.146347,-2.560976,22.195122
1548438763221,-0.153809,0.733948,-0.682922,-93.902443,-1.951220,16.280489
1548438763236,-0.149292,0.735291,-0.716003,-105.365852,-4.024390,11.097561
1548438763243,-0.157715,0.821472,-0.683228,-99.512199,-4.390244,16.036585
1548438763252,-0.165771,0.755554,-0.742615,-108.536591,-3.902439,20.426830
1548438763267,-0.143799,0.741333,-0.765320,-127.682930,-3.231707,23.963415
1548438763274,-0.155334,0.821106,-0.604187,-105.426834,1.280488,32.317074
1548438763281,-0.134338,0.806213,-0.562439,-82.073174,5.914634,33.658539
1548438763296,-0.116821,0.799988,-0.510620,-89.085365,5.304878,29.573172
1548438763303,-0.109497,0.828979,-0.418579,-96.585365,2.743902,23.658537
1548438763311,-0.099060,0.686279,-0.613281,-128.048782,-0.914634,10.121951
1548438763326,-0.076538,0.728271,-0.621094,-175.304886,-1.036585,-10.243902
1548438763336,-0.125122,0.882324,-0.427734,-138.658539,8.902439,-12.865854
1548438763342,-0.128052,0.849548,-0.510864,-87.439026,15.548780,-13.292684
1548438763356,-0.128174,0.879700,-0.479248,-78.841469,17.926830,-21.341463
1548438763363,-0.133484,0.932861,-0.402283,-50.731709,21.646341,-18.780489
1548438763372,-0.137451,0.884399,-0.449829,-45.548782,19.817074,-15.853659
1548438763386,-0.127563,0.831726,-0.458679,-65.426834,18.963415,-17.378050
1548438763393,-0.135559,0.877808,-0.383911,-65.060974,19.390244,-14.390244
1548438763408,-0.136169,0.918823,-0.367676,-44.329269,15.548780,-4.573171
1548438763417,-0.151978,0.944275,-0.314941,-35.182926,11.524390,-4.329268
1548438763423,-0.142334,0.960815,-0.343628,-39.817074,8.841464,-11.707317
1548438763431,-0.128235,0.947388,-0.350403,-58.841465,4.390244,-20.792683
1548438763446,-0.145752,0.935425,-0.397461,-96.402443,0.670732,-25.000000
1548438763457,-0.137024,0.920166,-0.505737,-142.987808,-3.048780,-25.365854
1548438763461,-0.122620,0.898254,-0.530396,-150.975616,-4.695122,-25.609756
1548438763477,-0.140137,0.915222,-0.398682,-129.451218,1.646341,-30.304878
1548438763483,-0.135193,0.898560,-0.289001,-85.365852,12.317074,-17.256098
1548438763491,-0.124329,0.892151,-0.284180,-62.865856,11.036586,-9.390244
1548438763506,-0.128601,0.933716,-0.279968,-65.365852,4.573171,-2.195122
1548438763513,-0.135376,0.948853,-0.260132,-61.951221,2.926829,2.378049
1548438763528,-0.120972,0.917419,-0.309814,-54.939026,1.585366,0.548781
1548438763542,-0.124634,0.923340,-0.281067,-49.817074,1.585366,-0.304878
1548438763543,-0.125122,0.910950,-0.318359,-32.987804,3.414634,0.670732
1548438763569,-0.127502,0.940552,-0.347839,-16.280489,4.024390,0.792683
1548438763570,-0.130981,0.979370,-0.328796,1.219512,5.609756,4.573171
1548438763575,-0.135803,0.987610,-0.312378,22.987806,6.707317,9.329268
1548438763581,-0.140503,0.972961,-0.297485,40.853661,8.719512,13.353659
1548438763596,-0.145203,0.971497,-0.272827,45.914635,9.451220,18.292683
1548438763604,-0.136902,0.945374,-0.288635,40.975609,6.402439,20.914635
1548438763611,-0.106628,0.900696,-0.331238,33.536587,2.682927,17.743902
1548438763626,-0.103638,0.890503,-0.310425,40.487804,2.743902,14.512196
1548438763634,-0.116028,0.891846,-0.284729,72.134148,6.219512,13.292684
1548438763640,-0.110413,0.873657,-0.327026,89.573174,7.560976,10.182927
1548438763656,-0.102173,0.833557,-0.372070,100.182930,9.085366,6.402439
1548438763663,-0.086914,0.833618,-0.408936,136.646347,9.024390,8.902439
1548438763671,-0.087585,0.796509,-0.536316,185.426834,7.621952,15.000000
1548438763687,-0.110168,0.815247,-0.582336,244.817078,11.890244,15.304878
1548438763694,-0.124023,0.851074,-0.544495,327.987823,19.695122,26.036587
1548438763701,-0.118591,0.826660,-0.568359,383.231720,27.134148,37.560978
1548438763715,-0.117371,0.921631,-0.415527,404.573181,32.439026,42.439026
1548438763723,-0.096680,0.764954,-0.575073,328.719513,21.280489,26.951220
1548438763730,-0.083252,0.701294,-0.656189,168.292694,-4.634146,2.134146
1548438763746,-0.079590,0.694702,-0.694275,145.548782,-10.426829,-3.719512
1548438763753,-0.083618,0.654602,-0.792358,115.000000,-12.743903,-7.865854
1548438763760,-0.091614,0.614197,-0.783752,98.231712,-12.804878,-13.597561
1548438763776,-0.076843,0.564697,-0.798157,131.219513,-8.475610,-17.439024
1548438763783,-0.084839,0.552246,-0.822998,153.841461,-5.670732,-23.902439
1548438763790,-0.112305,0.565918,-0.837463,185.121948,-0.853659,-27.682928
1548438763807,-0.116882,0.593872,-0.843994,224.329269,3.780488,-23.353659
1548438763813,-0.148438,0.574341,-0.831848,255.853668,5.975610,-18.292683
1548438763821,-0.152039,0.531128,-0.825867,251.097565,8.109756,-12.439025
1548438763835,-0.110779,0.565979,-0.810974,241.341476,4.268293,-0.243902
1548438763843,-0.116760,0.487244,-0.864929,195.853668,-6.036585,2.682927
1548438763855,-0.122131,0.454041,-0.833191,119.756104,-16.158537,-5.609756
1548438763865,-0.100464,0.384827,-0.902710,99.878052,-22.804878,-1.890244
1548438763873,-0.126526,0.292053,-0.970947,67.195122,-29.329269,-0.670732
1548438763880,-0.104004,0.161133,-1.092468,62.743904,-27.865854,-6.158537
1548438763896,-0.086487,0.213501,-1.140015,104.451225,-22.134148,-15.365854
1548438763903,-0.141418,0.290710,-1.019348,146.219513,-9.451220,-28.475611
1548438763910,-0.146606,0.250671,-0.975586,183.292694,4.695122,-39.695122
1548438763926,-0.138672,0.251404,-0.931641,231.097565,9.024390,-36.829269
1548438763933,-0.167847,0.264404,-0.830872,254.939026,8.414635,-28.597561
1548438763942,-0.142700,0.191040,-0.891235,254.024399,1.097561,-23.841463
1548438763957,-0.122559,0.144531,-1.021790,255.975616,-10.243902,-15.426829
1548438763963,-0.150085,0.145081,-1.019409,230.487808,-9.329268,-13.963415
1548438763975,-0.125122,0.138000,-1.068726,218.048782,-10.182927,-2.926829
1548438763988,-0.133972,-0.027832,-1.160950,170.487808,-16.097561,3.475610
1548438763994,-0.128967,-0.076599,-1.092896,122.439026,-15.304878,-1.524390
1548438764002,-0.125183,-0.066406,-0.984741,167.134155,-7.073171,4.817073
1548438764016,-0.134216,-0.072266,-0.898621,200.304886,-1.402439,0.426829
1548438764023,-0.142883,-0.021057,-0.810791,212.926834,-1.707317,-12.743903
1548438764031,-0.146606,-0.031189,-0.815857,232.743912,-7.560976,-17.378050
1548438764046,-0.143921,-0.136169,-0.899109,242.560974,-16.463415,-17.317074
1548438764054,-0.151428,-0.300720,-0.970764,231.402451,-22.317074,-19.024391
1548438764060,-0.146912,-0.400269,-1.156433,196.097565,-23.902439,-25.182928
1548438764076,-0.166504,-0.368286,-1.169067,121.829269,-27.256098,-34.207317
1548438764083,-0.159302,-0.361755,-1.090759,143.475616,-19.573172,-32.926830
1548438764091,-0.167725,-0.354065,-1.045227,190.853668,-8.841464,-27.134148
1548438764106,-0.191772,-0.349426,-0.941040,201.768295,-1.036585,-29.939026
1548438764113,-0.171753,-0.352356,-0.834534,241.951218,1.951220,-28.109756
1548438764121,-0.186646,-0.338013,-0.806335,253.292694,-3.658537,-26.402439
1548438764136,-0.201904,-0.329407,-0.775330,228.353668,-12.682927,-28.048780
1548438764144,-0.190430,-0.402100,-0.875000,229.207321,-22.439024,-23.414635
1548438764151,-0.185303,-0.462036,-1.097839,177.926834,-34.512196,-22.682928
1548438764165,-0.200867,-0.522888,-1.200989,114.817078,-37.804878,-23.292683
1548438764173,-0.187500,-0.610229,-1.192017,101.219513,-27.804878,-12.560976
1548438764181,-0.203552,-0.721313,-1.046448,106.097565,-10.060976,-5.304878
1548438764196,-0.161499,-0.823364,-0.880554,165.853668,8.170732,-5.731708
1548438764204,-0.201599,-0.686768,-0.692017,207.256104,13.780488,-16.768293
1548438764210,-0.207458,-0.570374,-0.498779,232.134155,10.670732,-27.804878
1548438764225,-0.161499,-0.562317,-0.528320,247.987808,-2.134146,-28.414635
1548438764233,-0.147217,-0.600769,-0.623779,196.646347,-22.682928,-27.682928
1548438764241,-0.138794,-0.629089,-0.645691,170.243912,-31.585367,-29.573172
1548438764255,-0.112427,-0.734314,-0.688049,205.121964,-28.536587,-19.939024
1548438764263,-0.128479,-0.799438,-0.746765,187.682938,-23.902439,-16.707317
1548438764270,-0.144409,-0.818359,-0.661377,172.134155,-13.475610,-21.707317
1548438764286,-0.164551,-0.767761,-0.605652,193.536591,-3.292683,-22.621952
1548438764293,-0.173950,-0.784546,-0.511047,157.926834,-1.402439,-21.707317
1548438764300,-0.135132,-0.863953,-0.452820,132.195129,-2.195122,-13.658537
1548438764315,-0.137268,-0.865112,-0.397156,89.207321,-7.073171,-7.926829
1548438764323,-0.133484,-0.861023,-0.390808,67.865852,-11.707317,-4.085366
1548438764330,-0.126526,-0.897095,-0.448669,87.682930,-15.182927,4.451220
1548438764346,-0.137207,-0.905212,-0.512695,100.487808,-18.109756,7.134147
1548438764353,-0.149231,-0.852234,-0.523926,101.829269,-17.439024,1.646341
1548438764360,-0.145813,-0.895996,-0.514893,117.865860,-13.536586,1.707317
1548438764376,-0.151489,-0.941467,-0.508972,123.597565,-8.292683,2.012195
1548438764383,-0.152832,-0.888916,-0.435425,123.170738,-3.231707,-0.975610
1548438764391,-0.147827,-0.849548,-0.356689,140.548782,1.036585,-2.134146
1548438764408,-0.167480,-0.864319,-0.314331,129.817078,1.646341,-0.792683
1548438764413,-0.138062,-0.902771,-0.248657,112.743904,-1.585366,1.951220
1548438764423,-0.129395,-0.866760,-0.307861,101.036591,-8.292683,8.292683
1548438764436,-0.136414,-0.821960,-0.339600,44.329269,-14.817074,9.817074
1548438764443,-0.123779,-0.870544,-0.308533,36.036587,-14.512196,12.560976
1548438764451,-0.131531,-0.971802,-0.328979,46.219513,-12.134147,19.512196
1548438764469,-0.134705,-1.032593,-0.323425,20.853659,-10.792684,17.500000
1548438764473,-0.151428,-1.065857,-0.310364,21.341463,-8.963415,12.439025
1548438764482,-0.173828,-1.031799,-0.329956,23.536587,-7.621952,6.463415
1548438764496,-0.178711,-0.977600,-0.395752,4.756098,-8.170732,-1.707317
1548438764504,-0.185669,-0.934509,-0.408569,-11.707317,-8.109756,-7.134147
1548438764511,-0.181824,-0.902649,-0.369629,-13.841464,-5.060976,-10.792684
1548438764526,-0.163757,-0.908569,-0.345398,5.243903,-2.804878,-8.780488
1548438764536,-0.171387,-0.911316,-0.348694,21.829269,-2.621951,-4.695122
1548438764541,-0.161865,-0.958923,-0.326050,22.621952,-2.439024,-3.597561
1548438764556,-0.152283,-0.989685,-0.289246,37.439026,-1.158537,-1.890244
1548438764572,-0.152283,-0.917053,-0.298828,43.536587,-0.121951,-3.353659
1548438764572,-0.145386,-0.903687,-0.333740,24.085367,0.426829,-5.487805
1548438764589,-0.145813,-0.915100,-0.334961,7.500000,3.597561,-7.926829
1548438764593,-0.143860,-0.937683,-0.318115,-4.390244,7.500000,-11.036586
1548438764601,-0.144531,-0.959106,-0.287659,-19.756098,10.121951,-13.292684
1548438764621,-0.143250,-0.975708,-0.250305,-29.878050,12.073171,-13.109756
1548438764623,-0.152283,-0.943726,-0.244141,-33.536587,11.158537,-12.926829
1548438764633,-0.140259,-0.950928,-0.276428,-39.878048,7.682927,-10.975610
1548438764669,-0.127991,-0.951721,-0.359009,-42.560978,5.792683,-6.402439
1548438764670,-0.147949,-0.873840,-0.360901,-56.402439,6.341464,-5.853659
1548438764670,-0.132812,-0.857361,-0.341187,-50.060978,7.256098,-2.012195
1548438764689,-0.120422,-0.849548,-0.381714,-40.670734,8.231708,5.487805
1548438764690,-0.106873,-0.796387,-0.431519,-56.219513,9.939025,8.719512
1548438764703,-0.060608,-0.793335,-0.492432,-74.024391,13.658537,8.902439
1548438764709,-0.037292,-0.856506,-0.565857,-107.560982,20.548780,7.682927
1548438764721,-0.067749,-0.900757,-0.540527,-171.707321,30.670732,3.841464
1548438764724,-0.133362,-0.891541,-0.484863,-240.304886,40.731709,-4.695122
1548438764740,-0.193848,-0.826721,-0.436096,-287.256104,45.000000,-7.256098
1548438764743,-0.284973,-0.751282,-0.404785,-304.329285,44.024391,-3.719512
1548438764758,-0.218506,-0.735718,-0.443665,-297.621948,35.365856,2.439024
1548438764767,-0.125793,-0.880981,-0.567688,-265.365845,18.170732,14.634147
1548438764789,-0.114746,-0.904114,-0.687134,-261.585358,5.487805,16.524391
1548438764792,-0.136414,-0.820496,-0.747192,-260.365845,-0.670732,13.780488
1548438764799,-0.118530,-0.804749,-0.826355,-245.487808,-1.280488,8.902439
1548438764804,-0.079773,-0.759766,-0.885559,-247.439026,-0.609756,1.341463
1548438764811,-0.076660,-0.720581,-0.913391,-258.292694,0.365854,-6.341464
1548438764826,-0.119934,-0.600037,-0.905762,-262.682922,7.256098,-15.731708
1548438764834,-0.180542,-0.418518,-0.806274,-255.853668,13.902439,-17.012196
1548438764841,-0.182922,-0.353821,-0.743896,-229.207321,14.634147,-6.951220
1548438764856,-0.155518,-0.412659,-0.815491,-206.890244,7.134147,4.024390
1548438764863,-0.121582,-0.469971,-0.901611,-211.829269,-4.085366,9.878049
1548438764871,-0.086792,-0.487915,-0.968750,-207.804886,-12.439025,12.743903
1548438764886,-0.075439,-0.464478,-1.053894,-203.963425,-15.182927,8.048780
1548438764894,-0.102966,-0.387085,-1.048889,-224.573181,-13.475610,-8.658537
1548438764903,-0.144165,-0.239624,-1.000244,-223.963425,-7.256098,-22.560976
1548438764918,-0.146973,-0.145203,-1.018921,-205.060974,-2.926829,-20.304878
1548438764932,-0.143250,-0.131897,-1.032654,-206.524399,-1.768293,-12.134147
1548438764935,-0.137695,-0.159729,-1.021240,-226.463425,-1.280488,-5.792683
1548438764946,-0.123535,-0.170837,-1.038940,-242.134155,-2.682927,-6.829268
1548438764954,-0.133789,-0.159424,-1.070862,-253.170731,-4.451220,-8.292683
1548438764961,-0.129089,-0.101135,-1.040833,-286.524384,-8.902439,-14.756098
1548438764976,-0.121033,-0.028442,-0.995056,-287.804871,-9.268292,-20.487804
1548438764983,-0.148987,0.056396,-0.967163,-252.987808,-8.536586,-23.292683
1548438764991,-0.153442,0.138916,-1.008728,-242.317078,-11.341464,-20.365854
1548438765006,-0.105713,0.138062,-1.131775,-229.939026,-17.682928,-15.121951
1548438765014,-0.135193,0.195312,-1.095093,-228.780487,-15.426829,-15.487805
1548438765021,-0.192200,0.253113,-0.986328,-228.048782,-7.317073,-21.280489
1548438765036,-0.172546,0.239807,-0.939392,-215.609756,-3.841464,-19.268293
1548438765044,-0.149536,0.219238,-0.844299,-204.573181,-8.292683,-10.121951
1548438765051,-0.145569,0.254822,-0.756592,-224.207321,-16.768293,-5.792683
1548438765068,-0.152771,0.349182,-0.729736,-261.524384,-26.890245,-8.963415
1548438765074,-0.137939,0.321899,-0.810303,-289.024384,-38.170734,-16.890244
1548438765084,-0.134033,0.320801,-0.957703,-328.231720,-46.097561,-37.317074
1548438765096,-0.120911,0.369629,-1.052368,-340.182922,-42.865856,-50.365856
1548438765104,-0.152100,0.530884,-1.024170,-281.585358,-29.390245,-45.000000
1548438765111,-0.181091,0.591187,-0.954468,-211.890244,-12.256098,-27.012196
1548438765146,-0.221802,0.578186,-0.878540,-126.768295,10.670732,-30.975611
1548438765146,-0.229431,0.612976,-0.761230,-65.426834,19.024391,-10.365854
1548438765147,-0.190796,0.554565,-0.716370,-92.560974,0.914634,6.402439
1548438765182,-0.191956,0.558960,-0.674744,-129.390244,-10.182927,6.890244
1548438765182,-0.194946,0.620728,-0.708191,-154.695129,-15.426829,2.987805
1548438765183,-0.208130,0.693054,-0.697327,-172.926834,-22.256098,-0.426829
1548438765188,-0.224182,0.751587,-0.680664,-164.329269,-26.341463,1.646341
1548438765194,-0.203491,0.706543,-0.759399,-159.573181,-30.243902,7.621952
1548438765201,-0.199585,0.662354,-0.754456,-160.609756,-30.487806,12.500000
1548438765338,-0.196411,0.692200,-0.660706,-148.963425,-29.451220,18.719513
1548438765365,-0.164124,0.729919,-0.634888,-129.939026,-36.585365,48.048782
1548438765366,-0.171875,0.671570,-0.680359,-123.719513,-25.365854,46.890244
1548438765366,-0.172363,0.785095,-0.590942,-119.939026,-12.804878,35.548782
1548438765366,-0.189941,0.834167,-0.523987,-103.841469,-7.804878,37.682926
1548438765366,-0.193970,0.797058,-0.543762,-114.085365,-2.439024,19.695122
1548438765367,-0.191589,0.830139,-0.543762,-129.939026,-1.280488,7.134147
1548438765367,-0.214600,0.900269,-0.500488,-116.158539,-1.646341,9.268292
1548438765367,-0.205383,0.923401,-0.562866,-109.268295,-1.341463,9.024390
1548438765367,-0.194519,0.898621,-0.636108,-123.841469,-2.073171,5.304878
1548438765367,-0.212830,0.937561,-0.561829,-118.475609,1.890244,4.695122
1548438765367,-0.199707,0.904724,-0.567505,-102.804878,6.829268,11.280488
1548438765368,-0.192627,0.906311,-0.484558,-105.000000,9.817074,14.329268
1548438765368,-0.200806,0.874817,-0.382446,-92.500000,12.560976,17.804878
1548438765368,-0.155945,0.819397,-0.430542,-99.085365,11.158537,14.085366
1548438765384,-0.157593,0.858337,-0.377319,-115.243904,8.292683,7.195122
1548438765384,-0.167236,0.880066,-0.354858,-118.902443,8.353659,3.414634
1548438765384,-0.157593,0.945801,-0.341370,-115.426834,7.012195,2.926829
1548438765396,-0.160400,0.951660,-0.366821,-118.719513,4.573171,4.085366
1548438765405,-0.145752,0.995056,-0.376038,-134.268295,5.304878,5.487805
1548438765411,-0.180603,0.996338,-0.352966,-116.097565,7.865854,17.378050
1548438765426,-0.148804,0.908875,-0.432190,-106.158539,8.841464,21.341463
1548438765435,-0.145935,0.895264,-0.325134,-113.414635,9.451220,19.817074
1548438765441,-0.160522,0.861511,-0.223450,-81.707321,11.524390,23.597561
1548438765456,-0.120056,0.842529,-0.302246,-63.597561,8.414635,24.451220
1548438765471,-0.112000,0.904358,-0.250244,-44.939026,5.914634,23.536587
1548438765472,-0.115540,0.973145,-0.201111,-3.170732,5.914634,29.573172
1548438765486,-0.137878,1.002991,-0.192993,19.512196,7.073171,28.170732
1548438765493,-0.135132,1.003296,-0.209229,-8.658537,8.170732,19.634148
1548438765519,-0.137756,1.014099,-0.231445,-52.500000,3.841464,16.707317
1548438765521,-0.123535,0.954712,-0.305115,-85.792686,-1.341463,19.512196
1548438765523,-0.098145,0.917664,-0.277344,-121.890244,-3.658537,16.951220
1548438765531,-0.091980,0.888000,-0.120972,-117.195122,-0.853659,10.792684
1548438765546,-0.083679,0.858887,-0.165100,-98.780487,-1.463415,5.609756
1548438765553,-0.060486,0.851074,-0.220520,-101.768295,3.048780,-8.048780
1548438765561,-0.109375,0.914124,-0.085754,-81.524391,7.682927,-16.219513
1548438765576,-0.131653,0.966309,-0.108398,-38.475609,10.853659,-15.304878
1548438765584,-0.112854,0.951233,-0.141846,-34.756100,8.597561,-15.914635
1548438765591,-0.142456,0.995667,-0.119141,-32.256100,6.829268,-10.670732
1548438765606,-0.114868,0.958862,-0.192627,-11.646341,7.256098,5.060976
1548438765614,-0.104675,0.926453,-0.166077,4.329268,4.817073,6.585366
1548438765623,-0.126770,0.944946,-0.094543,36.463417,4.756098,16.097561
1548438765636,-0.138489,0.963684,-0.073853,59.329269,2.195122,24.817074
1548438765653,-0.131958,0.972839,-0.129639,36.402439,-3.780488,17.378050
1548438765656,-0.103027,0.967712,-0.236084,-5.000000,-15.853659,8.048780
1548438765666,-0.095520,0.959412,-0.219910,-11.585366,-22.682928,8.902439
1548438765675,-0.089905,0.941040,-0.193604,3.719512,-22.500000,14.146341
1548438765712,-0.076721,0.940918,-0.220703,11.280488,-21.768293,14.878049
1548438765712,-0.093506,0.962830,-0.188599,23.292683,-16.219513,11.951220
1548438765712,-0.103455,0.987061,-0.194580,33.963417,-12.378049,13.597561
1548438765720,-0.105957,0.975403,-0.206726,44.817074,-10.426829,13.780488
1548438765726,-0.075745,0.934204,-0.182983,68.170731,-8.231708,15.243903
1548438765735,-0.051514,0.900879,-0.212402,100.792686,-7.378049,19.329269
1548438765741,-0.071960,0.888916,-0.174072,140.487808,-3.048780,19.146341
1548438765756,-0.078491,0.880676,-0.215515,156.097565,1.158537,10.487805
1548438765763,-0.077393,0.882568,-0.276306,123.414635,-1.524390,-1.646341
1548438765770,-0.074585,0.923523,-0.342407,120.792686,-2.134146,-8.780488
1548438765786,-0.083008,0.967957,-0.379333,130.670731,-3.414634,-6.402439
1548438765793,-0.084290,0.966187,-0.442139,154.085373,-2.317073,2.621951
1548438765802,-0.068298,0.914734,-0.486328,187.378052,1.707317,13.292684
1548438765820,-0.076050,0.897827,-0.392151,251.585373,6.768293,28.292683
1548438765823,-0.092896,0.867310,-0.372742,330.426849,8.597561,43.292683
1548438765831,-0.076355,0.788147,-0.498230,319.756104,3.963415,28.231709
1548438765847,-0.069763,0.778198,-0.602600,264.634155,-5.304878,3.353659
1548438765854,-0.093994,0.817871,-0.615051,263.658539,-6.097561,-0.670732
1548438765861,-0.093262,0.827942,-0.663940,261.768311,-5.670732,-2.439024
1548438765875,-0.091797,0.798889,-0.726318,206.951218,-9.634147,-6.890244
1548438765884,-0.092651,0.761597,-0.715759,151.158539,-13.902439,-3.963415
1548438765890,-0.087646,0.727417,-0.711548,145.243912,-14.085366,6.890244
1548438765907,-0.094971,0.684326,-0.756470,130.792679,-14.817074,15.731708
1548438765918,-0.084595,0.618652,-0.821655,118.536591,-14.939025,20.853659
1548438765920,-0.080750,0.587219,-0.810974,150.792679,-11.036586,18.841463
1548438765937,-0.099915,0.570068,-0.728638,186.341461,-4.695122,14.878049
1548438765944,-0.076599,0.555908,-0.683655,198.231705,-3.841464,10.914635
1548438765952,-0.076233,0.535767,-0.772278,186.951218,-9.756098,5.182927
1548438765967,-0.116760,0.505920,-0.825684,134.390244,-13.841464,-4.451220
1548438765973,-0.066406,0.447449,-0.964233,131.097565,-14.024390,-6.341464
1548438765982,-0.048401,0.445435,-1.070984,151.890244,-12.926829,-6.768293
1548438765996,-0.088989,0.460022,-1.034180,151.646347,-2.256098,-11.097561
1548438766004,-0.077332,0.440002,-0.987427,203.292694,12.926829,-6.402439
1548438766011,-0.071777,0.425476,-0.933533,271.890259,24.634148,-3.353659
1548438766026,-0.095154,0.437805,-0.833130,289.756104,34.146343,-6.524390
1548438766034,-0.073181,0.443787,-0.776733,302.256104,37.926830,-3.658537
1548438766041,-0.110107,0.421692,-0.832520,239.146347,24.634148,-4.207317
1548438766056,-0.094727,0.329041,-0.863586,143.902435,7.317073,-1.951220
1548438766063,-0.053711,0.160339,-0.962708,145.426834,-5.365854,8.902439
1548438766071,-0.061523,0.021057,-1.071899,121.280487,-14.695123,7.621952
1548438766086,-0.048157,-0.010315,-1.023682,104.573174,-16.829269,-0.243902
1548438766094,-0.046509,0.012146,-0.926758,168.719513,-14.390244,0.487805
1548438766102,-0.065186,0.028625,-0.970215,212.256104,-14.085366,0.182927
1548438766119,-0.063538,0.072205,-0.997070,225.426834,-14.573171,-0.731707
1548438766123,-0.068787,0.097168,-1.003479,271.646362,-14.451220,-3.780488
1548438766131,-0.097168,0.049316,-1.014221,284.878052,-8.658537,-15.670732
1548438766146,-0.068237,0.042114,-1.047668,272.439026,-4.634146,-23.597561
1548438766154,-0.095520,0.063660,-1.033142,264.756104,-3.719512,-14.451220
1548438766161,-0.144470,0.054871,-0.971313,210.365860,-2.560976,-10.609756
1548438766176,-0.093567,-0.014282,-0.937866,169.451218,-7.378049,4.024390
1548438766183,-0.083618,-0.158875,-1.040344,105.609756,-18.719513,18.292683
1548438766191,-0.095032,-0.247253,-1.045654,12.865854,-22.987806,15.365854
1548438766206,-0.091248,-0.291260,-1.034729,12.926829,-20.243902,11.097561
1548438766213,-0.105530,-0.337769,-1.066162,19.390244,-18.597561,7.987805
1548438766221,-0.113281,-0.332092,-1.085754,26.463415,-14.634147,-0.060976
1548438766236,-0.099731,-0.303650,-1.130249,99.390244,-9.512196,2.378049
1548438766243,-0.114990,-0.250671,-1.051025,153.048782,-2.134146,0.182927
1548438766252,-0.103088,-0.187073,-0.876587,189.939026,6.768293,-5.670732
1548438766267,-0.113342,-0.183777,-0.860474,196.585373,7.987805,-5.609756
1548438766273,-0.113525,-0.210571,-0.792236,147.195129,3.841464,-7.195122
1548438766281,-0.102661,-0.285767,-0.837280,124.512199,-3.109756,-6.036585
1548438766303,-0.108948,-0.363403,-0.919006,69.756096,-11.768293,-7.134147
1548438766304,-0.100220,-0.401428,-0.900085,43.597561,-14.817074,-11.158537
1548438766311,-0.104309,-0.481262,-0.950439,55.792683,-14.512196,-12.682927
1548438766326,-0.114685,-0.532349,-0.978516,45.731709,-13.719513,-18.902439
1548438766335,-0.101624,-0.479919,-0.929077,79.817078,-11.036586,-21.646341
1548438766341,-0.132507,-0.384583,-0.917480,115.426834,-9.573171,-24.085367
1548438766356,-0.154480,-0.299011,-1.009399,118.841469,-9.756098,-27.073172
1548438766363,-0.136597,-0.247131,-1.138794,128.597565,-12.439025,-16.280489
1548438766371,-0.110107,-0.380371,-1.138428,99.756104,-14.878049,0.609756
1548438766386,-0.099915,-0.594238,-0.984192,49.695122,-10.670732,2.256098
1548438766393,-0.085144,-0.619141,-0.839966,44.634148,-2.500000,-0.548781
1548438766401,-0.095581,-0.564270,-0.830505,70.914635,-1.768293,0.365854
1548438766416,-0.127258,-0.503601,-0.800476,90.182930,-3.597561,-6.036585
1548438766423,-0.116089,-0.472046,-0.838074,112.987808,-7.500000,-10.426829
1548438766431,-0.122192,-0.456421,-0.823669,100.304878,-13.109756,-11.890244
1548438766454,-0.123962,-0.464844,-0.796143,81.829269,-18.231709,-17.012196
1548438766454,-0.118408,-0.501343,-0.846558,47.256100,-25.853659,-24.085367
1548438766461,-0.119446,-0.545837,-0.857300,12.804878,-29.451220,-26.646341
1548438766476,-0.106628,-0.593689,-0.868347,21.219513,-28.597561,-27.195122
1548438766484,-0.117432,-0.541504,-0.906494,24.512196,-28.780489,-27.012196
1548438766491,-0.136597,-0.510132,-0.883667,24.817074,-27.865854,-24.024391
1548438766506,-0.124695,-0.539978,-0.905457,55.914635,-23.902439,-16.280489
1548438766513,-0.134705,-0.578796,-0.902283,62.439026,-22.195122,-11.646341
1548438766522,-0.135437,-0.655273,-0.840698,79.634148,-17.804878,-7.012195
1548438766536,-0.113220,-0.730408,-0.834045,97.134148,-15.060976,-5.853659
1548438766546,-0.129944,-0.696594,-0.859131,80.914635,-15.792684,-12.926829
1548438766553,-0.148071,-0.617920,-0.839661,74.756096,-14.695123,-20.060976
1548438766568,-0.139282,-0.608398,-0.846375,98.780487,-11.890244,-16.951220
1548438766573,-0.137451,-0.633179,-0.882385,99.634148,-8.719512,-16.646341
1548438766581,-0.128479,-0.637207,-0.866333,97.987808,-3.109756,-17.195122
1548438766602,-0.134277,-0.613647,-0.814514,122.804878,4.024390,-11.646341
1548438766603,-0.151672,-0.592529,-0.778687,123.536591,10.792684,-12.134147
1548438766641,-0.113464,-0.605164,-0.624756,127.012199,16.402439,-10.426829
1548438766656,-0.094543,-0.738220,-0.623718,129.329269,20.243902,-6.768293
1548438766656,-0.107239,-0.713867,-0.634460,73.841469,18.414635,-6.036585
1548438766656,-0.103210,-0.691345,-0.597290,70.060974,14.268293,-2.926829
1548438766657,-0.095154,-0.761963,-0.652893,76.768295,12.012196,-0.914634
1548438766663,-0.090942,-0.758423,-0.686646,62.317074,10.670732,-2.926829
1548438766671,-0.080933,-0.756714,-0.669983,65.975609,10.304878,-3.048780
1548438766687,-0.084045,-0.749939,-0.647095,66.951218,12.256098,-3.414634
1548438766693,-0.113647,-0.676636,-0.757996,48.109756,13.841464,-6.158537
1548438766707,-0.079407,-0.742004,-0.654541,40.060978,13.048780,0.000000
1548438766719,-0.074219,-0.779175,-0.588562,61.951221,18.780489,5.000000
1548438766723,-0.116272,-0.811890,-0.513794,50.060978,17.134148,9.634147
1548438766732,-0.069275,-0.865295,-0.541321,65.792686,12.378049,15.304878
1548438766748,-0.071899,-0.795105,-0.530151,98.536591,8.902439,34.573170
1548438766753,-0.071594,-0.719360,-0.441833,132.682922,14.695123,49.207317
1548438766764,-0.084351,-0.788940,-0.522522,96.951225,13.658537,38.475609
1548438766776,-0.097107,-0.814270,-0.562683,15.914635,3.109756,19.878050
1548438766785,-0.092224,-0.799011,-0.568848,19.146341,1.524390,19.085367
1548438766791,-0.098450,-0.847839,-0.585388,22.012196,1.707317,20.000000
1548438766805,-0.113953,-0.887939,-0.562622,2.195122,1.219512,14.634147
1548438766813,-0.120239,-0.870911,-0.518311,9.695122,2.073171,12.987805
1548438766821,-0.131348,-0.878784,-0.567627,15.243903,0.609756,13.048780
1548438766836,-0.130615,-0.851440,-0.572876,-2.804878,-0.731707,8.475610
1548438766843,-0.134277,-0.792542,-0.569946,-5.426829,-0.975610,6.036585
1548438766852,-0.122498,-0.810303,-0.600464,-32.378048,-1.402439,4.146341
1548438766868,-0.107239,-0.844116,-0.596802,-41.463417,-1.097561,4.451220
1548438766873,-0.120728,-0.832336,-0.610535,-30.853659,0.731707,5.609756
1548438766881,-0.115173,-0.834351,-0.594177,-26.036587,2.560976,4.207317
1548438766896,-0.104309,-0.839783,-0.559875,-7.621952,3.658537,6.036585
1548438766903,-0.089539,-0.816650,-0.553284,-7.743903,4.268293,4.024390
1548438766912,-0.096252,-0.774292,-0.555969,-29.268293,4.878049,-0.304878
1548438766926,-0.110779,-0.727173,-0.525818,-53.780491,6.219512,-4.146341
1548438766933,-0.118225,-0.717285,-0.549011,-79.695122,6.402439,-7.073171
1548438766943,-0.162231,-0.658936,-0.565796,-104.756104,5.243903,-5.426829
1548438766956,-0.129761,-0.743652,-0.637329,-121.646347,3.109756,-2.195122
1548438766965,-0.078735,-0.868530,-0.715210,-118.231712,-0.548781,5.975610
1548438766971,-0.089783,-0.791443,-0.682678,-112.012199,0.792683,10.731708
1548438766986,-0.082825,-0.731628,-0.635132,-111.097565,4.634146,5.487805
1548438766993,-0.054626,-0.725647,-0.651428,-117.560982,5.914634,-0.609756
1548438767001,-0.121338,-0.626160,-0.671509,-144.146347,6.463415,-5.243903
1548438767020,-0.210999,-0.533325,-0.646118,-183.658539,6.707317,-14.390244
1548438767023,-0.164490,-0.665466,-0.822571,-182.378052,0.609756,-12.256098
1548438767030,-0.122437,-0.778931,-0.946106,-156.158539,-7.743903,3.719512
1548438767046,-0.109192,-0.724609,-0.855591,-122.378052,-9.207317,14.634147
1548438767053,-0.117249,-0.587952,-0.777161,-75.365852,-5.365854,14.878049
1548438767062,-0.128540,-0.531799,-0.797668,-63.963417,-4.878049,8.780488
1548438767086,-0.112610,-0.533997,-0.855469,-72.500000,-6.646342,4.390244
1548438767097,-0.126343,-0.496277,-0.859314,-78.902443,-7.682927,5.853659
1548438767098,-0.155945,-0.412598,-0.792542,-95.000000,-7.256098,8.597561
1548438767109,-0.142273,-0.393494,-0.803589,-115.853661,-8.658537,13.963415
1548438767120,-0.145874,-0.433716,-0.884033,-134.390244,-12.682927,17.134148
1548438767121,-0.146667,-0.412842,-0.891174,-147.926834,-15.609756,14.878049
1548438767171,-0.158447,-0.394165,-0.889099,-150.609756,-14.512196,23.719513
1548438767171,-0.152710,-0.450317,-0.928467,-130.548782,-11.829268,34.024391
1548438767171,-0.144287,-0.502502,-0.976196,-123.048782,-11.097561,38.780487
1548438767172,-0.149780,-0.556396,-0.995667,-123.475609,-8.109756,36.829269
1548438767181,-0.113159,-0.562317,-1.017944,-114.390244,-2.012195,29.695122
1548438767181,-0.126709,-0.515808,-0.983704,-113.292686,3.963415,14.634147
1548438767188,-0.161682,-0.431213,-0.947144,-124.207321,11.402439,-6.768293
1548438767204,-0.168701,-0.362183,-0.950867,-126.829269,17.317074,-15.975610
1548438767211,-0.190857,-0.256897,-0.929932,-120.731712,17.621952,-13.963415
1548438767221,-0.209229,-0.187317,-0.923584,-123.475609,14.268293,-12.987805
1548438767235,-0.175659,-0.208191,-1.005981,-126.951225,8.109756,-9.451220
1548438767241,-0.141113,-0.248657,-1.039673,-125.609756,0.548781,0.914634
1548438767249,-0.132568,-0.283813,-0.996277,-135.853668,-3.597561,13.475610
1548438767264,-0.103821,-0.263062,-0.990234,-139.085373,-4.573171,23.963415
1548438767271,-0.100464,-0.191833,-0.964111,-120.853661,-2.743902,32.134148
1548438767279,-0.138428,-0.202576,-0.913208,-121.463417,0.548781,24.390244
1548438767293,-0.197327,-0.121582,-0.909424,-145.792679,1.951220,6.585366
1548438767303,-0.162537,-0.096863,-1.073975,-137.134155,-3.597561,13.231708
1548438767310,-0.104309,-0.219116,-1.193665,-97.012199,-7.804878,30.182928
1548438767323,-0.116455,-0.227783,-1.112427,-74.817078,-1.219512,22.926830
1548438767331,-0.141541,-0.109985,-0.960815,-55.609756,9.756098,10.487805
1548438767338,-0.139954,0.005371,-0.906982,-36.951221,12.560976,7.317073
1548438767354,-0.139404,-0.004822,-0.984314,-46.707317,8.231708,4.451220
1548438767361,-0.117188,-0.052429,-1.055847,-80.121956,3.658537,-0.731707
1548438767370,-0.125610,-0.031067,-0.997192,-96.829269,2.621951,-4.390244
1548438767383,-0.123047,-0.015564,-0.945862,-95.670731,3.292683,-4.573171
1548438767392,-0.112305,0.006714,-0.935974,-89.451225,1.524390,-2.439024
1548438767399,-0.134949,0.042603,-0.924988,-87.012199,-0.426829,-4.573171
1548438767413,-0.131409,0.032471,-1.010376,-92.743904,-2.560976,-5.914634
1548438767420,-0.137451,0.044189,-1.047241,-101.158539,-4.817073,-5.609756
1548438767428,-0.162231,0.058655,-1.028870,-92.560974,-3.170732,-4.756098
1548438767455,-0.159363,0.073547,-1.017761,-78.109756,-1.524390,-0.975610
1548438767457,-0.151611,0.094238,-1.020691,-57.682930,-2.012195,3.048780
1548438767458,-0.160095,0.120300,-1.035889,-40.365856,-0.121951,4.085366
1548438767474,-0.154114,0.125122,-1.046936,-24.573172,1.646341,5.182927
1548438767481,-0.132019,0.127502,-0.975159,-0.670732,3.475610,8.414635
1548438767488,-0.135620,0.117065,-0.936768,5.670732,4.329268,9.268292
1548438767503,-0.131165,0.075684,-0.950867,-16.463415,3.292683,7.500000
1548438767511,-0.105774,0.033386,-1.005188,-23.719513,1.097561,4.146341
1548438767519,-0.120239,0.050598,-1.011719,-24.390244,0.487805,-1.768293
1548438767534,-0.143677,0.071716,-1.003052,-28.475611,2.256098,-6.463415
1548438767541,-0.129272,0.069153,-1.052063,-32.987804,1.402439,-7.987805
1548438767549,-0.131042,0.083557,-1.061462,-35.121952,-0.548781,-9.451220
1548438767563,-0.135620,0.073120,-1.032104,-29.390245,0.914634,-8.841464
1548438767570,-0.136292,0.098694,-0.976196,-23.109756,2.256098,-6.951220
1548438767578,-0.143494,0.135986,-0.953064,-12.743903,1.463415,-4.390244
1548438767593,-0.137817,0.117676,-0.992126,0.548781,-0.914634,-0.975610
1548438767601,-0.135925,0.130798,-0.999573,9.329268,-2.439024,-0.853659
1548438767616,-0.144775,0.197998,-0.976135,21.280489,-1.219512,0.548781
1548438767623,-0.149658,0.166443,-1.010742,20.121952,-0.121951,2.682927
1548438767630,-0.145508,0.161377,-0.998108,6.524390,0.426829,0.792683
1548438767638,-0.136902,0.155457,-0.995178,10.670732,2.073171,0.853659
1548438767653,-0.133972,0.132446,-1.021484,8.292683,2.743902,-1.585366
1548438767660,-0.134583,0.105774,-1.020081,-0.426829,4.329268,-2.560976
1548438767676,-0.130676,0.088074,-1.003784,-2.500000,5.914634,-2.073171
1548438767683,-0.123474,0.057068,-1.002563,-0.548781,6.341464,-0.060976
1548438767691,-0.125061,0.063843,-0.981750,-2.073171,5.670732,1.280488
1548438767706,-0.121399,0.074768,-0.974243,0.182927,4.512195,1.341463
1548438767714,-0.116272,0.089661,-0.977478,4.146341,2.743902,1.219512
1548438767722,-0.123962,0.104248,-0.973816,4.695122,0.792683,0.548781
1548438767729,-0.119019,0.102722,-0.983032,1.036585,-1.219512,0.670732
1548438767744,-0.123047,0.119263,-0.991150,-3.475610,-2.621951,0.670732
1548438767752,-0.124268,0.133240,-1.004761,-6.524390,-3.292683,0.914634
1548438767758,-0.128906,0.137085,-1.017639,-5.000000,-2.865854,2.378049
1548438767773,-0.131226,0.123657,-1.026978,-6.524390,-1.280488,2.500000
1548438767781,-0.126831,0.100281,-1.030762,-5.121951,0.731707,2.621951
1548438767788,-0.132568,0.103577,-1.007568,0.792683,3.353659,1.890244
1548438767803,-0.142090,0.093567,-0.988342,6.463415,5.670732,1.036585
1548438767811,-0.125000,0.080017,-0.981873,10.487805,5.731708,1.219512
1548438767818,-0.119568,0.086975,-0.992920,19.024391,4.390244,2.439024
1548438767833,-0.122742,0.093689,-0.998108,13.841464,3.475610,1.097561
1548438767841,-0.118652,0.097046,-0.990234,10.670732,3.353659,0.243902
1548438767848,-0.114624,0.099731,-0.988525,12.317074,2.804878,1.768293
1548438767863,-0.112915,0.099548,-0.989929,7.987805,2.073171,2.195122
1548438767871,-0.110718,0.093933,-1.007324,5.060976,1.341463,2.804878
1548438767878,-0.115417,0.092834,-1.005493,6.646342,1.219512,3.536585
1548438767894,-0.118225,0.093384,-1.002014,9.817074,1.585366,3.841464
1548438767901,-0.115234,0.105957,-0.991760,7.987805,1.280488,4.268293
1548438767908,-0.126648,0.101135,-0.990173,7.500000,1.524390,3.475610
1548438767923,-0.116821,0.072815,-1.006409,5.000000,1.280488,2.926829
1548438767931,-0.114380,0.088318,-0.998657,7.743903,0.853659,1.951220
1548438767938,-0.122314,0.097229,-1.007446,8.597561,1.219512,0.182927
1548438767953,-0.125244,0.110718,-0.996887,8.597561,2.195122,-0.975610
1548438767961,-0.120911,0.118591,-0.971497,11.890244,2.378049,1.402439
1548438767969,-0.117188,0.094849,-0.973816,2.560976,1.707317,2.439024
1548438767984,-0.108215,0.063110,-0.986877,-5.060976,0.609756,1.951220
1548438767998,-0.101196,0.049500,-1.006653,-3.841464,-0.731707,2.804878
1548438767998,-0.104675,0.065430,-1.007324,-5.243903,-1.768293,1.341463
1548438768013,-0.112244,0.080383,-1.000305,-3.048780,-1.890244,-0.182927
1548438768021,-0.117371,0.079468,-1.007202,2.256098,-1.829268,0.548781
1548438768028,-0.127197,0.078369,-1.021301,4.024390,-1.951220,1.341463
1548438768043,-0.121643,0.074097,-1.019836,0.914634,-1.951220,1.402439
1548438768052,-0.122070,0.097595,-0.999084,0.548781,-1.341463,0.792683
1548438768058,-0.119263,0.110718,-1.010437,1.463415,-0.609756,0.365854
1548438768073,-0.117798,0.112244,-1.010681,1.219512,0.365854,0.182927
1548438768081,-0.116394,0.108215,-0.990356,2.378049,1.219512,1.890244
1548438768088,-0.110168,0.084900,-0.975403,2.134146,1.951220,3.109756
1548438768105,-0.109314,0.064819,-0.980225,2.560976,1.707317,3.597561
1548438768111,-0.110352,0.058289,-0.998779,0.853659,0.914634,2.926829
1548438768120,-0.110535,0.067322,-0.992737,-0.182927,0.060976,1.768293
1548438768136,-0.111511,0.075928,-0.994690,0.548781,-0.670732,1.158537
1548438768142,-0.108154,0.063416,-1.023987,-5.000000,-1.158537,0.121951
1548438768148,-0.111084,0.077271,-1.019287,-10.243902,-1.158537,-1.402439
1548438768165,-0.118408,0.104126,-1.000488,-7.743903,-0.487805,-1.768293
1548438768180,-0.120544,0.121826,-0.978699,-0.548781,0.365854,-0.731707
1548438768180,-0.116394,0.110535,-0.990845,5.121951,0.060976,1.829268
1548438768214,-0.106323,0.080383,-1.017334,3.109756,-0.731707,2.500000
1548438768214,-0.110474,0.075928,-1.015747,1.585366,-0.487805,1.646341
1548438768214,-0.114258,0.074341,-0.998352,6.158537,0.487805,2.256098
1548438768223,-0.111511,0.068970,-0.989807,11.768293,0.975610,2.865854
1548438768230,-0.110229,0.073608,-1.004395,12.804878,0.731707,1.768293
1548438768238,-0.109131,0.075073,-1.009888,11.158537,0.609756,0.853659
1548438768255,-0.106384,0.082031,-0.999329,11.707317,0.914634,1.097561
1548438768261,-0.107666,0.088562,-1.002380,10.243902,1.219512,0.975610
1548438768270,-0.106750,0.085144,-1.010742,9.268292,1.097561,1.707317
1548438768283,-0.109314,0.069641,-1.015564,9.695122,0.853659,3.170732
1548438768291,-0.117371,0.059875,-0.999573,11.951220,1.463415,3.780488
1548438768298,-0.113159,0.066040,-0.984131,12.134147,1.646341,2.926829
1548438768313,-0.114929,0.083984,-0.980530,8.597561,0.609756,1.890244
1548438768321,-0.111084,0.074402,-0.999939,4.573171,-0.731707,2.134146
1548438768328,-0.109192,0.072083,-1.007629,4.268293,-0.487805,1.463415
1548438768343,-0.108337,0.071655,-1.003967,6.524390,0.243902,1.097561
1548438768350,-0.102844,0.063965,-1.003052,7.560976,0.365854,0.975610
1548438768358,-0.104248,0.063904,-0.991638,6.646342,0.426829,0.731707
1548438768373,-0.103699,0.070190,-0.991028,2.439024,-0.060976,0.731707
1548438768381,-0.107361,0.064514,-0.989807,-2.743902,-0.792683,0.487805
1548438768388,-0.105164,0.058838,-0.993774,-5.060976,-1.097561,0.426829
1548438768405,-0.108154,0.054932,-0.999207,-3.414634,-1.524390,0.731707
1548438768410,-0.109009,0.058167,-1.005798,-3.597561,-2.012195,0.792683
1548438768418,-0.113525,0.056458,-1.007019,-2.317073,-2.682927,0.670732
1548438768433,-0.106079,0.063904,-1.009766,-1.097561,-2.865854,0.426829
1548438768440,-0.112915,0.081909,-0.998840,-2.804878,-3.231707,-0.548781
1548438768448,-0.109741,0.075867,-1.002991,-2.560976,-3.170732,-0.182927
1548438768463,-0.107971,0.063599,-1.012573,2.012195,-2.987805,1.768293
1548438768470,-0.112549,0.062439,-1.011292,0.731707,-2.317073,1.768293
1548438768478,-0.116455,0.056519,-1.017090,0.975610,-1.463415,1.280488
1548438768501,-0.115417,0.066772,-0.992065,3.536585,-0.792683,1.402439
1548438768503,-0.113342,0.080750,-0.987732,6.463415,-0.670732,1.951220
1548438768516,-0.112610,0.071167,-0.993652,4.573171,-1.341463,2.134146
1548438768549,-0.105408,0.069824,-0.991272,4.939024,-1.585366,1.951220
1548438768549,-0.106750,0.067078,-0.996582,4.390244,-1.951220,1.402439
1548438768550,-0.108215,0.069031,-0.994385,-1.280488,-2.134146,0.853659
1548438768554,-0.109009,0.078003,-0.990723,-4.939024,-2.682927,0.792683
1548438768561,-0.107788,0.074463,-1.003174,-9.085366,-3.231707,0.853659
1548438768571,-0.112122,0.070251,-1.002747,-7.865854,-3.292683,1.219512
1548438768583,-0.114075,0.078125,-0.990417,-5.426829,-2.743902,1.707317
1548438768592,-0.113586,0.077026,-1.002930,-3.475610,-2.743902,2.256098
1548438768598,-0.112976,0.060852,-1.037842,-4.207317,-3.170732,2.682927
1548438768613,-0.112427,0.056274,-1.043152,-2.804878,-2.134146,2.865854
1548438768621,-0.111267,0.059814,-1.018250,2.926829,-0.365854,3.597561
1548438768628,-0.114197,0.051880,-1.008240,11.341464,1.524390,4.512195
1548438768644,-0.118103,0.041138,-1.002319,17.500000,2.621951,4.634146
1548438768650,-0.117310,0.027832,-0.997559,18.109756,2.987805,3.902439
1548438768658,-0.128235,0.058044,-0.979858,17.804878,2.439024,2.012195
1548438768673,-0.109924,0.063416,-0.993103,14.939025,1.097561,-0.060976
1548438768681,-0.112000,0.072754,-0.982849,11.768293,-0.426829,-0.487805
1548438768689,-0.114014,0.076294,-0.987366,3.963415,-1.341463,0.426829
1548438768703,-0.103088,0.068298,-1.003296,-0.609756,-2.256098,0.853659
1548438768710,-0.102051,0.061646,-0.997620,0.243902,-2.804878,2.195122
1548438768718,-0.105103,0.060974,-0.997986,-3.109756,-2.621951,2.134146
1548438768733,-0.108215,0.066711,-1.004089,-6.463415,-2.560976,1.097561
1548438768740,-0.115723,0.070496,-1.006348,-5.304878,-2.378049,1.219512
1548438768748,-0.114624,0.057434,-1.017212,-4.085366,-1.890244,1.036585
1548438768763,-0.109253,0.051575,-1.014709,-5.243903,-1.524390,0.731707
1548438768771,-0.114624,0.051819,-0.999023,-6.768293,-0.914634,0.000000
1548438768778,-0.114258,0.040527,-0.998901,-4.268293,-0.243902,-0.243902
1548438768793,-0.108093,0.045227,-1.009766,1.402439,-0.731707,0.365854
1548438768800,-0.113281,0.060913,-1.000671,5.304878,-1.463415,0.914634
1548438768808,-0.111572,0.067810,-0.997498,4.817073,-1.402439,1.097561
1548438768823,-0.111450,0.061707,-0.994507,3.414634,-1.463415,1.524390
1548438768830,-0.114563,0.063049,-0.990112,2.012195,-1.585366,1.341463
1548438768838,-0.116028,0.061157,-1.004456,-0.792683,-1.951220,1.097561
1548438768853,-0.114075,0.070862,-1.022156,-1.402439,-2.195122,0.609756
1548438768860,-0.114502,0.076172,-1.020752,1.585366,-2.073171,1.097561
1548438768869,-0.113403,0.067139,-0.995361,4.024390,-0.853659,1.829268
1548438768883,-0.107849,0.055176,-0.981995,3.048780,-0.060976,1.890244
1548438768891,-0.110474,0.050476,-0.993530,-2.682927,-0.243902,0.853659
1548438768898,-0.109497,0.039978,-1.006104,-3.658537,-0.670732,-0.060976
1548438768913,-0.114563,0.053894,-1.004883,-2.195122,-0.792683,-0.792683
1548438768923,-0.118713,0.059448,-1.012329,-1.585366,-1.036585,-1.402439
1548438768928,-0.122498,0.047302,-1.014832,-0.426829,-0.975610,-0.853659
1548438768943,-0.118591,0.050293,-1.006409,2.865854,-0.609756,0.243902
1548438768951,-0.113342,0.071228,-0.995056,3.963415,-0.609756,0.670732
1548438768959,-0.110779,0.062439,-0.998596,1.646341,-0.487805,0.792683
1548438768975,-0.104736,0.054504,-1.011230,-0.792683,-0.426829,0.609756
1548438768981,-0.105774,0.065308,-1.002747,0.670732,-0.365854,0.670732
1548438768988,-0.113586,0.069580,-0.988953,2.256098,-0.060976,0.670732
1548438769004,-0.114075,0.054932,-0.993103,2.195122,-0.365854,0.670732
1548438769011,-0.113953,0.057129,-1.001099,2.012195,-1.036585,0.304878
1548438769019,-0.116211,0.068115,-1.002625,0.792683,-1.280488,-0.731707
1548438769033,-0.113831,0.061157,-1.005432,-0.487805,-1.097561,-0.853659
1548438769041,-0.111633,0.058716,-1.005676,-1.951220,-0.853659,-0.304878
1548438769050,-0.107666,0.047058,-1.016052,-0.975610,-0.792683,0.548781
1548438769063,-0.108521,0.053955,-1.010376,-1.829268,-0.670732,0.548781
1548438769071,-0.112793,0.058716,-0.997070,-1.707317,-0.304878,0.243902
1548438769078,-0.110168,0.052856,-0.995789,-0.121951,-0.121951,0.670732
1548438769094,-0.116699,0.051697,-1.003479,-0.121951,-0.609756,0.609756
1548438769101,-0.114502,0.060120,-1.011353,-1.463415,-0.792683,-0.182927
1548438769108,-0.117371,0.065796,-1.006531,0.243902,-0.792683,-0.731707
1548438769123,-0.112061,0.059937,-0.997375,1.890244,-0.548781,-0.487805
1548438769131,-0.111450,0.050415,-1.000366,2.439024,-0.548781,0.182927
1548438769142,-0.110901,0.045898,-1.002991,1.280488,-0.365854,0.182927
1548438769153,-0.109192,0.072083,-0.988220,3.048780,-0.548781,-0.121951
1548438769161,-0.112610,0.075806,-1.002991,2.560976,-0.975610,-0.365854
1548438769168,-0.109924,0.057495,-1.017273,-0.914634,-1.341463,-0.243902
1548438769184,-0.109436,0.058105,-1.009033,-0.792683,-0.853659,0.182927
1548438769192,-0.112732,0.060852,-0.994019,-1.402439,-0.365854,0.304878
1548438769198,-0.108765,0.057922,-0.991943,-1.646341,-0.304878,0.243902
1548438769213,-0.111267,0.059143,-0.999390,-1.951220,-0.609756,0.304878
1548438769221,-0.115479,0.061401,-1.003601,-1.524390,-0.914634,0.487805
1548438769229,-0.112854,0.057617,-1.016479,-1.158537,-1.463415,1.097561
1548438769244,-0.114746,0.058960,-1.006287,-0.670732,-1.402439,1.158537
1548438769254,-0.112671,0.058350,-0.997437,1.402439,-0.731707,1.585366
1548438769258,-0.112793,0.051880,-0.996094,1.219512,-0.731707,1.951220
1548438769275,-0.115540,0.058228,-0.995667,1.890244,-0.792683,1.768293
1548438769280,-0.118225,0.068054,-0.998596,1.524390,-1.097561,1.585366
1548438769288,-0.114685,0.063965,-1.005432,-2.439024,-1.402439,1.341463
1548438769303,-0.106934,0.057922,-1.001404,-4.756098,-1.463415,1.280488
1548438769311,-0.104980,0.047668,-1.007080,-6.463415,-1.280488,0.487805
1548438769318,-0.104431,0.061707,-1.010803,-7.012195,-1.219512,-0.731707
1548438769333,-0.108887,0.080261,-1.002014,-3.048780,-1.219512,-1.036585
1548438769343,-0.108032,0.077271,-1.001587,1.646341,-0.731707,-0.426829
1548438769348,-0.106995,0.066284,-0.995239,2.560976,-0.792683,0.487805
1548438769363,-0.111084,0.061523,-1.005981,0.060976,-0.975610,0.792683
1548438769372,-0.115356,0.065125,-1.012085,-1.036585,-1.158537,0.670732
1548438769378,-0.115601,0.068176,-1.001282,0.426829,-1.036585,0.426829
1548438769394,-0.115784,0.054199,-0.999817,0.609756,-0.609756,0.426829
1548438769400,-0.111206,0.054565,-0.998047,-1.585366,-0.426829,0.487805
1548438769408,-0.109680,0.067322,-0.992798,-0.792683,-0.975610,0.914634
1548438769425,-0.112854,0.069946,-0.999146,-2.195122,-1.402439,0.975610
1548438769430,-0.113037,0.063721,-1.001282,-7.560976,-1.524390,0.182927
1548438769438,-0.112061,0.058533,-1.003845,-8.475610,-1.463415,0.000000
1548438769455,-0.108215,0.065918,-1.006958,-5.243903,-1.402439,0.182927
1548438769461,-0.112732,0.074524,-1.005249,-1.341463,-1.341463,0.121951
1548438769468,-0.115479,0.078064,-1.005615,-0.853659,-1.280488,0.060976
1548438769484,-0.114685,0.061707,-1.014893,-0.243902,-1.036585,0.731707
1548438769491,-0.111511,0.061890,-1.017334,0.792683,-0.731707,0.853659
1548438769499,-0.109802,0.070007,-1.013367,4.329268,0.000000,0.243902
1548438769514,-0.109619,0.063904,-0.998779,7.804878,0.670732,0.487805
1548438769520,-0.104858,0.060181,-0.991272,8.963415,1.036585,0.609756
1548438769528,-0.110352,0.065491,-0.993408,4.512195,0.426829,-0.243902
1548438769543,-0.113708,0.072021,-1.003174,0.670732,-0.060976,-0.731707
1548438769551,-0.115723,0.063782,-1.006104,2.621951,-0.365854,0.182927
1548438769558,-0.115295,0.059692,-1.000977,3.292683,-0.182927,0.792683
1548438769573,-0.114197,0.063416,-0.994751,0.853659,-0.121951,0.548781
1548438769581,-0.110291,0.062500,-0.999084,0.487805,-0.121951,0.000000
1548438769589,-0.107910,0.060059,-1.005737,0.426829,-0.182927,-0.060976
1548438769604,-0.110291,0.062378,-1.004211,1.463415,-0.243902,-0.182927
1548438769611,-0.110046,0.062683,-0.999573,2.317073,-0.304878,0.121951
1548438769618,-0.109497,0.062012,-0.992004,1.402439,-0.304878,0.243902
1548438769634,-0.109619,0.059937,-0.996521,-0.853659,-0.609756,0.548781
1548438769644,-0.109192,0.063965,-0.998718,-2.682927,-1.219512,0.670732
1548438769648,-0.104004,0.064880,-1.008118,-1.402439,-1.646341,1.402439
1548438769663,-0.103577,0.059204,-1.013977,-0.731707,-1.585366,1.402439
1548438769673,-0.104370,0.062256,-1.007446,-1.829268,-1.219512,1.097561
1548438769678,-0.110474,0.063110,-0.993652,-1.585366,-0.975610,0.914634
1548438769693,-0.109802,0.065369,-0.985779,-1.341463,-1.463415,1.036585
1548438769701,-0.116821,0.070801,-0.991089,-1.768293,-2.073171,0.853659
1548438769712,-0.117737,0.084595,-1.008423,-2.073171,-2.500000,0.243902
1548438769723,-0.119629,0.077271,-1.025696,-0.792683,-2.682927,0.731707
1548438769731,-0.118103,0.075073,-1.013855,1.219512,-1.646341,0.975610
1548438769738,-0.112366,0.070557,-1.003479,1.768293,-0.731707,1.402439
1548438769785,-0.105286,0.054993,-1.004822,-0.182927,-0.487805,1.036585
1548438769794,-0.102844,0.051941,-0.995789,3.658537,-0.060976,0.914634
1548438769795,-0.101807,0.049072,-1.006897,7.073171,0.121951,1.158537
1548438769795,-0.099243,0.054871,-1.000244,8.231708,0.060976,-0.060976
1548438769795,-0.102600,0.053223,-0.994080,11.280488,0.060976,-1.402439
1548438769799,-0.119385,0.041931,-1.010132,13.963415,0.548781,-4.451220
1548438769875,-0.120544,0.052856,-1.010437,15.670732,0.487805,-6.829268
1548438769876,-0.120300,0.062988,-1.000061,15.548780,-0.243902,-3.963415
1548438769876,-0.121948,0.064880,-1.006165,12.804878,-0.365854,-2.926829
1548438769876,-0.123474,0.059631,-1.004517,6.768293,-0.060976,-2.926829
1548438769876,-0.120483,0.055969,-0.990845,5.914634,-0.182927,-1.768293
1548438769877,-0.119934,0.047241,-0.997192,4.878049,-0.365854,-0.670732
1548438769877,-0.114685,0.044128,-1.014648,-1.402439,-0.487805,-0.731707
1548438769883,-0.111694,0.049377,-1.005493,-3.780488,-0.731707,-0.853659
1548438769889,-0.108276,0.044128,-0.992065,-7.012195,-0.487805,-1.036585
1548438769906,-0.098877,0.032654,-0.996582,-10.853659,-0.792683,-0.792683
1548438769911,-0.096375,0.033264,-0.999512,-9.939025,-1.402439,0.121951
1548438769948,-0.099060,0.057556,-0.993896,-8.292683,-1.829268,-0.609756
1548438769955,-0.104919,0.070374,-0.995422,-9.451220,-2.317073,-1.463415
1548438769955,-0.107117,0.062012,-1.019958,-9.085366,-2.560976,-1.402439
1548438769955,-0.111145,0.062378,-1.024902,-7.195122,-2.256098,-1.219512
1548438769968,-0.113708,0.074646,-1.008911,-1.951220,-1.341463,-0.609756
1548438769971,-0.117065,0.077576,-0.983826,1.341463,-0.670732,0.121951
1548438769978,-0.114990,0.056091,-0.999084,1.036585,-0.243902,0.914634
1548438769993,-0.113342,0.045349,-1.015137,-1.463415,-0.182927,0.548781
1548438770001,-0.111877,0.054688,-1.005615,2.439024,0.060976,0.426829
1548438770009,-0.113281,0.068481,-0.993713,3.841464,-0.060976,0.487805
1548438770023,-0.112000,0.059265,-0.995239,1.097561,-0.243902,0.182927
1548438770031,-0.110229,0.047729,-1.005615,-3.414634,-0.487805,-0.121951
1548438770039,-0.111572,0.044434,-1.010010,-2.012195,-0.670732,0.182927
1548438770053,-0.108154,0.054993,-1.006409,2.500000,-0.609756,0.609756
1548438770061,-0.109680,0.064453,-1.002014,6.707317,-0.609756,0.548781
1548438770068,-0.112488,0.060852,-1.002625,5.365854,-0.487805,0.121951
1548438770083,-0.111511,0.062012,-0.999451,4.573171,-0.182927,-0.365854
1548438770091,-0.109619,0.061462,-0.999268,5.914634,-0.060976,-0.304878
1548438770098,-0.105408,0.055420,-1.007751,4.024390,0.121951,-0.670732
1548438770115,-0.104431,0.052734,-1.012146,4.085366,0.243902,-0.365854
1548438770122,-0.107483,0.057556,-0.990234,8.597561,0.731707,0.670732
1548438770129,-0.104004,0.048401,-0.986511,8.231708,0.487805,0.853659
1548438770144,-0.106812,0.039551,-0.998474,4.451220,-0.304878,-0.304878
1548438770151,-0.109009,0.048828,-1.003601,5.670732,-0.853659,-1.280488
1548438770158,-0.110901,0.056152,-1.000183,2.987805,-1.158537,-2.012195
1548438770174,-0.114990,0.048706,-1.009888,0.182927,-1.280488,-2.256098
1548438770193,-0.115417,0.035706,-1.013489,-0.670732,-1.402439,-1.890244
1548438770197,-0.114990,0.040955,-1.016235,-1.036585,-1.158537,-0.731707
1548438770205,-0.113586,0.059937,-1.003540,-0.243902,-1.036585,-0.243902
1548438770217,-0.112854,0.053162,-1.000793,-1.646341,-1.036585,-0.121951
1548438770219,-0.108032,0.045227,-1.000977,-3.353659,-0.914634,0.182927
1548438770234,-0.108521,0.048889,-1.001465,-3.048780,-0.792683,0.487805
1548438770241,-0.111206,0.058777,-1.001282,-3.475610,-0.670732,0.000000
1548438770253,-0.111450,0.063232,-0.999023,-0.853659,-0.426829,0.060976
1548438770264,-0.108398,0.061523,-1.006470,-0.609756,-0.548781,0.792683
1548438770271,-0.106384,0.050537,-1.013672,-1.402439,-0.670732,1.158537
1548438770278,-0.107300,0.049927,-1.010620,-0.365854,-0.304878,1.280488
1548438770294,-0.105896,0.051208,-1.002441,2.682927,0.243902,1.524390
1548438770322,-0.105347,0.043518,-0.998657,3.841464,0.670732,1.280488
1548438770322,-0.101868,0.041077,-1.004211,4.390244,0.609756,0.548781
1548438770323,-0.103210,0.045715,-1.005615,4.756098,0.243902,-0.304878
1548438770331,-0.106140,0.049438,-0.997131,5.121951,0.426829,-0.853659
1548438770339,-0.106201,0.049072,-0.996399,3.902439,0.548781,-1.829268
1548438770362,-0.112549,0.050781,-0.998169,0.182927,0.548781,-3.597561
1548438770363,-0.116760,0.061401,-1.013550,0.731707,0.609756,-4.451220
1548438770370,-0.112915,0.067444,-1.031250,4.817073,0.487805,-3.597561
1548438770390,-0.115173,0.076721,-0.999939,3.536585,0.548781,-2.378049
1548438770392,-0.112854,0.056030,-0.984009,2.317073,0.365854,-2.073171
1548438770399,-0.102478,0.030457,-1.002563,-4.146341,-0.182927,-1.463415
1548438770414,-0.098694,0.019165,-1.010071,-2.560976,-0.365854,0.609756
1548438770423,-0.102356,0.034973,-1.005676,1.951220,-0.121951,-0.365854
1548438770429,-0.108154,0.043213,-0.996643,5.121951,0.060976,-1.463415
1548438770466,-0.107056,0.048157,-0.989990,4.878049,0.060976,-1.707317
1548438770467,-0.109070,0.051208,-0.992310,1.829268,-0.304878,-0.975610
1548438770467,-0.112122,0.049011,-1.006348,-2.439024,-0.914634,-1.097561
1548438770473,-0.111145,0.040649,-1.016968,-2.804878,-1.402439,-0.548781
1548438770481,-0.112061,0.049072,-1.007080,0.365854,-1.402439,0.060976
1548438770490,-0.107056,0.049133,-1.013855,2.195122,-1.036585,0.060976
1548438770504,-0.104614,0.041809,-1.010315,0.975610,-0.853659,-0.365854
1548438770511,-0.105225,0.044495,-0.991089,3.048780,-0.426829,-0.182927
1548438770518,-0.107422,0.045471,-0.996399,0.914634,-0.609756,-0.670732
1548438770534,-0.104980,0.048767,-1.009949,-3.170732,-1.097561,-1.707317
1548438770547,-0.104065,0.044189,-1.012512,-3.109756,-1.707317,-0.853659
1548438770549,-0.100525,0.037903,-1.010925,-1.402439,-1.707317,0.548781
1548438770566,-0.102234,0.039856,-0.997681,-1.768293,-1.280488,0.670732
1548438770579,-0.102295,0.044495,-0.986755,-0.365854,-0.914634,0.731707
1548438770588,-0.109619,0.045471,-0.998230,3.048780,-1.097561,0.853659
1548438770593,-0.115356,0.047791,-1.012695,-0.548781,-1.341463,-0.243902
1548438770601,-0.118652,0.051331,-1.017883,-0.853659,-1.463415,-1.219512
1548438770613,-0.120300,0.055481,-1.011414,-1.280488,-1.402439,-1.463415
1548438770626,-0.117188,0.056152,-1.004883,-0.731707,-0.975610,-1.280488
1548438770631,-0.111389,0.053528,-1.009644,1.280488,-0.670732,-0.426829
1548438770639,-0.108826,0.054138,-0.998291,5.000000,-0.243902,0.365854
1548438770654,-0.100647,0.044312,-1.002136,7.804878,-0.365854,1.402439
1548438770663,-0.096802,0.034790,-1.000671,8.719512,-0.487805,1.524390
1548438770668,-0.093933,0.037231,-1.000122,12.621951,-0.182927,1.036585
1548438770683,-0.099548,0.044006,-0.998352,9.817074,-0.182927,-0.853659
1548438770692,-0.105530,0.047913,-0.993103,7.439024,0.182927,-3.109756
1548438770698,-0.105530,0.054504,-0.987000,8.475610,-0.365854,-3.231707
1548438770714,-0.106201,0.050476,-0.993958,7.500000,-1.036585,-3.048780
1548438770721,-0.107178,0.034180,-1.007751,5.731708,-1.585366,-3.414634
1548438770728,-0.105957,0.029602,-1.007812,6.402439,-1.951220,-2.621951
1548438770743,-0.108215,0.027039,-0.999084,6.219512,-2.195122,-1.463415
1548438770751,-0.107239,0.016113,-0.998535,1.158537,-2.865854,-1.524390
1548438770759,-0.106018,0.008423,-1.007324,-0.975610,-3.902439,-1.402439
1548438770774,-0.113464,0.020630,-0.999023,-0.487805,-4.939024,-1.524390
1548438770780,-0.117065,0.042358,-1.006653,-3.902439,-5.853659,-2.682927
1548438770789,-0.117188,0.043884,-1.014465,-2.134146,-6.646342,-2.073171
1548438770808,-0.114624,0.036133,-1.013550,-1.768293,-6.890244,-1.219512
1548438770811,-0.120789,0.042725,-0.991272,-3.048780,-6.219512,-0.853659
1548438770818,-0.117859,0.048645,-1.003052,1.341463,-6.341464,0.060976
1548438770834,-0.118958,0.043579,-1.028687,1.158537,-7.195122,-0.609756
1548438770844,-0.114075,0.035156,-1.033569,-1.951220,-6.829268,-2.378049
1548438770848,-0.114258,0.036255,-1.012390,1.097561,-5.731708,-2.621951
1548438770863,-0.111694,0.020935,-0.997559,3.475610,-5.365854,-2.621951
1548438770872,-0.111206,0.009155,-1.002319,1.341463,-5.487805,-2.439024
1548438770878,-0.112305,0.008545,-1.005737,4.146341,-5.487805,-1.036585
1548438770893,-0.116882,0.015442,-1.000366,7.682927,-6.036585,-0.426829
1548438770901,-0.125916,0.024170,-0.990173,7.073171,-6.585366,-0.853659
1548438770909,-0.129272,0.031738,-0.986084,2.987805,-7.317073,-1.524390
1548438770931,-0.126831,0.030701,-1.003357,-2.195122,-8.292683,-1.890244
1548438770931,-0.128540,0.029968,-1.003906,-5.548780,-8.963415,-1.890244
1548438770939,-0.127625,0.030762,-0.995483,-4.817073,-8.902439,-1.768293
1548438770955,-0.143372,0.041077,-0.969727,-6.402439,-8.719512,-2.073171
1548438770961,-0.139526,0.056702,-0.997131,-5.914634,-8.963415,-2.012195
1548438770969,-0.138916,0.052551,-1.026733,-1.280488,-10.426829,-1.036585
1548438770984,-0.148804,0.061218,-1.004761,-1.280488,-10.060976,-0.792683
1548438770991,-0.147339,0.046692,-1.019043,3.902439,-9.695122,0.853659
1548438770998,-0.145386,0.036743,-1.013855,4.268293,-9.512196,1.341463
1548438771013,-0.138367,0.014282,-1.026611,4.146341,-9.207317,1.219512
1548438771023,-0.138123,0.010498,-1.011597,1.707317,-8.658537,0.548781
1548438771028,-0.136230,0.013794,-0.986694,6.158537,-7.500000,0.121951
1548438771044,-0.127625,0.015747,-0.975647,9.512196,-7.500000,0.182927
1548438771051,-0.130859,0.012451,-0.978394,8.597561,-8.780488,-0.548781
1548438771060,-0.138245,0.025574,-0.971741,3.353659,-10.304878,-2.256098
1548438771074,-0.140381,0.031921,-0.987366,1.036585,-12.256098,-2.804878
1548438771081,-0.149414,0.036560,-1.000488,-2.804878,-14.390244,-3.597561
1548438771089,-0.150696,0.040894,-1.016968,-2.378049,-15.548780,-3.170732
1548438771104,-0.154114,0.037781,-1.008911,-0.182927,-15.609756,-1.951220
1548438771111,-0.147888,0.036560,-0.984436,2.134146,-15.304878,-0.548781
1548438771118,-0.145447,0.015137,-0.981812,1.585366,-15.548780,0.060976
1548438771134,-0.145142,0.008057,-0.979187,-1.890244,-16.280489,-1.036585
1548438771141,-0.150757,0.020691,-0.969238,-0.121951,-17.500000,-2.012195
1548438771148,-0.162659,0.031555,-0.967529,0.182927,-18.963415,-3.536585
1548438771163,-0.171387,0.037659,-0.953247,0.365854,-21.036587,-5.000000
1548438771171,-0.172119,0.017761,-0.981873,-2.743902,-24.756098,-6.463415
1548438771178,-0.184631,0.017822,-1.015808,-9.817074,-29.085367,-9.512196
1548438771195,-0.193665,0.014832,-1.036621,-9.390244,-31.829269,-10.365854
1548438771201,-0.195923,-0.002625,-1.045227,-7.195122,-33.353661,-9.634147
1548438771208,-0.208374,0.005432,-1.026733,-8.414635,-34.329269,-10.060976
1548438771224,-0.219360,0.024170,-0.986572,-3.109756,-35.000000,-12.621951
1548438771231,-0.227295,0.033203,-0.967224,5.914634,-36.890244,-15.487805
1548438771239,-0.238586,0.024658,-0.966797,8.048780,-40.121952,-17.743902
1548438771253,-0.241638,0.025574,-0.952087,14.817074,-43.597561,-18.658537
1548438771261,-0.248718,0.037170,-0.964233,21.097561,-47.439026,-18.780489
1548438771268,-0.268921,0.051636,-0.985657,11.219512,-51.280491,-21.097561
1548438771283,-0.277588,0.031860,-0.948608,4.451220,-54.207317,-22.317074
1548438771291,-0.274963,-0.020020,-0.930908,-4.817073,-58.902439,-23.841463
1548438771298,-0.281250,-0.039673,-0.923279,-20.304878,-63.536587,-24.695122
1548438771313,-0.307495,-0.063782,-0.951355,-37.317074,-70.304878,-27.134148
1548438771321,-0.332336,-0.028625,-0.992432,-47.987804,-76.463417,-30.975611
1548438771328,-0.358276,0.033386,-1.016602,-32.682926,-79.573174,-31.463415
1548438771344,-0.381592,0.062988,-1.054626,-21.219513,-82.134148,-31.768293
1548438771351,-0.409790,0.117615,-1.053345,-12.621951,-82.195122,-29.451220
1548438771359,-0.428772,0.116394,-1.036865,-1.585366,-80.975609,-24.329269
1548438771373,-0.426208,0.119690,-1.026855,-5.731708,-80.914635,-18.902439
1548438771381,-0.442566,0.106750,-0.963196,-7.621952,-80.243904,-16.646341
1548438771388,-0.450989,0.072876,-0.935852,-10.487805,-77.500000,-21.585367
1548438771404,-0.448608,0.054382,-0.921204,-17.743902,-79.939026,-20.731709
1548438771411,-0.448486,0.044312,-0.879822,-11.219512,-82.865852,-17.865854
1548438771418,-0.443848,-0.016663,-0.901489,-13.475610,-84.939026,-22.621952
1548438771433,-0.457764,0.005066,-0.901672,-16.585365,-87.682930,-28.658537
1548438771441,-0.460205,0.002319,-0.908569,3.536585,-88.597565,-26.402439
1548438771448,-0.455627,-0.009705,-1.000122,10.853659,-88.597565,-28.353659
1548438771463,-0.501709,0.040588,-1.014832,16.280489,-86.158539,-29.329269
1548438771471,-0.525818,0.070312,-0.990601,18.536585,-82.865852,-22.621952
1548438771478,-0.529724,0.055969,-0.987305,4.634146,-83.719513,-11.341464
1548438771493,-0.556824,0.026611,-0.894775,3.536585,-82.560974,-2.804878
1548438771501,-0.567932,-0.009460,-0.814087,-0.182927,-81.036591,0.365854
1548438771508,-0.582581,-0.024902,-0.771790,-9.390244,-82.865852,-1.890244
1548438771523,-0.587158,-0.027710,-0.796692,-10.975610,-87.134148,-6.585366
1548438771531,-0.603943,0.011597,-0.844238,1.463415,-91.463417,-8.963415
1548438771538,-0.622070,0.032898,-0.849915,19.756098,-91.097565,-8.902439
1548438771553,-0.621521,0.027466,-0.880920,9.207317,-89.939026,-15.365854
1548438771560,-0.643311,0.048828,-0.859680,2.500000,-87.134148,-18.902439
1548438771568,-0.655762,0.050720,-0.826477,5.426829,-84.085365,-15.243903
1548438771583,-0.661987,0.067688,-0.818237,-4.268293,-86.036591,-8.475610
1548438771590,-0.678101,0.081299,-0.809570,-1.829268,-87.926834,1.036585
1548438771598,-0.707214,0.062500,-0.742615,-6.158537,-88.597565,9.024390
1548438771613,-0.703979,0.053833,-0.705078,-19.390244,-91.219513,14.939025
1548438771621,-0.697815,0.018005,-0.694824,-35.609756,-94.756104,13.841464
1548438771630,-0.709961,-0.002747,-0.711609,-53.658539,-96.707321,7.317073
1548438771643,-0.686768,0.005066,-0.755737,-55.975613,-97.987808,1.951220
1548438771650,-0.704895,0.021790,-0.764771,-39.268295,-97.743904,-3.658537
1548438771658,-0.735107,0.045044,-0.757629,-39.146343,-93.597565,-9.207317
1548438771674,-0.742432,0.072632,-0.703796,-28.231709,-88.658539,-10.365854
1548438771681,-0.754211,0.077515,-0.655090,-11.707317,-85.365852,-10.853659
1548438771688,-0.766174,0.062195,-0.629089,-19.085367,-85.548782,-13.292684
1548438771703,-0.782715,0.093628,-0.646240,-22.439024,-87.987808,-14.512196
1548438771711,-0.797607,0.120178,-0.681763,-24.939026,-92.682930,-10.304878
1548438771718,-0.832458,0.118408,-0.679688,-34.695122,-95.487808,-6.707317
1548438771733,-0.840454,0.105042,-0.654663,-38.414635,-95.670731,-2.256098
1548438771741,-0.829590,0.072632,-0.665161,-46.890244,-97.012199,1.585366
1548438771748,-0.838806,0.041504,-0.679016,-59.939026,-97.865852,0.487805
1548438771763,-0.848938,0.034119,-0.640686,-53.414635,-93.902443,-1.951220
1548438771771,-0.860718,0.031006,-0.597961,-41.158539,-89.573174,-3.597561
1548438771778,-0.870178,0.046326,-0.547913,-39.024391,-87.134148,-6.219512
1548438771793,-0.880432,0.055359,-0.500916,-16.707317,-84.146347,-7.743903
1548438771801,-0.892517,0.050171,-0.493713,-5.304878,-83.109756,-10.121951
1548438771808,-0.893921,0.105835,-0.549255,3.109756,-84.390244,-10.731708
1548438771823,-0.899292,0.147888,-0.611877,9.146341,-86.280487,-5.792683
1548438771831,-0.919495,0.158752,-0.583801,-10.670732,-85.731712,-1.768293
1548438771838,-0.944580,0.140259,-0.441711,-6.951220,-81.890244,6.585366
1548438771853,-0.948608,0.079529,-0.360352,-9.390244,-81.036591,11.097561
1548438771860,-0.936096,0.038818,-0.354187,-45.243904,-85.609756,6.280488
1548438771868,-0.918335,0.042175,-0.408813,-48.536587,-90.792686,1.524390
1548438771883,-0.912964,0.033386,-0.448730,-26.646341,-90.548782,-5.975610
1548438771891,-0.920715,0.044800,-0.458557,-13.841464,-86.097565,-16.585365
1548438771898,-0.934265,0.087402,-0.413635,6.036585,-81.097565,-19.573172
1548438771913,-0.947449,0.121277,-0.380493,21.219513,-77.073174,-20.731709
1548438771922,-0.964539,0.146301,-0.379211,10.975610,-74.817078,-25.000000
1548438771928,-0.981995,0.156006,-0.364807,12.926829,-73.475609,-22.621952
1548438771944,-0.984497,0.128662,-0.341431,16.402439,-74.573174,-13.902439
1548438771951,-0.982361,0.073853,-0.307983,7.378049,-77.073174,-6.951220
1548438771958,-0.981262,0.044434,-0.259338,-1.768293,-80.121956,-0.914634
1548438771973,-0.973267,0.029724,-0.221191,5.426829,-82.987808,4.939024
