timestamp, accel_x, accel_y, accel_z, gyro_x, gyro_y, gyro_z
1548435786029,-0.283020,-0.695923,-0.683777,0.792683,-1.036585,0.609756
1548435786036,-0.285828,-0.700806,-0.692078,0.548781,-0.914634,0.487805
1548435786051,-0.285278,-0.698547,-0.690613,0.304878,-0.975610,0.609756
1548435786059,-0.286133,-0.698975,-0.686768,0.121951,-1.097561,0.548781
1548435786066,-0.287292,-0.700012,-0.690796,0.060976,-1.280488,0.487805
1548435786081,-0.285645,-0.700134,-0.693787,0.000000,-1.097561,0.426829
1548435786089,-0.286133,-0.703003,-0.695740,-0.182927,-0.975610,0.365854
1548435786096,-0.283569,-0.702332,-0.695923,-0.731707,-1.097561,0.548781
1548435786111,-0.281799,-0.699158,-0.697388,-0.792683,-1.097561,0.548781
1548435786119,-0.284180,-0.697144,-0.695618,-0.487805,-1.341463,0.670732
1548435786126,-0.282532,-0.695801,-0.698547,-0.487805,-1.585366,0.792683
1548435786141,-0.284668,-0.696716,-0.697021,-0.182927,-1.951220,0.731707
1548435786149,-0.287720,-0.701050,-0.692932,0.365854,-2.317073,0.792683
1548435786156,-0.288757,-0.699341,-0.688293,0.365854,-2.378049,0.853659
1548435786171,-0.290222,-0.704041,-0.686829,0.243902,-2.439024,0.853659
1548435786179,-0.288757,-0.701050,-0.686768,-0.182927,-2.134146,0.853659
1548435786186,-0.291260,-0.689575,-0.690796,-0.487805,-1.829268,0.914634
1548435786201,-0.287781,-0.691284,-0.693726,-1.097561,-1.646341,1.097561
1548435786209,-0.287048,-0.698547,-0.690552,-0.731707,-1.463415,0.792683
1548435786216,-0.286865,-0.700745,-0.692871,-0.182927,-1.463415,0.609756
1548435786231,-0.284119,-0.698730,-0.694458,-0.243902,-1.524390,0.609756
1548435786239,-0.285522,-0.697021,-0.696411,-0.243902,-1.585366,0.853659
1548435786246,-0.286499,-0.694824,-0.695435,-0.182927,-1.585366,0.853659
1548435786261,-0.289429,-0.694519,-0.693970,0.304878,-1.768293,0.853659
1548435786269,-0.292847,-0.694031,-0.691223,0.914634,-1.768293,0.914634
1548435786276,-0.296387,-0.696289,-0.689026,1.036585,-1.646341,0.792683
1548435786291,-0.294861,-0.698975,-0.685669,1.219512,-1.463415,0.914634
1548435786299,-0.294739,-0.699463,-0.687988,1.036585,-1.280488,0.975610
1548435786306,-0.292969,-0.696655,-0.690247,0.670732,-1.036585,0.975610
1548435786326,-0.291443,-0.698364,-0.689453,0.487805,-0.914634,1.036585
1548435786329,-0.286804,-0.695801,-0.694031,-0.243902,-0.731707,0.975610
1548435786336,-0.284424,-0.696350,-0.696899,-0.548781,-0.670732,0.792683
1548435786351,-0.283447,-0.700134,-0.698181,-0.548781,-0.914634,0.609756
1548435786361,-0.281189,-0.699524,-0.700562,-0.731707,-1.219512,0.670732
1548435786366,-0.281555,-0.698120,-0.701965,-0.731707,-1.707317,0.853659
1548435786381,-0.282043,-0.694458,-0.699097,-0.609756,-2.134146,1.097561
1548435786389,-0.285767,-0.698547,-0.695435,-0.426829,-2.560976,1.158537
1548435786396,-0.286743,-0.696106,-0.686829,0.000000,-2.743902,0.975610
1548435786411,-0.292542,-0.704895,-0.691040,0.487805,-2.926829,1.219512
1548435786419,-0.289673,-0.685181,-0.695618,0.548781,-2.621951,1.341463
1548435786426,-0.298218,-0.685486,-0.694031,0.304878,-2.256098,1.402439
1548435786441,-0.290833,-0.701050,-0.686829,0.853659,-2.500000,1.280488
1548435786449,-0.290527,-0.693848,-0.689392,1.402439,-2.439024,1.219512
1548435786456,-0.293274,-0.683105,-0.685791,0.853659,-2.012195,1.036585
1548435786471,-0.299255,-0.690491,-0.684998,0.609756,-1.646341,0.731707
1548435786479,-0.303955,-0.688293,-0.685852,1.097561,-1.402439,0.000000
1548435786486,-0.294861,-0.697571,-0.687256,1.097561,-1.219512,0.182927
1548435786501,-0.298523,-0.700378,-0.686584,1.280488,-1.097561,-0.060976
1548435786509,-0.285461,-0.682251,-0.688782,1.585366,-1.036585,-0.243902
1548435786516,-0.263916,-0.686279,-0.690125,1.341463,-0.731707,-0.182927
1548435786531,-0.313049,-0.694153,-0.691956,2.378049,-0.304878,-0.914634
1548435786539,-0.293640,-0.707886,-0.686829,3.292683,-0.243902,-0.914634
1548435786546,-0.287659,-0.710022,-0.696411,2.926829,-0.060976,-0.548781
1548435786561,-0.301758,-0.691772,-0.695740,2.865854,-0.243902,-0.243902
1548435786569,-0.299500,-0.696533,-0.686584,2.743902,-0.243902,0.121951
1548435786576,-0.292297,-0.702881,-0.688293,2.378049,-0.487805,0.060976
1548435786591,-0.290161,-0.705750,-0.690430,2.317073,-0.792683,0.121951
1548435786599,-0.295044,-0.702271,-0.686279,1.768293,-0.914634,0.000000
1548435786606,-0.286194,-0.703491,-0.691345,0.975610,-0.914634,0.060976
1548435786621,-0.285767,-0.690613,-0.698730,0.426829,-0.670732,0.121951
1548435786629,-0.288269,-0.695557,-0.695923,0.182927,-0.731707,0.182927
1548435786636,-0.285095,-0.701843,-0.693787,1.097561,-1.158537,0.121951
1548435786651,-0.288940,-0.698547,-0.689148,1.524390,-1.402439,0.121951
1548435786659,-0.293701,-0.698792,-0.686646,1.585366,-1.463415,0.243902
1548435786666,-0.293701,-0.708374,-0.683167,1.829268,-1.402439,0.426829
1548435786681,-0.293518,-0.693909,-0.687134,1.951220,-1.097561,0.487805
1548435786689,-0.298035,-0.694519,-0.685242,1.402439,-0.853659,0.548781
1548435786696,-0.294128,-0.705322,-0.679138,1.463415,-0.914634,0.182927
1548435786712,-0.296448,-0.704163,-0.687500,1.951220,-0.914634,0.182927
1548435786719,-0.299744,-0.692932,-0.691101,1.402439,-0.792683,0.182927
1548435786726,-0.299255,-0.700439,-0.688171,0.853659,-0.609756,0.060976
1548435786741,-0.298157,-0.698608,-0.683167,1.402439,-0.731707,-0.121951
1548435786749,-0.299194,-0.700439,-0.680847,1.585366,-0.609756,-0.182927
1548435786756,-0.294495,-0.703613,-0.683838,1.036585,-0.426829,-0.121951
1548435786771,-0.295532,-0.702332,-0.680786,0.792683,-0.304878,-0.304878
1548435786779,-0.292969,-0.698914,-0.682617,0.609756,0.000000,-0.304878
1548435786786,-0.291687,-0.699585,-0.681885,0.609756,0.243902,-0.304878
1548435786801,-0.292419,-0.700439,-0.689270,0.670732,0.365854,-0.365854
1548435786809,-0.289368,-0.699280,-0.689026,0.792683,0.426829,-0.304878
1548435786816,-0.288696,-0.700745,-0.687134,1.097561,0.426829,-0.304878
1548435786831,-0.289856,-0.700684,-0.687134,1.097561,0.304878,-0.365854
1548435786839,-0.290710,-0.699524,-0.690063,0.914634,0.304878,-0.426829
1548435786846,-0.291687,-0.702759,-0.688599,1.097561,0.060976,-0.426829
1548435786861,-0.290222,-0.705017,-0.688416,1.158537,-0.121951,-0.304878
1548435786869,-0.287903,-0.700806,-0.688232,0.792683,0.000000,-0.243902
1548435786876,-0.290710,-0.698242,-0.685852,0.914634,0.121951,-0.182927
1548435786891,-0.289734,-0.702148,-0.684570,1.158537,0.000000,-0.243902
1548435786899,-0.290039,-0.704834,-0.687805,0.914634,-0.182927,-0.182927
1548435786906,-0.290344,-0.701477,-0.685791,0.609756,-0.182927,-0.304878
1548435786929,-0.285339,-0.698853,-0.686157,0.243902,-0.243902,-0.365854
1548435786929,-0.285767,-0.700989,-0.688171,0.304878,-0.365854,-0.426829
1548435786936,-0.287659,-0.699768,-0.689392,0.426829,-0.487805,-0.426829
1548435786951,-0.286682,-0.700256,-0.690430,0.243902,-0.365854,-0.304878
1548435786959,-0.287109,-0.701721,-0.689270,0.548781,-0.365854,-0.243902
1548435786966,-0.290344,-0.703369,-0.687378,0.914634,-0.609756,-0.060976
1548435786981,-0.291077,-0.705627,-0.684387,0.975610,-0.548781,-0.060976
1548435786989,-0.289429,-0.699402,-0.684998,0.975610,-0.426829,-0.121951
1548435786996,-0.290466,-0.701172,-0.682251,0.731707,-0.304878,-0.060976
1548435787011,-0.290405,-0.702881,-0.682983,0.914634,-0.365854,-0.060976
1548435787019,-0.289001,-0.702026,-0.688293,1.036585,-0.121951,-0.182927
1548435787026,-0.286316,-0.702637,-0.690613,1.036585,0.000000,-0.243902
1548435787041,-0.286804,-0.701721,-0.691895,0.975610,-0.060976,-0.182927
1548435787049,-0.282837,-0.702820,-0.692627,1.341463,-0.243902,-0.121951
1548435787056,-0.284912,-0.704590,-0.690125,1.402439,-0.487805,-0.121951
1548435787071,-0.285828,-0.706299,-0.688477,1.402439,-0.731707,0.000000
1548435787079,-0.285889,-0.702148,-0.686035,1.341463,-1.036585,0.060976
1548435787086,-0.289062,-0.699585,-0.684326,1.219512,-1.097561,0.121951
1548435787101,-0.287720,-0.703552,-0.680969,1.158537,-1.219512,0.243902
1548435787109,-0.286133,-0.702881,-0.681824,0.914634,-1.219512,0.243902
1548435787116,-0.287903,-0.702576,-0.680664,0.487805,-1.036585,0.304878
1548435787133,-0.290955,-0.706543,-0.685852,0.182927,-0.792683,0.060976
1548435787139,-0.290100,-0.707031,-0.692993,0.000000,-0.670732,0.182927
1548435787146,-0.286438,-0.701721,-0.699463,0.182927,-0.426829,0.243902
1548435787162,-0.281921,-0.696777,-0.693115,1.036585,-0.670732,0.487805
1548435787169,-0.283203,-0.699402,-0.683105,2.073171,-1.036585,0.609756
1548435787176,-0.285034,-0.706787,-0.679688,2.439024,-1.402439,0.548781
1548435787191,-0.288574,-0.705505,-0.681641,2.073171,-1.524390,0.426829
1548435787200,-0.291321,-0.706360,-0.682800,1.280488,-1.280488,0.304878
1548435787229,-0.290649,-0.701538,-0.685181,1.158537,-1.097561,0.243902
1548435787229,-0.293518,-0.699463,-0.683228,1.280488,-1.097561,0.243902
1548435787229,-0.290405,-0.704895,-0.681091,1.158537,-0.975610,0.182927
1548435787249,-0.289307,-0.704468,-0.681091,1.524390,-0.853659,0.000000
1548435787287,-0.290283,-0.705261,-0.679077,1.402439,-0.609756,-0.060976
1548435787287,-0.289124,-0.705994,-0.681641,1.036585,-0.487805,0.060976
1548435787287,-0.289795,-0.700317,-0.681946,0.853659,0.060976,0.060976
1548435787287,-0.286926,-0.704346,-0.686462,0.853659,0.487805,0.000000
1548435787295,-0.285889,-0.705505,-0.687134,0.792683,0.548781,-0.121951
1548435787296,-0.287659,-0.704102,-0.686951,0.548781,0.365854,-0.121951
1548435787312,-0.286560,-0.703430,-0.689392,0.731707,0.304878,-0.121951
1548435787324,-0.285583,-0.707458,-0.690063,0.975610,0.000000,-0.060976
1548435787328,-0.289001,-0.708069,-0.684631,1.097561,-0.243902,-0.060976
1548435787350,-0.290039,-0.705627,-0.684143,0.853659,-0.304878,-0.121951
1548435787354,-0.287537,-0.703674,-0.687012,0.792683,-0.182927,-0.182927
1548435787362,-0.285645,-0.708313,-0.686768,0.853659,-0.365854,-0.182927
1548435787384,-0.286072,-0.706116,-0.685120,0.731707,-0.609756,-0.182927
1548435787385,-0.284119,-0.701660,-0.681641,0.487805,-0.487805,-0.182927
1548435787390,-0.285828,-0.705200,-0.681702,0.365854,-0.487805,-0.182927
1548435787407,-0.287659,-0.708618,-0.686340,0.182927,-0.548781,-0.182927
1548435787411,-0.285706,-0.705750,-0.688232,0.000000,-0.487805,-0.121951
1548435787418,-0.286621,-0.703857,-0.687195,0.121951,-0.609756,-0.060976
1548435787434,-0.284485,-0.702087,-0.687256,0.243902,-0.792683,0.060976
1548435787440,-0.285522,-0.703979,-0.687012,0.609756,-0.853659,0.060976
1548435787453,-0.285034,-0.708435,-0.684814,0.731707,-1.097561,0.060976
1548435787461,-0.285339,-0.706848,-0.685303,0.792683,-1.280488,0.060976
1548435787469,-0.285583,-0.706543,-0.684021,0.853659,-1.463415,0.060976
1548435787476,-0.286682,-0.705688,-0.685852,0.731707,-1.585366,0.182927
1548435787495,-0.288818,-0.706604,-0.685669,0.731707,-1.707317,0.121951
1548435787499,-0.288696,-0.705872,-0.683594,0.975610,-1.829268,0.182927
1548435787506,-0.289673,-0.702820,-0.684204,0.914634,-1.585366,0.121951
1548435787522,-0.288208,-0.705688,-0.684326,0.914634,-1.402439,0.121951
1548435787530,-0.289307,-0.707458,-0.684448,0.670732,-1.402439,0.060976
1548435787536,-0.287231,-0.703857,-0.678467,0.487805,-0.914634,0.121951
1548435787552,-0.288391,-0.702087,-0.678894,0.670732,-0.487805,0.182927
1548435787559,-0.287720,-0.705994,-0.681091,0.487805,-0.243902,0.060976
1548435787568,-0.287598,-0.709412,-0.682556,0.487805,-0.060976,-0.121951
1548435787598,-0.285339,-0.705994,-0.687988,0.365854,0.060976,-0.121951
1548435787601,-0.283447,-0.701538,-0.685364,0.548781,0.060976,0.000000
1548435787602,-0.283813,-0.705688,-0.683899,0.914634,-0.182927,0.000000
1548435787611,-0.282715,-0.709900,-0.686584,1.219512,-0.426829,0.000000
1548435787619,-0.285645,-0.707458,-0.687866,1.036585,-0.548781,0.121951
1548435787627,-0.286865,-0.708984,-0.682983,0.792683,-0.609756,0.243902
1548435787642,-0.285339,-0.707153,-0.681824,0.853659,-0.548781,0.365854
1548435787649,-0.283630,-0.704224,-0.683533,0.609756,-0.548781,0.304878
1548435787657,-0.286926,-0.706787,-0.686035,0.487805,-0.670732,0.304878
1548435787671,-0.284973,-0.705627,-0.680237,0.487805,-0.853659,0.304878
1548435787679,-0.284424,-0.703430,-0.680969,0.548781,-0.914634,0.365854
1548435787687,-0.285461,-0.704651,-0.682922,0.609756,-1.158537,0.304878
1548435787701,-0.286682,-0.709045,-0.687012,0.609756,-1.280488,0.304878
1548435787710,-0.286011,-0.708374,-0.683533,0.609756,-1.280488,0.304878
1548435787717,-0.287170,-0.704468,-0.682251,0.609756,-1.097561,0.304878
1548435787731,-0.287659,-0.708069,-0.684448,0.548781,-1.097561,0.365854
1548435787739,-0.289490,-0.705627,-0.682373,0.487805,-1.402439,0.365854
1548435787746,-0.288879,-0.705322,-0.683716,0.243902,-1.341463,0.426829
1548435787761,-0.284790,-0.703491,-0.683350,0.182927,-1.341463,0.487805
1548435787769,-0.285095,-0.703430,-0.684509,0.060976,-1.219512,0.243902
1548435787776,-0.285217,-0.707275,-0.685181,0.304878,-1.280488,0.182927
1548435787792,-0.287292,-0.707031,-0.681458,0.548781,-1.463415,0.182927
1548435787799,-0.287903,-0.704651,-0.678345,0.548781,-1.463415,0.182927
1548435787806,-0.289612,-0.705994,-0.678589,0.731707,-1.280488,0.243902
1548435787821,-0.289124,-0.705322,-0.680908,0.548781,-0.975610,0.304878
1548435787829,-0.287903,-0.704041,-0.684326,0.304878,-0.609756,0.304878
1548435787836,-0.286987,-0.703308,-0.685303,0.000000,-0.365854,0.304878
1548435787851,-0.285278,-0.702942,-0.683716,0.060976,-0.365854,0.182927
1548435787859,-0.283569,-0.706665,-0.688477,0.243902,-0.426829,0.121951
1548435787874,-0.283997,-0.707886,-0.687195,0.182927,-0.853659,0.121951
1548435787881,-0.285339,-0.705872,-0.683472,0.304878,-1.097561,0.243902
1548435787889,-0.286072,-0.704041,-0.682678,0.731707,-1.219512,0.365854
1548435787896,-0.288940,-0.700439,-0.683411,0.670732,-1.280488,0.426829
1548435787911,-0.289856,-0.708618,-0.681335,0.548781,-1.036585,0.487805
1548435787919,-0.289307,-0.707275,-0.680908,0.853659,-0.975610,0.365854
1548435787926,-0.291687,-0.704102,-0.679749,0.670732,-0.792683,0.243902
1548435787941,-0.291382,-0.706421,-0.679749,0.670732,-0.487805,0.121951
1548435787949,-0.285645,-0.704346,-0.679749,0.548781,-0.304878,0.121951
1548435787956,-0.285095,-0.706238,-0.685486,0.426829,-0.243902,0.121951
1548435787971,-0.281494,-0.706055,-0.686890,0.060976,-0.182927,0.121951
1548435787979,-0.280090,-0.703552,-0.687927,-0.304878,-0.243902,0.182927
1548435787986,-0.281616,-0.703857,-0.688232,0.121951,-0.487805,0.182927
1548435788001,-0.283630,-0.705933,-0.688049,0.304878,-0.853659,0.243902
1548435788009,-0.285767,-0.707336,-0.684387,0.365854,-1.280488,0.304878
1548435788016,-0.283813,-0.707520,-0.684570,0.548781,-1.463415,0.304878
1548435788031,-0.289185,-0.702332,-0.682068,0.792683,-1.524390,0.304878
1548435788039,-0.290100,-0.703003,-0.680969,0.548781,-1.280488,0.304878
1548435788046,-0.290222,-0.707336,-0.679871,0.609756,-1.036585,0.304878
1548435788062,-0.289368,-0.704651,-0.677185,0.731707,-0.975610,0.304878
1548435788069,-0.289001,-0.706055,-0.685425,0.609756,-0.609756,0.426829
1548435788076,-0.287964,-0.702332,-0.682190,0.609756,-0.548781,0.487805
1548435788091,-0.286499,-0.703918,-0.681763,0.975610,-0.487805,0.487805
1548435788099,-0.286011,-0.703796,-0.678040,1.097561,-0.304878,0.365854
1548435788106,-0.287048,-0.703308,-0.672424,0.792683,-0.243902,0.121951
1548435788121,-0.287537,-0.703735,-0.671936,0.609756,-0.060976,-0.304878
1548435788129,-0.288269,-0.703735,-0.675537,0.182927,0.121951,-0.914634
1548435788136,-0.286987,-0.706238,-0.674988,-0.609756,0.365854,-1.463415
1548435788151,-0.284729,-0.706543,-0.675842,-1.158537,0.548781,-1.951220
1548435788159,-0.283997,-0.703857,-0.682495,-1.219512,0.731707,-2.012195
1548435788166,-0.287048,-0.708618,-0.695190,-1.219512,1.036585,-2.012195
1548435788181,-0.284912,-0.704285,-0.697815,-1.158537,0.975610,-1.707317
1548435788189,-0.282104,-0.703369,-0.691162,-0.426829,0.731707,-1.280488
1548435788196,-0.284729,-0.704529,-0.682617,0.731707,0.304878,-0.914634
1548435788211,-0.284424,-0.698608,-0.678040,1.280488,0.365854,-0.914634
1548435788219,-0.282227,-0.701355,-0.676758,0.975610,0.792683,-1.097561
1548435788226,-0.285400,-0.709229,-0.681396,1.158537,0.731707,-1.280488
1548435788241,-0.284058,-0.711365,-0.681335,0.792683,0.914634,-1.402439
1548435788249,-0.281616,-0.709534,-0.687683,0.487805,1.280488,-1.463415
1548435788256,-0.281433,-0.705261,-0.687256,0.548781,1.402439,-1.463415
1548435788271,-0.280334,-0.710693,-0.693481,0.426829,1.280488,-1.280488
1548435788279,-0.274719,-0.710266,-0.693481,0.609756,0.975610,-0.975610
1548435788286,-0.273376,-0.710571,-0.690735,0.853659,0.731707,-0.670732
1548435788301,-0.272644,-0.708557,-0.687805,0.792683,0.000000,-0.548781
1548435788309,-0.275696,-0.706604,-0.684021,0.609756,-0.365854,-0.182927
1548435788316,-0.277344,-0.708069,-0.686584,0.487805,-0.487805,-0.060976
1548435788331,-0.282043,-0.705688,-0.686646,0.731707,-0.792683,-0.060976
1548435788339,-0.282104,-0.707092,-0.687195,0.731707,-0.609756,-0.060976
1548435788346,-0.278992,-0.708069,-0.687378,0.670732,-0.487805,0.060976
1548435788361,-0.278381,-0.708862,-0.690369,0.548781,-0.487805,0.121951
1548435788376,-0.278564,-0.707886,-0.686890,0.731707,-0.731707,0.182927
1548435788377,-0.278076,-0.705627,-0.682556,0.731707,-1.158537,0.304878
1548435788391,-0.280090,-0.710815,-0.681946,0.670732,-1.280488,0.426829
1548435788399,-0.280273,-0.708618,-0.683350,1.036585,-1.158537,0.487805
1548435788406,-0.283386,-0.706116,-0.684021,0.914634,-1.158537,0.548781
1548435788421,-0.282532,-0.707947,-0.683777,0.792683,-1.036585,0.487805
1548435788429,-0.281616,-0.705750,-0.679443,1.036585,-0.914634,0.365854
1548435788436,-0.280212,-0.707886,-0.685852,1.097561,-0.670732,0.365854
1548435788451,-0.277527,-0.704468,-0.684937,0.731707,-0.609756,0.304878
1548435788466,-0.279297,-0.709412,-0.685669,0.365854,-0.548781,0.060976
1548435788467,-0.277649,-0.707214,-0.684509,0.304878,-0.731707,0.060976
1548435788481,-0.277405,-0.705627,-0.685669,0.243902,-0.914634,0.121951
1548435788489,-0.278076,-0.708008,-0.684753,0.548781,-1.036585,0.182927
1548435788496,-0.280579,-0.706299,-0.685547,0.853659,-1.280488,0.243902
1548435788511,-0.284729,-0.706787,-0.680237,0.975610,-1.341463,0.365854
1548435788519,-0.281189,-0.706421,-0.679688,1.158537,-1.158537,0.304878
1548435788526,-0.280945,-0.708557,-0.681458,1.341463,-0.975610,0.304878
1548435788541,-0.282349,-0.709473,-0.681885,1.158537,-0.792683,0.182927
1548435788549,-0.280640,-0.709595,-0.684631,0.853659,-0.731707,0.304878
1548435788556,-0.278992,-0.706421,-0.683350,0.670732,-0.792683,0.182927
1548435788571,-0.278564,-0.707520,-0.684692,0.548781,-0.792683,0.121951
1548435788579,-0.276611,-0.710449,-0.687195,0.609756,-0.731707,0.060976
1548435788586,-0.278015,-0.705933,-0.688660,0.426829,-0.792683,0.121951
1548435788601,-0.280823,-0.707764,-0.685913,0.426829,-0.853659,0.060976
1548435788609,-0.279846,-0.709167,-0.684998,0.914634,-0.914634,0.243902
1548435788616,-0.280396,-0.707520,-0.684082,1.036585,-1.036585,0.487805
1548435788631,-0.283142,-0.711609,-0.684631,1.036585,-1.280488,0.426829
1548435788639,-0.279785,-0.712646,-0.681213,1.280488,-1.341463,0.365854
1548435788646,-0.277527,-0.707825,-0.680237,0.975610,-1.402439,0.426829
1548435788661,-0.278992,-0.704834,-0.681091,0.731707,-1.402439,0.487805
1548435788669,-0.281311,-0.704468,-0.677979,0.792683,-1.219512,0.487805
1548435788676,-0.285217,-0.706787,-0.678894,0.914634,-1.097561,0.487805
1548435788691,-0.283691,-0.709534,-0.682556,0.792683,-0.914634,0.304878
1548435788699,-0.280823,-0.709961,-0.687073,0.853659,-0.670732,0.304878
1548435788706,-0.279663,-0.709106,-0.684265,0.792683,-0.670732,0.304878
1548435788721,-0.280701,-0.706665,-0.679443,0.792683,-0.853659,0.243902
1548435788729,-0.281494,-0.708374,-0.681030,0.914634,-0.853659,0.304878
1548435788736,-0.279297,-0.710815,-0.682617,0.975610,-0.792683,0.304878
1548435788751,-0.279419,-0.710999,-0.688599,0.914634,-0.853659,0.121951
1548435788759,-0.279724,-0.709473,-0.685425,0.548781,-0.975610,0.304878
1548435788766,-0.279541,-0.707886,-0.681030,0.548781,-1.158537,0.487805
1548435788782,-0.281921,-0.704590,-0.680298,0.609756,-1.280488,0.487805
1548435788789,-0.282227,-0.709900,-0.684204,0.365854,-1.158537,0.548781
1548435788796,-0.280762,-0.711304,-0.683289,0.548781,-1.219512,0.548781
1548435788811,-0.281433,-0.707153,-0.679443,0.548781,-1.158537,0.426829
1548435788819,-0.281677,-0.707092,-0.680298,0.609756,-1.036585,0.426829
1548435788826,-0.281677,-0.707825,-0.685791,0.731707,-0.975610,0.426829
1548435788841,-0.280273,-0.710876,-0.684509,0.426829,-1.097561,0.426829
1548435788849,-0.278320,-0.709778,-0.681213,0.609756,-1.280488,0.365854
1548435788856,-0.281738,-0.706848,-0.679749,0.670732,-1.219512,0.548781
1548435788879,-0.279785,-0.706604,-0.682495,0.365854,-1.402439,0.548781
1548435788879,-0.280701,-0.707031,-0.682556,0.487805,-1.341463,0.548781
1548435788886,-0.281433,-0.710144,-0.681885,0.487805,-1.341463,0.609756
1548435788901,-0.282166,-0.709595,-0.682129,0.304878,-1.280488,0.609756
1548435788909,-0.282776,-0.707275,-0.683777,0.182927,-1.219512,0.487805
1548435788916,-0.282288,-0.706543,-0.681763,0.121951,-1.158537,0.426829
1548435788931,-0.281067,-0.709106,-0.681519,0.243902,-1.280488,0.609756
1548435788939,-0.284424,-0.709839,-0.678833,0.182927,-1.280488,0.548781
1548435788946,-0.283142,-0.708374,-0.679077,0.365854,-1.341463,0.487805
1548435788961,-0.279724,-0.708984,-0.681763,0.609756,-1.280488,0.426829
1548435788969,-0.283386,-0.708252,-0.676270,0.487805,-1.158537,0.487805
1548435788976,-0.283020,-0.708923,-0.681152,0.548781,-1.097561,0.548781
1548435788991,-0.284790,-0.709045,-0.684082,0.487805,-0.975610,0.609756
1548435788999,-0.285889,-0.708862,-0.681152,0.548781,-1.036585,0.548781
1548435789006,-0.283752,-0.708130,-0.681274,0.487805,-1.036585,0.365854
1548435789021,-0.283691,-0.710266,-0.682800,0.426829,-1.036585,0.365854
1548435789029,-0.283447,-0.709290,-0.684326,0.243902,-1.036585,0.365854
1548435789036,-0.280762,-0.709595,-0.684082,0.121951,-0.853659,0.365854
1548435789051,-0.280945,-0.709045,-0.683777,0.304878,-1.036585,0.365854
1548435789059,-0.282471,-0.707275,-0.683960,0.304878,-1.097561,0.304878
1548435789066,-0.281677,-0.709778,-0.683411,0.121951,-1.036585,0.426829
1548435789082,-0.281616,-0.708069,-0.682312,0.365854,-1.219512,0.548781
1548435789089,-0.283813,-0.707214,-0.682190,0.487805,-1.097561,0.609756
1548435789096,-0.283203,-0.709534,-0.680115,0.365854,-1.097561,0.670732
1548435789111,-0.282532,-0.706177,-0.681152,0.487805,-1.219512,0.609756
1548435789119,-0.282227,-0.707520,-0.683960,0.487805,-1.158537,0.548781
1548435789126,-0.283081,-0.709290,-0.682312,0.548781,-1.158537,0.548781
1548435789141,-0.282654,-0.708679,-0.680176,0.487805,-1.280488,0.548781
1548435789149,-0.283264,-0.708923,-0.685181,0.426829,-1.402439,0.426829
1548435789156,-0.285706,-0.709106,-0.686768,0.243902,-1.402439,0.487805
1548435789171,-0.283630,-0.709412,-0.686951,0.060976,-1.463415,0.487805
1548435789179,-0.281616,-0.707825,-0.682434,0.060976,-1.585366,0.487805
1548435789186,-0.285095,-0.707397,-0.679810,0.243902,-1.585366,0.548781
1548435789201,-0.284973,-0.708435,-0.680725,0.365854,-1.585366,0.609756
1548435789209,-0.283508,-0.709045,-0.682983,0.426829,-1.585366,0.609756
1548435789217,-0.286194,-0.708984,-0.683167,0.426829,-1.463415,0.487805
1548435789231,-0.287720,-0.709351,-0.680237,0.121951,-1.402439,0.487805
1548435789239,-0.285583,-0.707458,-0.679260,0.060976,-1.341463,0.426829
1548435789246,-0.286560,-0.704651,-0.680481,0.060976,-1.158537,0.487805
1548435789261,-0.285156,-0.707581,-0.681519,0.121951,-1.158537,0.670732
1548435789269,-0.285950,-0.706360,-0.682007,0.182927,-1.158537,0.548781
1548435789276,-0.285400,-0.705933,-0.680969,0.365854,-0.914634,0.548781
1548435789291,-0.286438,-0.705322,-0.681335,0.426829,-0.853659,0.487805
1548435789299,-0.288208,-0.706665,-0.681213,0.365854,-0.914634,0.365854
1548435789306,-0.285339,-0.708374,-0.683228,0.304878,-0.853659,0.243902
1548435789330,-0.285095,-0.709167,-0.680420,0.365854,-0.853659,0.121951
1548435789330,-0.286011,-0.705933,-0.684692,0.426829,-0.914634,0.121951
1548435789336,-0.284546,-0.707886,-0.682922,0.121951,-0.975610,0.182927
1548435789351,-0.283691,-0.711243,-0.682190,0.304878,-0.914634,0.243902
1548435789359,-0.283447,-0.702209,-0.680420,0.609756,-0.792683,0.182927
1548435789366,-0.284119,-0.706726,-0.684143,0.487805,-0.731707,0.304878
1548435789381,-0.283875,-0.711731,-0.683105,0.670732,-0.670732,0.365854
1548435789389,-0.285706,-0.708191,-0.679260,0.670732,-0.792683,0.304878
1548435789396,-0.284302,-0.708008,-0.679199,0.304878,-0.792683,0.365854
1548435789411,-0.285828,-0.710266,-0.677856,-0.121951,-0.914634,0.304878
1548435789419,-0.286560,-0.708557,-0.681885,-0.243902,-0.853659,0.243902
1548435789426,-0.283875,-0.707336,-0.683899,-0.060976,-0.731707,0.243902
1548435789441,-0.283752,-0.706909,-0.684509,0.060976,-0.792683,0.243902
1548435789449,-0.283997,-0.707886,-0.683411,0.000000,-0.792683,0.365854
1548435789457,-0.283264,-0.708496,-0.682678,0.243902,-0.975610,0.426829
1548435789471,-0.283325,-0.706787,-0.684937,0.487805,-1.280488,0.426829
1548435789479,-0.285034,-0.707642,-0.684753,0.304878,-1.341463,0.487805
1548435789486,-0.284668,-0.708130,-0.681274,0.000000,-1.402439,0.548781
1548435789501,-0.285522,-0.706909,-0.680420,-0.182927,-1.463415,0.426829
1548435789509,-0.285767,-0.703735,-0.680969,-0.243902,-1.402439,0.487805
1548435789516,-0.288330,-0.707275,-0.684692,-0.182927,-1.341463,0.487805
1548435789531,-0.286926,-0.709045,-0.685364,0.000000,-1.524390,0.426829
1548435789539,-0.286865,-0.704163,-0.682922,0.365854,-1.463415,0.487805
1548435789546,-0.286804,-0.705261,-0.679077,0.792683,-1.341463,0.548781
1548435789561,-0.286743,-0.707581,-0.680847,0.914634,-1.341463,0.609756
1548435789569,-0.287903,-0.709778,-0.680542,0.548781,-1.219512,0.609756
1548435789576,-0.286133,-0.708862,-0.683350,-0.182927,-0.975610,0.487805
1548435789591,-0.285034,-0.704895,-0.681335,-0.487805,-0.975610,0.365854
1548435789599,-0.285095,-0.705139,-0.685181,-0.548781,-1.158537,0.365854
1548435789606,-0.284851,-0.703979,-0.689636,-0.548781,-1.158537,0.548781
1548435789621,-0.285828,-0.706116,-0.686157,-0.182927,-1.280488,0.426829
1548435789629,-0.285706,-0.706909,-0.682983,0.304878,-1.524390,0.487805
1548435789636,-0.286072,-0.707764,-0.682861,0.670732,-1.707317,0.670732
1548435789651,-0.287354,-0.706909,-0.681091,0.548781,-1.524390,0.670732
1548435789659,-0.285522,-0.705017,-0.681946,0.426829,-1.463415,0.731707
1548435789666,-0.288147,-0.704590,-0.680237,0.487805,-1.524390,0.792683
1548435789691,-0.289001,-0.706299,-0.677795,0.487805,-1.585366,0.792683
1548435789692,-0.289673,-0.708313,-0.682312,0.487805,-1.341463,0.731707
1548435789697,-0.286743,-0.705505,-0.682495,0.548781,-1.219512,0.609756
1548435789723,-0.287598,-0.706360,-0.681458,0.487805,-1.158537,0.548781
1548435789723,-0.287659,-0.707703,-0.683960,0.548781,-1.219512,0.487805
1548435789760,-0.286377,-0.705017,-0.683411,0.426829,-1.219512,0.548781
1548435789760,-0.287231,-0.704895,-0.680969,0.426829,-1.158537,0.609756
1548435789761,-0.289001,-0.706665,-0.681030,0.487805,-1.036585,0.609756
1548435789761,-0.288147,-0.706848,-0.683533,0.121951,-1.097561,0.609756
1548435789781,-0.288208,-0.707520,-0.683716,0.060976,-1.158537,0.670732
1548435789781,-0.290955,-0.706299,-0.684204,0.182927,-1.158537,0.731707
1548435789791,-0.289368,-0.705505,-0.682922,0.000000,-1.280488,0.670732
1548435789816,-0.289917,-0.702332,-0.681885,-0.121951,-1.280488,0.609756
1548435789816,-0.290527,-0.704407,-0.684082,-0.121951,-1.219512,0.609756
1548435789819,-0.286987,-0.704651,-0.685364,0.060976,-1.280488,0.609756
1548435789831,-0.288330,-0.704224,-0.683228,-0.121951,-1.402439,0.609756
1548435789842,-0.287903,-0.706238,-0.679993,-0.121951,-1.463415,0.670732
1548435789846,-0.286743,-0.704163,-0.686829,0.121951,-1.402439,0.487805
1548435789861,-0.288635,-0.706360,-0.686462,-0.121951,-1.341463,0.609756
1548435789869,-0.289978,-0.706726,-0.685059,0.121951,-1.341463,0.548781
1548435789876,-0.289551,-0.705872,-0.683044,0.365854,-1.463415,0.731707
1548435789891,-0.290283,-0.702393,-0.681824,0.182927,-1.341463,0.670732
1548435789899,-0.291809,-0.705872,-0.680115,0.121951,-1.219512,0.731707
1548435789906,-0.292297,-0.704956,-0.677612,0.243902,-1.219512,0.731707
1548435789921,-0.295044,-0.705261,-0.682129,0.060976,-1.219512,0.609756
1548435789929,-0.291748,-0.703308,-0.685486,-0.243902,-1.158537,0.548781
1548435789936,-0.288391,-0.704041,-0.684753,-0.365854,-1.036585,0.609756
1548435789951,-0.290039,-0.704407,-0.684753,-0.121951,-1.219512,0.609756
1548435789959,-0.288086,-0.700806,-0.682739,0.000000,-1.219512,0.548781
1548435789974,-0.287903,-0.702515,-0.683655,0.121951,-1.219512,0.487805
1548435789981,-0.287354,-0.705078,-0.683899,0.182927,-1.280488,0.426829
1548435789989,-0.289551,-0.705017,-0.680847,0.182927,-1.280488,0.487805
1548435789996,-0.290710,-0.703369,-0.680115,0.182927,-1.280488,0.426829
1548435790011,-0.291748,-0.705078,-0.681641,0.000000,-1.219512,0.365854
1548435790019,-0.290466,-0.703064,-0.682739,0.000000,-1.280488,0.365854
1548435790026,-0.291504,-0.703857,-0.680969,-0.243902,-1.158537,0.304878
1548435790041,-0.293457,-0.702087,-0.683777,-0.182927,-1.097561,0.243902
1548435790049,-0.293640,-0.702209,-0.684326,0.121951,-0.975610,0.182927
1548435790056,-0.291748,-0.704956,-0.686707,0.243902,-0.792683,0.304878
1548435790071,-0.294739,-0.702759,-0.683716,0.243902,-0.670732,0.182927
1548435790079,-0.289734,-0.702576,-0.684021,0.243902,-0.792683,0.304878
1548435790086,-0.291016,-0.702271,-0.682251,0.487805,-0.792683,0.365854
1548435790101,-0.289856,-0.704529,-0.684448,0.426829,-0.609756,0.304878
1548435790109,-0.290527,-0.702393,-0.684448,0.548781,-0.609756,0.365854
1548435790116,-0.293274,-0.703247,-0.680542,0.853659,-0.670732,0.365854
1548435790131,-0.290100,-0.703857,-0.679199,0.853659,-0.670732,0.304878
1548435790139,-0.290466,-0.700317,-0.680359,0.731707,-0.609756,0.060976
1548435790146,-0.290833,-0.703369,-0.686157,0.792683,-0.609756,0.000000
1548435790161,-0.288757,-0.701721,-0.685242,1.158537,-0.609756,-0.060976
1548435790169,-0.290039,-0.706116,-0.681519,1.097561,-0.670732,-0.243902
1548435790176,-0.291199,-0.706726,-0.680603,1.097561,-0.670732,-0.365854
1548435790191,-0.291199,-0.704346,-0.678345,0.914634,-0.426829,-0.426829
1548435790199,-0.290466,-0.703491,-0.683044,0.487805,-0.304878,-0.182927
1548435790206,-0.288330,-0.703247,-0.686768,0.548781,-0.243902,-0.060976
1548435790221,-0.289917,-0.705261,-0.685242,0.609756,-0.243902,-0.121951
1548435790229,-0.289246,-0.706299,-0.681335,1.097561,-0.243902,-0.060976
1548435790236,-0.289917,-0.707886,-0.680115,1.341463,-0.121951,-0.060976
1548435790251,-0.289001,-0.705505,-0.681946,1.341463,0.000000,-0.060976
1548435790259,-0.287781,-0.704163,-0.684692,1.219512,-0.060976,0.060976
1548435790266,-0.286499,-0.705383,-0.683716,1.158537,-0.121951,0.182927
1548435790281,-0.286743,-0.704529,-0.684082,1.097561,-0.487805,0.060976
1548435790289,-0.289551,-0.703857,-0.682556,1.097561,-0.731707,0.000000
1548435790296,-0.289429,-0.707214,-0.680359,0.975610,-0.792683,0.060976
1548435790311,-0.288025,-0.706116,-0.679321,0.670732,-0.914634,0.060976
1548435790319,-0.290527,-0.705566,-0.681885,0.304878,-0.792683,-0.060976
1548435790326,-0.291504,-0.705688,-0.682007,0.365854,-0.670732,0.000000
1548435790341,-0.292236,-0.705688,-0.683594,0.609756,-0.609756,0.000000
1548435790349,-0.289124,-0.706970,-0.683594,0.548781,-0.548781,-0.060976
1548435790356,-0.288635,-0.706848,-0.684814,0.670732,-0.670732,-0.060976
1548435790371,-0.286377,-0.706848,-0.683594,0.792683,-0.792683,0.000000
1548435790379,-0.286377,-0.704651,-0.681946,0.609756,-0.670732,0.060976
1548435790386,-0.287170,-0.708069,-0.683472,0.792683,-0.548781,0.121951
1548435790401,-0.287048,-0.706116,-0.684021,0.975610,-0.548781,0.243902
1548435790409,-0.286682,-0.706665,-0.681396,0.853659,-0.548781,0.243902
1548435790416,-0.288147,-0.707092,-0.678711,0.670732,-0.670732,0.182927
1548435790431,-0.290710,-0.707764,-0.677795,0.731707,-0.731707,0.121951
1548435790439,-0.290710,-0.708191,-0.680786,0.548781,-0.609756,0.000000
1548435790446,-0.289551,-0.706360,-0.681580,0.365854,-0.609756,0.000000
1548435790461,-0.286865,-0.707703,-0.681885,0.304878,-0.609756,-0.121951
1548435790469,-0.290039,-0.708313,-0.681274,0.365854,-0.548781,-0.182927
1548435790476,-0.287476,-0.707520,-0.682800,0.182927,-0.365854,-0.182927
1548435790491,-0.285828,-0.707275,-0.684021,0.121951,-0.365854,0.000000
1548435790499,-0.285889,-0.707886,-0.684448,0.426829,-0.426829,0.121951
1548435790506,-0.288696,-0.707275,-0.685608,0.548781,-0.487805,0.060976
1548435790521,-0.285339,-0.708374,-0.683594,0.548781,-0.670732,0.121951
1548435790529,-0.287964,-0.708374,-0.681396,0.670732,-0.975610,0.121951
1548435790544,-0.289001,-0.707581,-0.681274,0.548781,-0.975610,0.121951
1548435790551,-0.287292,-0.706238,-0.683105,0.182927,-0.792683,0.182927
1548435790559,-0.287537,-0.705933,-0.681763,0.121951,-0.670732,0.121951
1548435790566,-0.289246,-0.707825,-0.682007,0.243902,-0.670732,0.121951
1548435790581,-0.288086,-0.707275,-0.680420,0.304878,-0.792683,0.121951
1548435790589,-0.289307,-0.708252,-0.677673,0.243902,-0.670732,0.182927
1548435790596,-0.288208,-0.706726,-0.680847,0.121951,-0.609756,0.060976
1548435790611,-0.287292,-0.706848,-0.681091,0.121951,-0.670732,0.182927
1548435790619,-0.287720,-0.711243,-0.684021,0.121951,-0.731707,0.121951
1548435790626,-0.287842,-0.705505,-0.686462,0.182927,-0.731707,0.121951
1548435790641,-0.287842,-0.704834,-0.687683,0.121951,-0.731707,0.182927
1548435790649,-0.287109,-0.708313,-0.684631,0.304878,-0.975610,0.060976
1548435790656,-0.286499,-0.709900,-0.684753,0.609756,-1.036585,0.060976
1548435790671,-0.289551,-0.709351,-0.680847,0.609756,-0.975610,0.121951
1548435790679,-0.288086,-0.705933,-0.681519,0.609756,-0.975610,0.182927
1548435790686,-0.288269,-0.706970,-0.680847,0.426829,-0.792683,0.182927
1548435790694,-0.288513,-0.706177,-0.679932,0.365854,-0.670732,0.182927
1548435790709,-0.288757,-0.706787,-0.683167,0.548781,-0.670732,0.182927
1548435790716,-0.287781,-0.708313,-0.682495,0.609756,-0.731707,0.182927
1548435790724,-0.287354,-0.706360,-0.680603,0.609756,-0.731707,0.243902
1548435790739,-0.286194,-0.706299,-0.682678,0.487805,-0.731707,0.182927
1548435790746,-0.287415,-0.708313,-0.684387,0.304878,-0.670732,0.121951
1548435790754,-0.286255,-0.707642,-0.685791,0.060976,-0.853659,0.060976
1548435790769,-0.289001,-0.708313,-0.683716,0.304878,-0.975610,0.121951
1548435790776,-0.285950,-0.706299,-0.684875,0.365854,-1.158537,0.000000
1548435790784,-0.285583,-0.707153,-0.686157,0.426829,-1.341463,0.060976
1548435790799,-0.286255,-0.707458,-0.682190,0.731707,-1.463415,0.000000
1548435790806,-0.289795,-0.707214,-0.681274,0.853659,-1.280488,-0.060976
1548435790814,-0.289368,-0.707581,-0.680664,0.548781,-1.036585,0.121951
1548435790836,-0.290771,-0.712036,-0.682251,0.304878,-0.792683,0.060976
1548435790837,-0.290710,-0.707153,-0.681335,0.426829,-0.609756,0.121951
1548435790844,-0.290527,-0.702698,-0.676147,0.365854,-0.487805,0.243902
1548435790859,-0.288208,-0.707092,-0.681763,0.426829,-0.426829,0.243902
1548435790866,-0.285583,-0.711243,-0.683533,0.487805,-0.365854,0.182927
1548435790874,-0.285889,-0.707031,-0.683594,0.426829,-0.365854,0.182927
1548435790889,-0.287415,-0.702637,-0.681763,0.243902,-0.548781,0.060976
1548435790896,-0.287842,-0.707825,-0.682861,0.670732,-0.548781,0.121951
1548435790904,-0.286316,-0.711670,-0.685486,0.792683,-0.609756,0.060976
1548435790919,-0.285828,-0.711487,-0.683838,0.548781,-0.792683,-0.060976
1548435790926,-0.285217,-0.705505,-0.679626,0.426829,-0.853659,0.000000
1548435790934,-0.287292,-0.705261,-0.680115,0.426829,-0.731707,0.000000
1548435790949,-0.287964,-0.705078,-0.682251,0.670732,-0.548781,0.060976
1548435790956,-0.289612,-0.706299,-0.682251,0.548781,-0.487805,0.060976
1548435790964,-0.289368,-0.708008,-0.677246,0.609756,-0.365854,0.000000
1548435790979,-0.289795,-0.706543,-0.679016,0.975610,-0.304878,0.121951
1548435790986,-0.287048,-0.707764,-0.681824,0.853659,-0.182927,0.304878
1548435790994,-0.286804,-0.709839,-0.684875,0.731707,0.121951,0.243902
1548435791009,-0.287598,-0.707520,-0.680786,0.609756,0.060976,0.060976
1548435791016,-0.286438,-0.702576,-0.678467,0.487805,0.121951,0.000000
1548435791024,-0.287720,-0.707275,-0.685242,0.426829,0.182927,-0.243902
1548435791039,-0.285706,-0.710327,-0.688477,0.487805,0.060976,-0.426829
1548435791046,-0.284851,-0.710205,-0.684814,0.487805,-0.121951,-0.365854
1548435791054,-0.283813,-0.710022,-0.680847,0.670732,-0.121951,-0.365854
1548435791069,-0.284790,-0.709106,-0.682556,0.853659,-0.243902,-0.182927
1548435791076,-0.285645,-0.708252,-0.684143,0.609756,-0.365854,-0.121951
1548435791084,-0.284241,-0.709839,-0.681152,0.609756,-0.304878,0.060976
1548435791099,-0.284241,-0.707764,-0.678833,0.914634,-0.243902,0.060976
1548435791106,-0.284912,-0.708984,-0.681763,0.792683,-0.243902,0.121951
1548435791114,-0.283081,-0.709229,-0.688232,0.548781,-0.243902,0.060976
1548435791129,-0.282410,-0.708435,-0.687622,0.365854,-0.243902,0.121951
1548435791136,-0.282043,-0.706421,-0.682495,0.487805,-0.426829,0.182927
1548435791144,-0.282471,-0.707214,-0.684509,0.731707,-0.670732,0.243902
1548435791159,-0.287109,-0.710693,-0.682556,0.914634,-0.975610,0.182927
1548435791166,-0.286682,-0.713440,-0.680847,0.609756,-1.219512,0.060976
1548435791174,-0.286682,-0.707336,-0.681274,0.304878,-1.036585,0.060976
1548435791189,-0.288513,-0.704956,-0.681458,0.182927,-0.914634,0.121951
1548435791196,-0.286926,-0.710876,-0.682800,0.426829,-0.853659,0.121951
1548435791204,-0.285767,-0.710510,-0.684448,0.609756,-0.792683,0.000000
1548435791219,-0.284180,-0.708618,-0.683350,0.121951,-0.792683,0.121951
1548435791226,-0.283264,-0.709778,-0.682495,0.182927,-0.731707,0.121951
1548435791234,-0.285583,-0.708191,-0.684204,0.426829,-0.670732,0.304878
1548435791249,-0.284363,-0.706726,-0.682983,0.670732,-0.670732,0.365854
1548435791256,-0.287231,-0.709656,-0.682007,0.792683,-0.792683,0.365854
1548435791264,-0.287231,-0.708801,-0.682495,0.853659,-0.792683,0.243902
1548435791279,-0.286926,-0.708130,-0.681274,0.914634,-0.731707,0.182927
1548435791286,-0.287476,-0.710144,-0.679688,0.731707,-0.731707,0.060976
1548435791294,-0.282959,-0.710876,-0.682922,0.426829,-0.670732,0.060976
1548435791309,-0.283203,-0.709106,-0.683716,0.182927,-0.731707,0.000000
1548435791316,-0.283508,-0.708557,-0.686890,0.182927,-0.731707,0.121951
1548435791324,-0.284363,-0.709961,-0.686523,0.365854,-0.792683,0.121951
1548435791339,-0.284058,-0.709839,-0.684753,0.487805,-0.975610,0.304878
1548435791346,-0.285156,-0.711182,-0.681519,0.853659,-1.036585,0.304878
1548435791354,-0.288879,-0.710510,-0.679016,0.792683,-1.219512,0.487805
1548435791369,-0.287415,-0.709900,-0.683167,0.304878,-1.097561,0.365854
1548435791376,-0.285828,-0.711670,-0.684387,0.121951,-1.097561,0.243902
1548435791384,-0.286011,-0.710693,-0.684082,-0.121951,-1.219512,0.304878
1548435791399,-0.284485,-0.708679,-0.686218,-0.365854,-1.280488,0.426829
1548435791406,-0.285034,-0.709351,-0.683594,-0.365854,-1.524390,0.487805
1548435791414,-0.286255,-0.710327,-0.682129,-0.365854,-1.646341,0.426829
1548435791429,-0.287781,-0.708862,-0.678589,-0.426829,-1.707317,0.426829
1548435791436,-0.290710,-0.707703,-0.679504,-0.670732,-1.646341,0.487805
1548435791444,-0.293213,-0.705444,-0.677185,-0.731707,-1.463415,0.243902
1548435791459,-0.292847,-0.711365,-0.677917,-0.670732,-1.341463,0.121951
1548435791466,-0.290955,-0.710144,-0.681824,-0.914634,-0.975610,0.121951
1548435791474,-0.292480,-0.710022,-0.683350,-1.280488,-0.670732,0.121951
1548435791489,-0.291748,-0.707092,-0.682495,-1.707317,-0.548781,0.243902
1548435791496,-0.287354,-0.704712,-0.682434,-1.768293,-0.487805,0.365854
1548435791504,-0.290161,-0.708557,-0.682251,-1.341463,-0.426829,0.304878
1548435791519,-0.290894,-0.706909,-0.682434,-1.036585,-0.304878,0.243902
1548435791526,-0.289307,-0.704529,-0.678711,-0.914634,0.060976,0.304878
1548435791534,-0.289124,-0.703613,-0.678223,-0.731707,0.426829,0.426829
1548435791549,-0.288391,-0.707458,-0.678589,-0.731707,1.036585,0.670732
1548435791556,-0.285706,-0.704773,-0.678101,-1.280488,1.402439,0.731707
1548435791564,-0.277710,-0.705383,-0.678162,-2.195122,2.012195,0.731707
1548435791579,-0.276428,-0.703552,-0.678589,-2.987805,2.682927,0.731707
1548435791586,-0.274963,-0.705994,-0.681458,-4.024390,3.048780,0.548781
1548435791594,-0.273865,-0.708252,-0.684937,-5.304878,3.048780,0.000000
1548435791609,-0.272949,-0.707581,-0.687622,-6.585366,2.804878,-0.487805
1548435791616,-0.277344,-0.704529,-0.695862,-7.439024,2.560976,-0.975610
1548435791624,-0.289551,-0.705383,-0.688965,-7.987805,1.951220,-1.463415
1548435791639,-0.286011,-0.715027,-0.692993,-8.109756,1.341463,-1.829268
1548435791646,-0.290588,-0.707581,-0.692688,-8.597561,0.914634,-1.951220
1548435791654,-0.292847,-0.701721,-0.690430,-9.878049,0.792683,-1.646341
1548435791669,-0.289246,-0.693237,-0.689575,-10.365854,0.914634,-1.463415
1548435791676,-0.287659,-0.681335,-0.689575,-10.000000,1.158537,-1.524390
1548435791684,-0.286621,-0.685364,-0.684021,-9.329268,1.646341,-1.585366
1548435791699,-0.289307,-0.691528,-0.692139,-8.963415,2.256098,-2.378049
1548435791706,-0.294617,-0.692200,-0.692261,-8.536586,2.621951,-2.804878
1548435791714,-0.297119,-0.695679,-0.694885,-8.597561,3.109756,-3.048780
1548435791729,-0.296021,-0.694031,-0.698730,-8.292683,3.658537,-3.109756
1548435791736,-0.288635,-0.691833,-0.701599,-7.682927,3.841464,-2.621951
1548435791744,-0.281067,-0.684998,-0.711792,-7.439024,4.207317,-2.195122
1548435791759,-0.276062,-0.680481,-0.712524,-7.073171,4.207317,-1.585366
1548435791766,-0.270142,-0.685913,-0.714539,-6.219512,3.902439,-1.341463
1548435791774,-0.263184,-0.687256,-0.720703,-6.097561,3.719512,-1.341463
1548435791789,-0.254089,-0.685364,-0.723328,-6.402439,3.597561,-1.219512
1548435791796,-0.251221,-0.690674,-0.726257,-6.585366,3.170732,-1.097561
1548435791804,-0.245422,-0.691528,-0.729980,-7.195122,2.134146,-1.036585
1548435791819,-0.243164,-0.681335,-0.735718,-7.987805,1.219512,-0.914634
1548435791826,-0.247253,-0.672119,-0.738037,-7.865854,0.182927,-0.853659
1548435791834,-0.251343,-0.667664,-0.735718,-6.768293,-0.914634,-1.036585
1548435791849,-0.256714,-0.669556,-0.726624,-5.060976,-2.012195,-1.219512
1548435791856,-0.267761,-0.677673,-0.718567,-3.292683,-2.804878,-1.585366
1548435791864,-0.276672,-0.691467,-0.709534,-2.378049,-3.353659,-2.256098
1548435791879,-0.280151,-0.692444,-0.698608,-3.231707,-3.475610,-2.560976
1548435791886,-0.276917,-0.665283,-0.702942,-5.365854,-3.414634,-2.560976
1548435791894,-0.264038,-0.740234,-0.762329,-6.402439,-3.292683,-2.012195
1548435791909,-0.254150,-0.690125,-0.707336,-9.085366,-6.097561,-0.731707
1548435791916,-0.244629,-0.646667,-0.724121,-11.707317,-4.573171,-0.853659
1548435791924,-0.257324,-0.673157,-0.726746,-10.731708,-3.658537,-1.280488
1548435791939,-0.239258,-0.653442,-0.758423,-9.451220,-5.060976,-0.304878
1548435791946,-0.238770,-0.688110,-0.776489,-8.719512,-5.243903,-0.426829
1548435791954,-0.247559,-0.678040,-0.755249,-7.621952,-7.073171,0.548781
1548435791969,-0.256165,-0.638672,-0.735535,-5.914634,-7.621952,1.646341
1548435791976,-0.268372,-0.634399,-0.726624,-2.134146,-7.804878,2.926829
1548435791984,-0.291809,-0.650635,-0.712341,2.378049,-8.536586,3.597561
1548435791999,-0.311096,-0.657959,-0.693481,5.609756,-7.987805,2.926829
1548435792006,-0.329895,-0.652954,-0.659668,7.256098,-6.524390,1.524390
1548435792014,-0.334778,-0.668884,-0.658752,7.865854,-4.085366,0.243902
1548435792029,-0.331604,-0.703186,-0.658508,7.073171,-1.646341,-0.914634
1548435792044,-0.322327,-0.705933,-0.668579,2.621951,0.853659,-1.829268
1548435792044,-0.314453,-0.700317,-0.678284,-3.780488,4.329268,-2.743902
1548435792059,-0.303040,-0.680664,-0.699463,-7.804878,6.646342,-2.378049
1548435792066,-0.290222,-0.666809,-0.730408,-10.426829,8.414635,-1.768293
1548435792074,-0.270386,-0.660950,-0.746948,-11.463415,8.536586,-0.975610
1548435792089,-0.254944,-0.645325,-0.748108,-10.121951,7.682927,-0.304878
1548435792096,-0.256042,-0.645691,-0.741760,-7.256098,7.256098,-0.182927
1548435792104,-0.253967,-0.648682,-0.738708,-4.024390,6.890244,-0.243902
1548435792119,-0.257080,-0.658203,-0.736694,-1.829268,6.707317,-0.670732
1548435792126,-0.257019,-0.669495,-0.735474,-1.097561,6.524390,-0.975610
1548435792134,-0.259705,-0.680847,-0.735779,-1.463415,6.463415,-1.463415
1548435792149,-0.265076,-0.678406,-0.726929,-2.195122,6.219512,-1.463415
1548435792156,-0.263000,-0.681519,-0.729004,-3.170732,6.463415,-1.585366
1548435792164,-0.264404,-0.683044,-0.733459,-4.512195,5.914634,-1.219512
1548435792179,-0.261475,-0.674988,-0.741333,-6.158537,5.060976,-0.914634
1548435792188,-0.255066,-0.669128,-0.741943,-7.560976,4.451220,-0.670732
1548435792211,-0.258606,-0.664673,-0.735962,-8.231708,3.597561,-0.792683
1548435792211,-0.263428,-0.656128,-0.731873,-8.658537,2.987805,-0.975610
1548435792217,-0.267578,-0.656311,-0.728699,-8.658537,2.865854,-1.707317
1548435792224,-0.271912,-0.660767,-0.729004,-8.597561,2.500000,-2.500000
1548435792243,-0.272705,-0.664551,-0.730164,-9.207317,2.378049,-3.170732
1548435792248,-0.269958,-0.662109,-0.734436,-10.000000,2.621951,-3.597561
1548435792256,-0.269470,-0.660583,-0.741882,-10.975610,2.804878,-3.963415
1548435792275,-0.266174,-0.659363,-0.747559,-11.829268,2.378049,-4.146341
1548435792281,-0.260803,-0.660583,-0.750000,-12.621951,1.951220,-4.146341
1548435792286,-0.253174,-0.652039,-0.749390,-13.231708,1.524390,-3.780488
1548435792303,-0.247986,-0.623291,-0.763977,-13.292684,1.219512,-3.597561
1548435792308,-0.259766,-0.622864,-0.744446,-13.170732,1.341463,-3.902439
1548435792316,-0.265869,-0.668030,-0.717712,-10.792684,1.341463,-4.878049
1548435792343,-0.257812,-0.654663,-0.730347,-8.658537,1.463415,-5.060976
1548435792343,-0.246460,-0.617188,-0.760742,-11.951220,2.500000,-4.878049
1548435792347,-0.245056,-0.634583,-0.760986,-14.024390,3.231707,-5.792683
1548435792361,-0.239563,-0.648804,-0.772888,-12.926829,3.292683,-6.402439
1548435792366,-0.238159,-0.623962,-0.775574,-12.195122,2.682927,-5.914634
1548435792374,-0.244568,-0.643005,-0.758850,-12.865854,2.378049,-5.975610
1548435792389,-0.235901,-0.645386,-0.764465,-11.707317,2.134146,-6.036585
1548435792398,-0.230042,-0.632141,-0.781982,-10.670732,1.829268,-4.878049
1548435792406,-0.224121,-0.624451,-0.784851,-10.487805,1.524390,-4.756098
1548435792419,-0.226196,-0.626099,-0.780701,-9.146341,0.853659,-4.817073
1548435792426,-0.226013,-0.624268,-0.775146,-7.378049,0.000000,-4.573171
1548435792434,-0.221069,-0.625549,-0.772705,-6.402439,-0.792683,-4.329268
1548435792449,-0.221252,-0.618652,-0.783447,-6.097561,-1.280488,-4.390244
1548435792464,-0.227539,-0.630554,-0.776184,-5.731708,-1.768293,-4.207317
1548435792465,-0.222961,-0.650696,-0.767151,-4.451220,-2.073171,-4.756098
1548435792479,-0.225342,-0.637573,-0.763672,-3.902439,-2.195122,-4.329268
1548435792486,-0.220764,-0.629456,-0.772095,-5.304878,-1.890244,-3.414634
1548435792494,-0.220703,-0.627991,-0.778809,-6.036585,-1.585366,-3.231707
1548435792513,-0.221741,-0.623230,-0.779846,-5.914634,-1.829268,-2.865854
1548435792516,-0.219299,-0.620667,-0.781555,-5.609756,-2.012195,-2.621951
1548435792524,-0.223022,-0.616638,-0.781555,-5.487805,-2.134146,-2.317073
1548435792539,-0.231201,-0.618225,-0.782471,-4.817073,-2.256098,-2.134146
1548435792546,-0.230957,-0.622620,-0.783264,-3.414634,-2.439024,-1.768293
1548435792554,-0.230835,-0.619812,-0.784729,-2.317073,-2.560976,-1.341463
1548435792570,-0.233643,-0.619873,-0.781189,-1.463415,-2.865854,-0.731707
1548435792579,-0.234375,-0.623779,-0.780029,-0.731707,-3.048780,-0.243902
1548435792590,-0.235229,-0.617310,-0.774902,-0.182927,-3.170732,0.000000
1548435792599,-0.238647,-0.619568,-0.772278,0.304878,-3.109756,0.365854
1548435792606,-0.239136,-0.621155,-0.771545,0.853659,-3.109756,0.731707
1548435792614,-0.235657,-0.623901,-0.774231,1.219512,-2.926829,1.097561
1548435792629,-0.233459,-0.621948,-0.778381,1.402439,-2.987805,1.402439
1548435792637,-0.232849,-0.619385,-0.778687,1.097561,-2.926829,1.768293
1548435792644,-0.233398,-0.620483,-0.777100,1.158537,-2.804878,2.012195
1548435792659,-0.231750,-0.619324,-0.775574,1.829268,-2.926829,2.256098
1548435792666,-0.237976,-0.625916,-0.776123,2.987805,-3.109756,2.378049
1548435792674,-0.240417,-0.628357,-0.775879,3.597561,-3.780488,2.621951
1548435792689,-0.243591,-0.632996,-0.770264,3.841464,-3.963415,2.865854
1548435792696,-0.243774,-0.633545,-0.772278,3.841464,-4.207317,3.170732
1548435792704,-0.240295,-0.626953,-0.778259,3.109756,-4.390244,3.353659
1548435792719,-0.239929,-0.626343,-0.778015,2.378049,-4.451220,3.597561
1548435792726,-0.240967,-0.625000,-0.775085,2.500000,-4.878049,3.780488
1548435792734,-0.240723,-0.622986,-0.769897,2.743902,-5.060976,3.902439
1548435792749,-0.243164,-0.622803,-0.768372,3.231707,-5.365854,4.268293
1548435792756,-0.247864,-0.625977,-0.761353,3.658537,-5.487805,4.573171
1548435792764,-0.248352,-0.625061,-0.760193,4.329268,-4.878049,4.817073
1548435792779,-0.253174,-0.622681,-0.758301,4.939024,-4.146341,4.756098
1548435792787,-0.256592,-0.625854,-0.756165,4.817073,-3.414634,4.512195
1548435792794,-0.256775,-0.629395,-0.752563,4.329268,-2.926829,4.207317
1548435792816,-0.258118,-0.628235,-0.757324,3.719512,-2.256098,4.146341
1548435792817,-0.260986,-0.626160,-0.756775,3.170732,-1.341463,3.902439
1548435792824,-0.263489,-0.626465,-0.757812,2.865854,-0.792683,3.841464
1548435792839,-0.263184,-0.632080,-0.762146,2.804878,-0.304878,4.024390
1548435792846,-0.261841,-0.630371,-0.762878,2.926829,0.243902,4.024390
1548435792854,-0.265320,-0.630371,-0.761597,2.439024,0.548781,3.841464
1548435792869,-0.269348,-0.632751,-0.762085,2.073171,0.914634,3.597561
1548435792876,-0.268311,-0.630859,-0.759521,2.073171,0.975610,3.414634
1548435792884,-0.271301,-0.630432,-0.758484,2.134146,0.975610,3.109756
1548435792899,-0.273376,-0.630859,-0.756531,2.500000,0.975610,2.682927
1548435792907,-0.271057,-0.635315,-0.746399,2.743902,1.158537,2.195122
1548435792914,-0.269653,-0.639526,-0.747009,2.500000,1.707317,1.219512
1548435792936,-0.265747,-0.635498,-0.749939,1.341463,2.317073,0.000000
1548435792937,-0.262268,-0.634155,-0.756409,-0.243902,2.865854,-0.914634
1548435792944,-0.259521,-0.634583,-0.758545,-1.585366,3.109756,-1.890244
1548435792959,-0.254700,-0.635803,-0.765259,-2.682927,3.048780,-2.500000
1548435792966,-0.249023,-0.632507,-0.770508,-3.597561,2.317073,-3.048780
1548435792974,-0.246338,-0.634827,-0.775391,-4.207317,1.585366,-3.353659
1548435792989,-0.242554,-0.630920,-0.778503,-4.451220,0.853659,-3.353659
1548435792996,-0.239990,-0.627686,-0.779236,-4.207317,-0.060976,-2.865854
1548435793004,-0.238342,-0.632996,-0.785889,-3.536585,-0.670732,-2.682927
1548435793019,-0.235352,-0.623840,-0.781555,-2.987805,-1.524390,-2.256098
1548435793026,-0.233582,-0.620728,-0.778381,-2.621951,-2.134146,-1.768293
1548435793034,-0.237366,-0.625000,-0.772522,-1.341463,-2.560976,-1.219512
1548435793049,-0.240479,-0.621521,-0.769592,-0.121951,-2.865854,-0.731707
1548435793056,-0.244507,-0.625061,-0.768982,0.487805,-3.048780,-0.365854
1548435793064,-0.246277,-0.625549,-0.768433,0.731707,-3.170732,0.060976
1548435793079,-0.250183,-0.623962,-0.765503,0.365854,-3.231707,0.121951
1548435793086,-0.252808,-0.623413,-0.761780,0.060976,-2.987805,0.304878
1548435793094,-0.253906,-0.626770,-0.764954,-0.060976,-2.926829,0.487805
1548435793109,-0.255737,-0.628174,-0.767822,-0.182927,-2.926829,0.548781
1548435793116,-0.255066,-0.623901,-0.766541,-0.731707,-2.682927,0.487805
1548435793124,-0.251404,-0.624329,-0.763306,-1.097561,-2.500000,0.548781
1548435793139,-0.257507,-0.627197,-0.759033,-0.792683,-2.621951,0.548781
1548435793146,-0.254822,-0.621765,-0.765259,-1.219512,-2.560976,0.548781
1548435793154,-0.256409,-0.624573,-0.765198,-1.768293,-2.256098,0.060976
1548435793169,-0.254028,-0.624207,-0.764160,-2.012195,-2.134146,-0.365854
1548435793176,-0.254517,-0.625732,-0.761658,-2.378049,-1.524390,-0.670732
1548435793184,-0.252991,-0.624084,-0.768311,-2.439024,-1.036585,-0.548781
1548435793199,-0.251953,-0.620789,-0.773621,-2.256098,-0.609756,-0.426829
1548435793206,-0.251587,-0.615601,-0.772461,-1.951220,-0.304878,-0.121951
1548435793214,-0.255127,-0.621887,-0.771179,-1.219512,-0.243902,0.060976
1548435793229,-0.254211,-0.618042,-0.770142,-0.548781,-0.365854,0.426829
1548435793236,-0.255371,-0.618652,-0.772888,-0.060976,-0.243902,0.670732
1548435793244,-0.256531,-0.620789,-0.767883,0.304878,-0.243902,0.792683
1548435793259,-0.260132,-0.620239,-0.763000,0.609756,-0.243902,0.731707
1548435793266,-0.262695,-0.622620,-0.760803,0.426829,0.000000,0.609756
1548435793274,-0.262207,-0.620605,-0.760681,0.365854,0.426829,0.426829
1548435793289,-0.263245,-0.622070,-0.761475,-0.121951,0.975610,-0.060976
1548435793297,-0.263062,-0.623596,-0.760376,-0.792683,1.463415,-0.853659
1548435793304,-0.264221,-0.623291,-0.760620,-1.646341,1.768293,-1.707317
1548435793327,-0.267212,-0.625427,-0.762268,-2.560976,1.890244,-2.560976
1548435793329,-0.263062,-0.629761,-0.768188,-3.170732,1.829268,-3.292683
1548435793334,-0.251953,-0.635132,-0.771729,-3.719512,1.219512,-3.536585
1548435793350,-0.250244,-0.630432,-0.773743,-4.817073,1.036585,-4.207317
1548435793356,-0.241760,-0.625183,-0.783508,-5.731708,0.731707,-4.390244
1548435793364,-0.233826,-0.622681,-0.791870,-6.341464,-0.182927,-3.963415
1548435793379,-0.223328,-0.616089,-0.795715,-6.463415,-1.341463,-3.902439
1548435793387,-0.218567,-0.619141,-0.794983,-6.219512,-2.621951,-3.597561
1548435793397,-0.217651,-0.615723,-0.796387,-6.036585,-3.658537,-3.109756
1548435793412,-0.222229,-0.621582,-0.792603,-5.243903,-4.573171,-2.621951
1548435793416,-0.229614,-0.615173,-0.791138,-4.634146,-5.243903,-1.829268
1548435793424,-0.238098,-0.609497,-0.791443,-3.963415,-5.670732,-1.280488
1548435793451,-0.245728,-0.612976,-0.783936,-2.804878,-6.158537,-0.243902
1548435793455,-0.251343,-0.609253,-0.774170,-1.585366,-6.280488,0.304878
1548435793456,-0.260681,-0.602478,-0.770386,-0.670732,-5.975610,0.609756
1548435793469,-0.266846,-0.606873,-0.763184,0.060976,-5.426829,0.609756
1548435793476,-0.269226,-0.610718,-0.756531,0.853659,-4.695122,0.121951
1548435793484,-0.269104,-0.610229,-0.755371,1.280488,-3.963415,-0.365854
1548435793499,-0.266541,-0.617615,-0.754578,0.365854,-3.048780,-1.097561
1548435793507,-0.264343,-0.623291,-0.752014,-1.219512,-1.890244,-2.317073
1548435793514,-0.256042,-0.616455,-0.756226,-3.048780,-0.670732,-3.170732
1548435793530,-0.251587,-0.619324,-0.767700,-4.939024,0.182927,-3.780488
1548435793537,-0.245117,-0.619690,-0.778931,-6.036585,0.426829,-4.512195
1548435793545,-0.239746,-0.620483,-0.786865,-7.317073,0.365854,-4.878049
1548435793559,-0.238953,-0.621277,-0.790771,-8.231708,-0.060976,-5.243903
1548435793567,-0.243530,-0.614136,-0.793091,-8.475610,-0.609756,-5.121951
1548435793574,-0.242920,-0.614258,-0.797668,-7.682927,-1.524390,-4.512195
1548435793590,-0.242859,-0.606873,-0.796570,-6.829268,-2.621951,-4.024390
1548435793597,-0.249390,-0.602112,-0.791504,-6.402439,-3.353659,-3.963415
1548435793604,-0.255249,-0.599915,-0.786377,-5.182927,-3.841464,-3.658537
1548435793620,-0.252502,-0.598572,-0.781128,-2.926829,-4.512195,-3.658537
1548435793627,-0.254272,-0.601074,-0.778748,-1.341463,-4.573171,-3.658537
1548435793634,-0.257019,-0.603455,-0.779602,-0.792683,-3.963415,-3.841464
1548435793649,-0.258118,-0.607910,-0.774109,-0.426829,-3.414634,-3.780488
1548435793657,-0.257874,-0.609253,-0.771545,-0.487805,-2.926829,-3.780488
1548435793665,-0.254272,-0.601135,-0.773315,-1.341463,-2.073171,-3.719512
1548435793679,-0.247742,-0.602600,-0.780457,-2.378049,-1.036585,-3.658537
1548435793687,-0.245483,-0.603699,-0.785461,-2.987805,-0.426829,-3.658537
1548435793694,-0.243958,-0.602234,-0.790710,-3.536585,0.060976,-3.536585
1548435793710,-0.241760,-0.605652,-0.792236,-3.719512,0.365854,-3.414634
1548435793717,-0.238525,-0.603027,-0.795898,-3.353659,0.304878,-3.231707
1548435793725,-0.237854,-0.603271,-0.801208,-3.353659,0.365854,-2.987805
1548435793740,-0.236328,-0.605042,-0.803528,-2.987805,0.121951,-2.682927
1548435793747,-0.235596,-0.607361,-0.798279,-1.951220,-0.731707,-2.134146
1548435793754,-0.237976,-0.606079,-0.793945,-1.402439,-1.219512,-1.890244
1548435793769,-0.238708,-0.604370,-0.794067,-1.219512,-1.707317,-1.646341
1548435793776,-0.239868,-0.601440,-0.792969,-1.097561,-2.317073,-1.280488
1548435793784,-0.241211,-0.602844,-0.790649,-0.731707,-2.621951,-0.975610
1548435793799,-0.243347,-0.601196,-0.785278,-0.243902,-2.926829,-0.670732
1548435793806,-0.242310,-0.600464,-0.780151,-0.060976,-2.682927,-0.792683
1548435793814,-0.245056,-0.603210,-0.785706,-0.121951,-2.317073,-0.853659
1548435793829,-0.242615,-0.603027,-0.788635,0.060976,-2.256098,-0.792683
1548435793836,-0.239380,-0.607483,-0.792725,-0.487805,-1.951220,-0.853659
1548435793844,-0.241638,-0.607056,-0.791931,-0.914634,-1.707317,-0.670732
1548435793859,-0.240479,-0.601685,-0.792297,-0.731707,-1.829268,-0.121951
1548435793866,-0.241760,-0.599182,-0.795410,-0.792683,-1.890244,0.182927
1548435793874,-0.239319,-0.598328,-0.796509,-0.365854,-2.256098,0.426829
1548435793889,-0.240356,-0.601624,-0.796753,0.426829,-2.743902,0.853659
1548435793896,-0.244934,-0.603149,-0.790771,1.036585,-3.231707,1.341463
1548435793904,-0.249084,-0.601440,-0.783997,1.402439,-3.536585,1.463415
1548435793919,-0.254272,-0.603149,-0.778809,1.280488,-3.536585,1.463415
1548435793926,-0.259094,-0.603943,-0.776672,1.036585,-3.353659,1.402439
1548435793934,-0.258606,-0.598877,-0.774414,0.670732,-2.743902,1.097561
1548435793949,-0.256348,-0.603943,-0.778076,0.182927,-1.524390,0.731707
1548435793956,-0.255615,-0.600952,-0.780457,-0.060976,-0.853659,0.243902
1548435793964,-0.253967,-0.603577,-0.781189,-0.792683,-0.304878,-0.365854
1548435793979,-0.254761,-0.605896,-0.782227,-1.280488,-0.182927,-0.548781
1548435793986,-0.253235,-0.603821,-0.782654,-1.768293,-0.121951,-0.975610
1548435793994,-0.250793,-0.603149,-0.785583,-2.256098,-0.060976,-1.341463
1548435794009,-0.250061,-0.601135,-0.789001,-2.560976,-0.304878,-1.402439
1548435794016,-0.251953,-0.597107,-0.786377,-2.987805,-0.426829,-2.012195
1548435794024,-0.252747,-0.598328,-0.784302,-2.682927,-0.487805,-2.378049
1548435794039,-0.255066,-0.602234,-0.782837,-2.256098,-0.792683,-2.743902
1548435794046,-0.252075,-0.607483,-0.784119,-2.378049,-1.036585,-3.292683
1548435794054,-0.246277,-0.607178,-0.787048,-3.292683,-1.158537,-3.780488
1548435794069,-0.245972,-0.608032,-0.791321,-4.207317,-1.280488,-3.902439
1548435794076,-0.249207,-0.603027,-0.792358,-5.060976,-1.524390,-4.146341
1548435794084,-0.238953,-0.605469,-0.801514,-5.304878,-2.439024,-3.597561
1548435794099,-0.221802,-0.606323,-0.806641,-4.939024,-3.902439,-2.743902
1548435794106,-0.237854,-0.588623,-0.804504,-6.219512,-3.780488,-3.353659
1548435794114,-0.241638,-0.592407,-0.795715,-6.219512,-4.268293,-3.292683
1548435794129,-0.242676,-0.613831,-0.793884,-4.695122,-4.756098,-2.560976
1548435794136,-0.239380,-0.596558,-0.793701,-2.560976,-4.939024,-1.829268
1548435794144,-0.236084,-0.570740,-0.798035,-2.439024,-4.878049,-0.914634
1548435794159,-0.236023,-0.570007,-0.791748,-2.682927,-4.695122,-1.280488
1548435794166,-0.248535,-0.583008,-0.781738,-1.829268,-4.512195,-1.524390
1548435794174,-0.261230,-0.588867,-0.777649,-1.402439,-4.024390,-2.317073
1548435794189,-0.269165,-0.592651,-0.775146,-1.646341,-3.231707,-3.170732
1548435794196,-0.273193,-0.598511,-0.777832,-1.951220,-2.560976,-3.963415
1548435794204,-0.270508,-0.600037,-0.780945,-2.073171,-1.951220,-4.817073
1548435794219,-0.262329,-0.599976,-0.787903,-3.048780,-1.280488,-5.426829
1548435794226,-0.255432,-0.599731,-0.797363,-4.512195,-0.975610,-6.158537
1548435794234,-0.244263,-0.595215,-0.804688,-5.609756,-1.341463,-6.585366
1548435794249,-0.236206,-0.591003,-0.808716,-6.219512,-1.890244,-6.768293
1548435794256,-0.232971,-0.596436,-0.809753,-5.914634,-2.682927,-6.768293
1548435794264,-0.232544,-0.602844,-0.813293,-5.121951,-3.658537,-6.341464
1548435794286,-0.220520,-0.602356,-0.818054,-4.756098,-4.756098,-5.548780
1548435794287,-0.207581,-0.582642,-0.818176,-3.719512,-5.975610,-4.207317
1548435794294,-0.202454,-0.575500,-0.818909,-3.048780,-6.890244,-3.292683
1548435794309,-0.205444,-0.580078,-0.822205,-3.048780,-7.621952,-2.926829
1548435794316,-0.215759,-0.580994,-0.819153,-2.500000,-7.987805,-2.073171
1548435794324,-0.230042,-0.566895,-0.810974,-1.402439,-8.170732,-1.158537
1548435794339,-0.240173,-0.569641,-0.804138,0.182927,-7.987805,-0.060976
1548435794346,-0.249817,-0.576965,-0.800659,2.378049,-7.804878,0.975610
1548435794354,-0.251831,-0.580627,-0.804993,3.841464,-6.890244,1.524390
1548435794369,-0.249634,-0.582520,-0.805847,4.451220,-6.158537,2.743902
1548435794376,-0.252502,-0.585571,-0.794617,5.182927,-5.426829,3.719512
1548435794384,-0.254822,-0.575134,-0.783752,6.219512,-4.756098,4.695122
1548435794399,-0.259155,-0.579041,-0.783142,7.317073,-3.719512,5.426829
1548435794406,-0.261597,-0.587891,-0.777771,8.109756,-2.926829,5.792683
1548435794414,-0.266541,-0.589111,-0.770691,7.804878,-2.012195,5.731708
1548435794429,-0.268372,-0.590210,-0.764404,6.829268,-0.792683,5.182927
1548435794436,-0.270874,-0.589722,-0.763489,6.158537,0.487805,4.512195
1548435794444,-0.269470,-0.595276,-0.766663,5.670732,1.768293,3.780488
1548435794459,-0.261292,-0.596313,-0.774048,4.695122,2.987805,3.109756
1548435794466,-0.252502,-0.589478,-0.783325,2.865854,4.085366,2.500000
1548435794474,-0.251404,-0.596069,-0.791992,1.280488,4.817073,2.317073
1548435794489,-0.248962,-0.596252,-0.796143,0.792683,5.060976,2.256098
1548435794496,-0.249512,-0.591064,-0.800293,0.731707,4.817073,2.256098
1548435794504,-0.253113,-0.591736,-0.800903,0.853659,4.756098,2.134146
1548435794519,-0.253601,-0.595642,-0.800964,1.829268,4.329268,1.890244
1548435794526,-0.253479,-0.601807,-0.802673,2.500000,3.780488,1.707317
1548435794534,-0.252197,-0.601624,-0.802307,2.500000,3.109756,1.768293
1548435794549,-0.249939,-0.602539,-0.795959,2.682927,2.378049,2.134146
1548435794556,-0.245056,-0.593994,-0.793091,2.987805,1.585366,2.500000
1548435794564,-0.244446,-0.585327,-0.791077,2.865854,1.402439,2.621951
1548435794579,-0.245667,-0.589783,-0.791992,2.743902,1.585366,2.560976
1548435794586,-0.245361,-0.590820,-0.789856,3.109756,1.646341,2.378049
1548435794594,-0.246155,-0.592224,-0.783447,3.536585,1.890244,2.378049
1548435794609,-0.250671,-0.592163,-0.780701,3.658537,2.073171,2.256098
1548435794616,-0.254211,-0.593323,-0.787415,3.353659,2.560976,2.195122
1548435794624,-0.255737,-0.596741,-0.785156,3.231707,2.865854,2.256098
1548435794639,-0.254944,-0.593140,-0.782593,3.536585,3.231707,2.256098
1548435794646,-0.254456,-0.595215,-0.788757,4.024390,3.780488,2.256098
1548435794654,-0.254456,-0.598633,-0.791321,3.902439,4.024390,2.012195
1548435794669,-0.250366,-0.607666,-0.796814,3.475610,3.780488,1.951220
1548435794677,-0.250305,-0.613342,-0.795471,3.536585,3.292683,1.951220
1548435794684,-0.249878,-0.608154,-0.793701,3.353659,2.865854,2.439024
1548435794699,-0.247253,-0.601074,-0.799011,3.109756,2.682927,2.926829
1548435794706,-0.245422,-0.598999,-0.798401,3.231707,1.951220,3.353659
1548435794714,-0.244812,-0.602234,-0.799316,3.353659,1.402439,3.292683
1548435794729,-0.244934,-0.601501,-0.791748,3.658537,0.792683,3.109756
1548435794736,-0.242676,-0.601929,-0.790344,4.390244,0.243902,2.987805
1548435794744,-0.242798,-0.601318,-0.783447,4.695122,-0.182927,2.987805
1548435794759,-0.247253,-0.604065,-0.776367,4.756098,-0.304878,2.987805
1548435794766,-0.247009,-0.600647,-0.772888,4.512195,-0.365854,2.682927
1548435794774,-0.247498,-0.594238,-0.767578,3.963415,0.182927,2.317073
1548435794789,-0.253235,-0.601379,-0.770691,3.658537,0.792683,1.646341
1548435794796,-0.252686,-0.608154,-0.776306,3.597561,1.463415,0.914634
1548435794804,-0.248718,-0.613708,-0.783630,2.926829,1.951220,0.548781
1548435794819,-0.248169,-0.613220,-0.789124,1.951220,2.621951,0.609756
1548435794851,-0.243713,-0.605469,-0.796021,1.280488,3.231707,1.158537
1548435794851,-0.240906,-0.601440,-0.801575,1.768293,3.048780,2.073171
1548435794851,-0.238953,-0.594910,-0.797668,2.560976,2.621951,2.743902
1548435794881,-0.237244,-0.598816,-0.800720,3.719512,2.500000,3.292683
1548435794881,-0.240540,-0.611694,-0.791626,4.878049,1.829268,3.597561
1548435794881,-0.233459,-0.594421,-0.798279,5.487805,1.097561,4.146341
1548435794905,-0.237732,-0.602844,-0.792664,5.060976,1.036585,4.756098
1548435794905,-0.241028,-0.606750,-0.781311,5.182927,0.609756,5.182927
1548435794913,-0.242676,-0.602234,-0.785889,5.975610,1.158537,5.487805
1548435794917,-0.249207,-0.608582,-0.775757,6.463415,1.463415,6.402439
1548435794929,-0.249451,-0.601624,-0.777527,6.951220,1.768293,6.463415
1548435794949,-0.254333,-0.602539,-0.779785,7.134147,2.621951,6.768293
1548435794950,-0.254944,-0.605103,-0.777161,7.378049,3.170732,7.134147
1548435794973,-0.254822,-0.610168,-0.787964,7.500000,3.902439,6.829268
1548435794974,-0.255371,-0.606140,-0.781555,7.621952,3.963415,7.195122
1548435794981,-0.248718,-0.612549,-0.789795,8.109756,4.207317,7.500000
1548435794986,-0.244568,-0.611633,-0.787598,9.268292,4.451220,8.292683
1548435795002,-0.242004,-0.608093,-0.786621,10.487805,3.963415,9.146341
1548435795007,-0.243164,-0.611450,-0.781738,10.914635,3.963415,9.573171
1548435795023,-0.244324,-0.610107,-0.776184,11.219512,3.536585,10.121951
1548435795029,-0.251282,-0.607849,-0.772949,10.914635,3.658537,9.817074
1548435795045,-0.259766,-0.617615,-0.762024,10.792684,3.902439,9.451220
1548435795045,-0.264282,-0.622864,-0.758728,11.219512,3.963415,8.780488
1548435795062,-0.269775,-0.629150,-0.754333,11.768293,4.146341,8.170732
1548435795083,-0.275208,-0.633057,-0.755615,12.134147,4.512195,7.743903
1548435795094,-0.273560,-0.633545,-0.758728,12.560976,4.817073,7.012195
1548435795095,-0.271423,-0.627197,-0.762390,12.500000,4.878049,6.585366
1548435795096,-0.261169,-0.631592,-0.766785,12.256098,5.243903,5.670732
1548435795104,-0.256165,-0.631348,-0.765625,11.097561,5.304878,4.939024
1548435795119,-0.259094,-0.633057,-0.764587,9.878049,4.878049,4.573171
1548435795127,-0.249329,-0.629395,-0.765747,8.841464,4.512195,4.451220
1548435795134,-0.241882,-0.630798,-0.771362,8.048780,4.451220,4.451220
1548435795149,-0.238708,-0.632202,-0.771667,7.987805,3.780488,4.756098
1548435795156,-0.237854,-0.632507,-0.767334,8.292683,2.743902,4.756098
1548435795164,-0.234619,-0.634460,-0.766663,8.292683,1.768293,4.756098
1548435795179,-0.242249,-0.641235,-0.762939,8.353659,1.036585,4.756098
1548435795187,-0.246460,-0.643677,-0.762878,9.451220,0.548781,4.390244
1548435795194,-0.249878,-0.648010,-0.758484,9.756098,0.487805,4.146341
1548435795209,-0.257568,-0.651733,-0.754883,9.207317,-0.365854,4.024390
1548435795216,-0.255127,-0.656738,-0.754028,7.378049,-1.646341,4.024390
1548435795224,-0.249817,-0.664429,-0.745728,4.817073,-2.682927,3.780488
1548435795239,-0.243713,-0.654663,-0.733948,0.609756,-4.390244,3.902439
1548435795246,-0.235535,-0.650513,-0.733521,-6.158537,-5.426829,3.902439
1548435795254,-0.231812,-0.659790,-0.741272,-12.195122,-5.609756,3.353659
1548435795269,-0.231628,-0.629028,-0.749329,-16.341463,-6.097561,2.865854
1548435795287,-0.230835,-0.628845,-0.764526,-18.902439,-5.182927,2.378049
1548435795288,-0.245056,-0.654541,-0.738953,-17.682928,-5.000000,2.865854
1548435795299,-0.251160,-0.647888,-0.748474,-16.768293,-5.060976,2.987805
1548435795306,-0.250732,-0.664734,-0.752075,-21.097561,-3.292683,3.597561
1548435795323,-0.260986,-0.701050,-0.752319,-23.536587,-2.926829,5.548780
1548435795329,-0.272034,-0.687683,-0.758118,-27.378050,-2.500000,7.500000
1548435795337,-0.268494,-0.707764,-0.772400,-32.926830,-0.609756,10.609756
1548435795351,-0.266235,-0.688782,-0.775513,-36.341465,0.670732,14.390244
1548435795359,-0.275818,-0.679810,-0.755737,-41.158539,2.621951,17.012196
1548435795366,-0.304565,-0.709839,-0.704773,-42.195122,3.658537,20.426830
1548435795374,-0.347961,-0.776855,-0.702271,-35.182926,4.207317,25.426830
1548435795389,-0.319824,-0.797302,-0.685669,-17.500000,3.719512,34.329269
1548435795396,-0.335938,-0.764404,-0.668762,-3.048780,4.146341,43.597561
1548435795404,-0.373474,-0.774170,-0.679749,-4.695122,9.939025,49.024391
1548435795419,-0.379883,-0.796265,-0.668823,-7.012195,14.390244,58.536587
1548435795426,-0.391113,-0.802185,-0.653076,-7.256098,18.292683,66.097565
1548435795434,-0.390442,-0.786072,-0.637634,-7.256098,22.987806,73.109756
1548435795449,-0.376160,-0.751465,-0.627014,-3.475610,27.682928,82.682930
1548435795456,-0.361755,-0.736267,-0.636169,6.768293,31.890245,92.682930
1548435795464,-0.348450,-0.703918,-0.643005,17.804878,35.670734,98.841469
1548435795479,-0.318970,-0.671753,-0.642578,25.548780,41.097561,103.475609
1548435795486,-0.300964,-0.617615,-0.622803,32.804878,47.195122,108.475609
1548435795494,-0.312195,-0.511169,-0.610046,42.804878,53.841465,112.073174
1548435795509,-0.319763,-0.454346,-0.606140,61.219513,59.512196,115.000000
1548435795516,-0.340881,-0.470337,-0.611755,88.109756,62.865856,115.000000
1548435795524,-0.341431,-0.462036,-0.634460,119.024391,65.426834,112.317078
1548435795539,-0.317200,-0.421570,-0.652405,144.878052,71.097565,109.939026
1548435795546,-0.282715,-0.412292,-0.660645,170.548782,76.890244,107.134148
1548435795554,-0.247925,-0.446899,-0.671875,201.890244,80.304878,101.219513
1548435795569,-0.207703,-0.502563,-0.681458,234.817078,81.158539,92.743904
1548435795576,-0.156006,-0.643066,-0.717896,261.585358,82.317078,84.207321
1548435795584,-0.099365,-0.816650,-0.779358,274.268311,83.963417,72.682930
1548435795599,-0.095154,-0.846680,-0.804688,269.451233,87.012199,60.487804
1548435795606,-0.116272,-0.689819,-0.792908,250.000000,92.682930,50.304878
1548435795614,-0.107300,-0.584595,-0.780334,229.939026,98.536591,40.670734
1548435795629,-0.088806,-0.661438,-0.755066,227.621964,96.158539,31.829269
1548435795636,-0.081726,-0.821472,-0.739197,237.560974,85.548782,24.207317
1548435795644,-0.088867,-0.917114,-0.739563,238.597565,77.804878,19.817074
1548435795659,-0.093506,-0.906372,-0.732178,220.609756,75.670731,15.243903
1548435795666,-0.095093,-0.885925,-0.715271,194.756104,74.573174,10.182927
1548435795674,-0.109619,-0.829285,-0.676941,170.670731,71.768295,3.536585
1548435795689,-0.124634,-0.833801,-0.587524,156.768295,64.695122,2.378049
1548435795696,-0.151245,-0.949097,-0.543884,151.707321,55.304878,-0.365854
1548435795704,-0.200195,-1.263550,-0.546021,144.390244,45.060978,-3.536585
1548435795719,-0.302795,-1.289917,-0.458618,123.170738,29.207317,3.780488
1548435795726,-0.257019,-1.004211,-0.400146,73.719513,23.536587,13.170732
1548435795734,-0.171387,-0.864807,-0.361511,32.804878,27.560976,24.024391
1548435795749,-0.180603,-0.898865,-0.336670,30.121952,25.121952,21.890244
1548435795756,-0.217773,-0.897217,-0.253723,44.207317,17.804878,15.182927
1548435795764,-0.152283,-0.842896,0.095154,51.890244,12.256098,12.195122
1548435795779,-0.089172,-1.058289,-0.054810,43.536587,16.341463,9.451220
1548435795786,-0.547546,-1.055115,-0.452209,30.914635,15.304878,10.487805
1548435795794,-0.537415,-0.973755,-0.484558,36.585365,1.524390,19.878050
1548435795809,-0.294678,-1.021912,-0.497009,29.390245,20.670732,17.926830
1548435795817,-0.182190,-0.929199,-0.433594,13.292684,29.207317,23.841463
1548435795826,-0.253967,-0.951294,-0.333557,11.463415,15.060976,23.719513
1548435795857,-0.328552,-0.970215,-0.280640,14.756098,4.451220,17.621952
1548435795857,-0.340515,-0.899170,-0.279663,13.841464,4.207317,14.939025
1548435795857,-0.326660,-0.851440,-0.304443,13.048780,5.243903,13.231708
1548435795869,-0.356445,-0.845825,-0.315552,17.317074,5.670732,11.646341