timestamp, accel_x, accel_y, accel_z, gyro_x, gyro_y, gyro_z
1548455855485,0.020264,-0.878784,0.511963,5.670732,1.158537,-0.365854
1548455855500,0.014343,-0.887146,0.521729,6.036585,0.243902,-0.304878
1548455855509,0.007812,-0.883789,0.525879,5.914634,-1.280488,-0.426829
1548455855556,0.011108,-0.889709,0.524963,5.609756,-1.768293,-0.487805
1548455855556,0.019958,-0.899658,0.518555,5.548780,-0.792683,-0.121951
1548455855556,0.019104,-0.898193,0.524719,5.365854,-0.914634,-0.182927
1548455855556,0.012085,-0.896057,0.528748,5.000000,-2.804878,-0.670732
1548455855597,0.013428,-0.892883,0.529236,3.902439,-3.475610,-0.792683
1548455855597,0.017578,-0.888977,0.527771,2.987805,-2.560976,-0.304878
1548455855597,0.020325,-0.885315,0.529175,2.682927,-1.951220,0.060976
1548455855597,0.016602,-0.882629,0.536377,2.621951,-1.646341,0.731707
1548455855611,0.014771,-0.885803,0.541809,2.500000,-1.585366,1.097561
1548455855611,0.018494,-0.884949,0.540344,1.829268,-0.670732,1.463415
1548455855623,0.024475,-0.874695,0.534180,0.975610,1.341463,2.439024
1548455855633,0.017029,-0.871643,0.536621,0.304878,1.158537,3.353659
1548455855635,0.005493,-0.875671,0.538086,-0.487805,-0.548781,3.231707
1548455855672,0.004272,-0.876587,0.540955,-1.097561,-0.975610,2.621951
1548455855673,0.013733,-0.878174,0.540100,-1.951220,0.060976,1.951220
1548455855673,0.019836,-0.880127,0.535889,-3.170732,1.280488,1.585366
1548455855687,0.019226,-0.882446,0.533752,-4.329268,2.134146,1.768293
1548455855691,0.018188,-0.878235,0.531006,-5.060976,2.134146,2.256098
1548455855699,0.015564,-0.871704,0.528687,-5.365854,1.829268,2.378049
1548455855717,0.014160,-0.870300,0.531250,-5.731708,1.280488,2.073171
1548455855720,0.014221,-0.875916,0.528137,-5.792683,0.853659,1.829268
1548455855726,0.011963,-0.876160,0.525208,-5.548780,0.853659,1.890244
1548455855745,0.010925,-0.873352,0.522827,-5.304878,0.853659,2.317073
1548455855750,0.000671,-0.874146,0.523193,-5.304878,0.243902,2.378049
1548455855757,-0.004883,-0.879700,0.521912,-5.000000,-0.304878,2.073171
1548455855771,0.000671,-0.880188,0.518127,-4.817073,0.304878,1.707317
1548455855778,0.004333,-0.878723,0.519714,-4.451220,1.036585,1.402439
1548455855785,0.002258,-0.880005,0.517578,-4.207317,0.853659,1.036585
1548455855803,0.002747,-0.879517,0.517334,-3.902439,0.487805,0.487805
1548455855808,0.006958,-0.881531,0.518555,-3.414634,0.304878,0.609756
1548455855815,0.008118,-0.883179,0.516602,-3.109756,0.426829,0.975610
1548455855831,0.005310,-0.882629,0.516113,-2.987805,-0.121951,1.036585
1548455855838,0.004456,-0.884155,0.514954,-3.048780,-0.548781,0.914634
1548455855845,0.004456,-0.885742,0.514099,-3.292683,-0.060976,1.036585
1548455855861,-0.000671,-0.884949,0.515442,-3.475610,-0.426829,0.792683
1548455855868,0.003418,-0.886475,0.513916,-3.719512,-0.609756,0.426829
1548455855875,0.006165,-0.885132,0.507996,-4.085366,-0.304878,0.304878
1548455855891,0.006714,-0.882812,0.507507,-4.451220,-0.304878,0.182927
1548455855898,0.008606,-0.877686,0.506531,-4.451220,-0.426829,0.121951
1548455855905,0.008057,-0.874268,0.505981,-4.268293,-0.548781,0.121951
1548455855921,0.008057,-0.875183,0.506409,-3.658537,-0.609756,0.000000
1548455855928,0.007812,-0.877136,0.504700,-3.048780,-0.670732,0.000000
1548455855935,0.009216,-0.881409,0.505066,-2.682927,-0.487805,-0.121951
1548455855951,0.013245,-0.885132,0.505615,-2.439024,-0.487805,-0.060976
1548455855958,0.011536,-0.883911,0.504028,-2.195122,-0.487805,0.304878
1548455855965,0.009460,-0.882568,0.504761,-1.951220,-0.731707,0.365854
1548455855981,0.008667,-0.882874,0.503662,-1.829268,-1.341463,0.243902
1548455855988,0.006836,-0.883179,0.500610,-1.646341,-1.585366,0.182927
1548455855995,0.002991,-0.879272,0.505310,-1.280488,-1.707317,0.304878
1548455856010,0.002747,-0.876770,0.505432,-0.853659,-1.707317,0.304878
1548455856018,0.007385,-0.879822,0.503235,-0.243902,-1.463415,0.182927
1548455856026,0.011292,-0.882568,0.503845,0.670732,-1.402439,0.000000
1548455856040,0.012207,-0.885254,0.508606,1.341463,-1.463415,-0.182927
1548455856048,0.009888,-0.885437,0.510986,1.585366,-1.707317,-0.182927
1548455856055,0.009094,-0.883484,0.509094,1.646341,-1.951220,0.304878
1548455856070,0.007874,-0.885193,0.508118,1.646341,-2.012195,0.853659
1548455856078,0.004272,-0.883789,0.511414,1.768293,-2.012195,1.036585
1548455856085,0.002563,-0.885010,0.512329,1.524390,-2.195122,0.609756
1548455856100,0.005798,-0.885803,0.510254,1.158537,-1.707317,0.121951
1548455856108,0.010986,-0.885864,0.506470,0.853659,-0.731707,0.060976
1548455856115,0.011414,-0.886108,0.510315,0.853659,-0.243902,0.000000
1548455856130,0.009277,-0.885010,0.509277,0.731707,-0.670732,-0.121951
1548455856138,0.005554,-0.879150,0.510254,0.853659,-0.914634,-0.060976
1548455856145,0.007019,-0.877991,0.507874,1.036585,-0.975610,0.121951
1548455856168,0.012756,-0.877869,0.507324,1.280488,-0.792683,0.060976
1548455856168,0.010681,-0.879944,0.509827,1.707317,-0.914634,-0.121951
1548455856175,0.008911,-0.883240,0.511536,1.829268,-1.219512,-0.182927
1548455856190,0.009521,-0.888733,0.513489,1.707317,-1.158537,0.060976
1548455856198,0.008240,-0.890991,0.515991,1.524390,-1.158537,-0.121951
1548455856205,0.009399,-0.893066,0.514893,1.097561,-0.914634,-0.243902
1548455856220,0.007690,-0.891907,0.512756,0.609756,-0.670732,0.060976
1548455856228,0.009277,-0.891113,0.512878,0.304878,-0.731707,0.182927
1548455856235,0.007996,-0.890076,0.512512,0.000000,-0.792683,0.243902
1548455856250,0.006897,-0.889343,0.511719,-0.243902,-0.975610,0.304878
1548455856258,0.009521,-0.890991,0.510742,-0.243902,-0.853659,0.365854
1548455856265,0.011658,-0.886780,0.509827,-0.182927,-0.731707,0.426829
1548455856280,0.012451,-0.887878,0.509949,-0.304878,-0.670732,0.548781
1548455856288,0.009644,-0.884949,0.511536,-0.426829,-0.792683,0.792683
1548455856295,0.006958,-0.884094,0.510193,-0.365854,-1.036585,1.097561
1548455856311,0.005249,-0.884705,0.509094,-0.365854,-1.219512,1.097561
1548455856318,0.005249,-0.884460,0.510925,-0.304878,-0.975610,1.158537
1548455856325,0.009460,-0.888184,0.509766,-0.609756,-0.609756,1.097561
1548455856341,0.007751,-0.892029,0.513123,-1.036585,-1.036585,0.914634
1548455856348,0.004211,-0.894592,0.512024,-1.585366,-1.585366,0.731707
1548455856355,0.005188,-0.892273,0.510559,-2.012195,-1.463415,1.036585
1548455856370,0.004639,-0.890198,0.510437,-2.378049,-1.219512,1.341463
1548455856378,0.003723,-0.890015,0.511475,-2.682927,-1.341463,1.524390
1548455856385,0.005920,-0.889771,0.510742,-2.439024,-1.463415,1.646341
1548455856400,0.012451,-0.893616,0.510010,-2.134146,-1.097561,1.646341
1548455856408,0.013855,-0.891113,0.512939,-1.768293,-1.280488,1.585366
1548455856415,0.012817,-0.884277,0.509583,-2.134146,-1.585366,1.524390
1548455856430,0.012451,-0.877075,0.505371,-2.804878,-1.768293,1.707317
1548455856438,0.008911,-0.870911,0.506165,-2.987805,-1.463415,2.012195
1548455856445,0.006348,-0.871094,0.505676,-2.317073,-1.402439,2.621951
1548455856460,0.004395,-0.875427,0.503601,-1.524390,-1.158537,2.926829
1548455856483,0.003418,-0.882202,0.505249,-0.975610,-0.731707,2.865854
1548455856483,0.002075,-0.885193,0.508301,-0.731707,-0.609756,2.621951
1548455856490,0.002441,-0.885010,0.505920,-1.036585,-0.731707,2.378049
1548455856498,0.005249,-0.885376,0.499451,-1.585366,-0.182927,2.378049
1548455856505,0.007080,-0.883972,0.496338,-1.951220,0.060976,2.439024
1548455856520,0.001221,-0.880493,0.499207,-1.890244,-0.731707,2.073171
1548455856528,-0.005188,-0.879761,0.497559,-1.463415,-1.280488,1.402439
1548455856536,-0.003113,-0.881348,0.494629,-0.853659,-1.097561,0.975610
1548455856550,0.001282,-0.887512,0.495178,-0.304878,-0.792683,0.731707
1548455856558,0.000244,-0.893860,0.498169,0.243902,-0.914634,0.243902
1548455856565,0.000122,-0.895691,0.499695,0.548781,-1.585366,-0.121951
1548455856581,-0.004211,-0.893860,0.497803,0.548781,-1.768293,-0.243902
1548455856588,-0.003235,-0.892029,0.499512,0.609756,-1.280488,-0.243902
1548455856595,0.001587,-0.894104,0.503967,0.731707,-0.975610,-0.426829
1548455856610,0.004395,-0.891907,0.503052,0.792683,-0.914634,-0.670732
1548455856618,0.008057,-0.886536,0.500671,0.731707,-0.914634,-0.792683
1548455856626,0.010559,-0.884033,0.500366,0.792683,-1.097561,-0.487805
1548455856640,0.009094,-0.884705,0.500061,0.975610,-1.341463,-0.304878
1548455856648,0.008972,-0.886597,0.501404,1.402439,-1.585366,-0.121951
1548455856656,0.007019,-0.887573,0.503113,1.646341,-1.646341,0.060976
1548455856671,0.006470,-0.887329,0.505432,1.890244,-1.585366,0.243902
1548455856678,0.008362,-0.890076,0.508118,1.951220,-1.463415,0.426829
1548455856685,0.010315,-0.892944,0.510193,1.768293,-1.463415,0.548781
1548455856700,0.011841,-0.898010,0.509521,1.646341,-1.280488,0.609756
1548455856708,0.013733,-0.899902,0.509521,1.341463,-1.036585,0.853659
1548455856716,0.013489,-0.896179,0.508118,1.097561,-0.670732,1.402439
1548455856730,0.010864,-0.892639,0.508667,0.792683,-0.914634,1.951220
1548455856738,0.007874,-0.891846,0.509216,0.548781,-1.219512,2.500000
1548455856745,0.003174,-0.895569,0.512146,0.548781,-1.280488,3.048780
1548455856760,-0.000244,-0.898926,0.512146,0.121951,-0.975610,3.414634
1548455856768,-0.002502,-0.905884,0.511169,-0.548781,-0.304878,3.658537
1548455856775,-0.002625,-0.906372,0.511047,-1.219512,0.548781,3.963415
1548455856790,-0.001892,-0.908203,0.509644,-2.317073,1.280488,4.268293
1548455856798,-0.005127,-0.906311,0.510071,-3.048780,1.585366,4.695122
1548455856806,-0.003540,-0.906067,0.509460,-3.414634,2.195122,5.365854
1548455856828,-0.003540,-0.911926,0.512329,-3.902439,2.500000,5.853659
1548455856828,-0.007263,-0.908020,0.512329,-4.451220,2.073171,6.341464
1548455856836,-0.010925,-0.898560,0.505981,-5.792683,2.378049,7.378049
1548455856850,-0.012024,-0.899170,0.499390,-7.804878,3.109756,8.170732
1548455856858,-0.012756,-0.894348,0.498962,-9.146341,3.353659,8.353659
1548455856866,-0.014526,-0.888550,0.497803,-9.268292,3.170732,8.109756
1548455856880,-0.014526,-0.906006,0.492615,-9.085366,3.292683,7.804878
1548455856888,-0.012512,-0.917358,0.494873,-8.902439,3.658537,7.987805
1548455856895,-0.016479,-0.912964,0.493408,-8.780488,3.719512,8.231708
1548455856911,-0.020569,-0.902039,0.487671,-9.512196,3.414634,8.658537
1548455856918,-0.020813,-0.896851,0.482666,-10.304878,3.597561,9.207317
1548455856925,-0.019226,-0.900330,0.481506,-10.609756,4.146341,9.512196
1548455856940,-0.015564,-0.897766,0.483704,-9.878049,4.573171,10.000000
1548455856948,-0.013916,-0.898987,0.481567,-9.329268,4.817073,10.792684
1548455856955,-0.013184,-0.905640,0.476196,-9.268292,4.207317,11.890244
1548455856970,-0.020935,-0.909973,0.473206,-9.085366,3.658537,12.804878
1548455856978,-0.031738,-0.918823,0.474243,-8.902439,2.317073,13.658537
1548455856985,-0.042236,-0.915161,0.478333,-8.231708,0.792683,14.329268
1548455857000,-0.049255,-0.911621,0.479736,-8.109756,0.731707,14.695123
1548455857008,-0.049988,-0.910461,0.479309,-8.658537,1.402439,15.243903
1548455857015,-0.046936,-0.909546,0.476257,-8.780488,3.048780,16.219513
1548455857030,-0.046936,-0.911682,0.473450,-8.658537,3.963415,16.951220
1548455857038,-0.050354,-0.917908,0.475037,-8.719512,3.963415,17.621952
1548455857045,-0.051697,-0.920471,0.470459,-8.719512,4.085366,18.292683
1548455857060,-0.048950,-0.922119,0.468872,-8.536586,4.634146,19.390244
1548455857068,-0.047424,-0.924316,0.471252,-8.597561,4.573171,20.487804
1548455857075,-0.053101,-0.923096,0.468994,-8.841464,3.902439,20.914635
1548455857090,-0.065002,-0.921265,0.463074,-9.817074,3.231707,21.341463
1548455857098,-0.077698,-0.920105,0.463745,-10.670732,3.231707,22.073172
1548455857105,-0.086060,-0.916626,0.464417,-10.731708,3.292683,23.292683
1548455857120,-0.085999,-0.913086,0.462524,-10.609756,4.024390,24.390244
1548455857128,-0.085632,-0.911987,0.457825,-10.914635,5.121951,24.207317
1548455857135,-0.084656,-0.909302,0.457520,-11.036586,5.853659,23.719513
1548455857158,-0.083618,-0.908508,0.462524,-11.158537,6.036585,23.292683
1548455857158,-0.089600,-0.910828,0.455383,-11.280488,6.036585,22.987806
1548455857165,-0.099243,-0.913208,0.454712,-10.182927,5.670732,23.475611
1548455857180,-0.105835,-0.917358,0.452637,-9.939025,5.426829,23.597561
1548455857188,-0.114197,-0.913818,0.450745,-10.304878,5.548780,22.865854
1548455857195,-0.095154,-0.910583,0.444153,-11.036586,6.097561,22.621952
1548455857210,-0.063416,-0.917419,0.428772,-13.658537,10.000000,20.426830
1548455857218,-0.092896,-0.917908,0.442383,-17.317074,7.804878,11.707317
1548455857225,-0.124451,-0.915344,0.442139,-18.414635,-1.036585,8.475610
1548455857240,-0.141602,-0.904907,0.438660,-19.390244,-1.524390,10.731708
1548455857248,-0.144592,-0.895142,0.427979,-18.414635,0.243902,12.987805
1548455857255,-0.131165,-0.910522,0.417175,-15.243903,2.987805,14.024390
1548455857270,-0.121033,-0.922363,0.422668,-14.756098,5.731708,13.292684
1548455857278,-0.125427,-0.919861,0.426331,-14.817074,4.878049,12.134147
1548455857285,-0.127625,-0.933167,0.414551,-12.682927,3.719512,12.987805
1548455857300,-0.123901,-0.945435,0.408997,-12.865854,5.182927,13.841464
1548455857308,-0.135437,-0.910889,0.425964,-17.804878,5.670732,12.621951
1548455857315,-0.149841,-0.894348,0.422974,-18.475611,2.560976,11.768293
1548455857330,-0.151489,-0.902405,0.408264,-16.402439,2.926829,11.646341
1548455857338,-0.145325,-0.911560,0.398132,-14.146341,4.695122,12.621951
1548455857345,-0.145630,-0.935425,0.400085,-11.341464,6.341464,13.170732
1548455857360,-0.144775,-0.947571,0.403503,-8.536586,6.463415,13.231708
1548455857368,-0.149536,-0.936707,0.409241,-7.134147,6.707317,13.170732
1548455857375,-0.162720,-0.914001,0.406372,-7.012195,5.121951,13.231708
1548455857390,-0.176941,-0.886292,0.404602,-8.780488,5.060976,13.048780
1548455857398,-0.187927,-0.868774,0.406555,-8.475610,5.000000,13.170732
1548455857405,-0.180054,-0.883850,0.399597,-1.829268,6.036585,15.000000
1548455857420,-0.166382,-0.908264,0.394836,6.890244,9.024390,16.768293
1548455857428,-0.140503,-0.932373,0.384460,13.414635,10.975610,17.378050
1548455857435,-0.116577,-0.950562,0.377930,14.756098,12.743903,17.012196
1548455857450,-0.143372,-0.953064,0.392151,10.914635,10.121951,13.475610
1548455857458,-0.175110,-0.956299,0.396790,7.865854,2.621951,11.768293
1548455857465,-0.207336,-0.930176,0.410400,3.109756,0.853659,9.634147
1548455857480,-0.206177,-0.906799,0.400879,0.000000,-0.243902,9.817074
1548455857488,-0.183533,-0.910767,0.395264,-0.426829,4.756098,11.219512
1548455857495,-0.165649,-0.917908,0.399902,-0.548781,7.987805,11.280488
1548455857510,-0.165833,-0.927368,0.403442,0.121951,7.012195,10.426829
1548455857518,-0.179199,-0.938293,0.402893,0.243902,4.329268,9.878049
1548455857525,-0.193176,-0.940735,0.404663,0.365854,1.402439,9.817074
1548455857540,-0.205444,-0.937683,0.406921,-0.365854,0.487805,10.792684
1548455857548,-0.199829,-0.928162,0.405518,-1.402439,1.402439,12.195122
1548455857555,-0.194885,-0.925720,0.404419,-3.719512,3.719512,11.463415
1548455857571,-0.198608,-0.923096,0.406921,-5.487805,3.414634,10.304878
1548455857578,-0.197937,-0.920654,0.401001,-4.878049,2.987805,10.426829
1548455857585,-0.198547,-0.929199,0.395203,-4.146341,4.085366,10.975610
1548455857600,-0.204590,-0.931702,0.397339,-5.304878,3.719512,10.365854
1548455857608,-0.208618,-0.928101,0.396240,-6.036585,2.926829,10.365854
1548455857615,-0.203674,-0.922241,0.392517,-5.487805,3.658537,10.975610
1548455857630,-0.196472,-0.931641,0.383484,-5.365854,4.878049,11.463415
1548455857638,-0.203796,-0.930603,0.385559,-5.853659,4.756098,10.975610
1548455857645,-0.213013,-0.924011,0.388794,-5.914634,2.621951,10.121951
1548455857660,-0.226196,-0.916748,0.392822,-6.097561,2.317073,9.756098
1548455857668,-0.229004,-0.915588,0.388062,-6.158537,2.012195,10.670732
1548455857675,-0.223022,-0.914429,0.385498,-6.280488,3.841464,10.975610
1548455857690,-0.218201,-0.915771,0.385193,-5.731708,3.902439,10.792684
1548455857698,-0.216980,-0.921326,0.387634,-5.121951,3.780488,10.060976
1548455857705,-0.224060,-0.925354,0.387390,-5.426829,3.109756,8.780488
1548455857720,-0.227417,-0.918030,0.383850,-6.097561,2.926829,8.475610
1548455857728,-0.228027,-0.911926,0.380188,-6.097561,3.841464,8.780488
1548455857735,-0.223022,-0.912903,0.374878,-5.548780,4.268293,9.268292
1548455857750,-0.226257,-0.916443,0.377869,-4.695122,4.268293,9.024390
1548455857758,-0.237427,-0.912659,0.384338,-3.719512,2.621951,8.475610
1548455857766,-0.233887,-0.917664,0.370789,-2.439024,1.829268,8.658537
1548455857780,-0.237671,-0.922607,0.373169,-3.048780,3.536585,7.987805
1548455857788,-0.239807,-0.922791,0.376709,-3.658537,2.256098,7.317073
1548455857795,-0.243103,-0.921265,0.383362,-3.414634,2.012195,6.463415
1548455857818,-0.239929,-0.921997,0.376526,-3.048780,2.682927,6.402439
1548455857825,-0.235107,-0.923523,0.371033,-3.414634,4.146341,6.707317
1548455857833,-0.238342,-0.922729,0.374634,-3.658537,4.085366,6.890244
1548455857840,-0.244690,-0.915405,0.378052,-3.475610,2.439024,6.707317
1548455857848,-0.239929,-0.920532,0.370972,-2.804878,2.621951,6.585366
1548455857855,-0.243896,-0.921875,0.372437,-2.682927,3.109756,6.341464
1548455857870,-0.244751,-0.926819,0.369629,-2.560976,1.951220,5.853659
1548455857878,-0.249512,-0.929016,0.371338,-2.256098,1.890244,5.609756
1548455857885,-0.248474,-0.929565,0.368469,-2.134146,2.500000,6.280488
1548455857901,-0.254700,-0.922058,0.372131,-2.439024,2.743902,6.524390
1548455857908,-0.257874,-0.918579,0.370483,-2.865854,1.890244,6.219512
1548455857915,-0.250366,-0.913269,0.368652,-2.560976,2.500000,6.219512
1548455857930,-0.249573,-0.907715,0.370056,-2.317073,2.743902,5.914634
1548455857945,-0.247742,-0.908447,0.364502,-1.097561,2.317073,5.731708
1548455857946,-0.252991,-0.913452,0.365906,0.304878,2.073171,5.975610
1548455857960,-0.257507,-0.918091,0.361877,0.853659,1.951220,5.731708
1548455857968,-0.260376,-0.915833,0.363953,0.609756,1.646341,4.451220
1548455857975,-0.257690,-0.912720,0.364014,0.792683,0.426829,3.536585
1548455857990,-0.249695,-0.915161,0.361511,1.524390,0.121951,3.597561
1548455857998,-0.247925,-0.911560,0.365112,1.463415,0.487805,3.048780
1548455858005,-0.251587,-0.908325,0.366943,1.463415,-0.121951,2.439024
1548455858020,-0.259094,-0.903015,0.366516,1.585366,-0.792683,1.890244
1548455858028,-0.261658,-0.903870,0.368042,2.134146,-0.975610,1.524390
1548455858035,-0.263733,-0.907349,0.368469,2.743902,-0.792683,1.280488
1548455858050,-0.262512,-0.909119,0.372009,3.536585,-1.219512,0.731707
1548455858058,-0.257446,-0.920044,0.369812,4.329268,-1.402439,0.182927
1548455858073,-0.254028,-0.924072,0.370361,4.390244,-1.402439,-0.426829
1548455858080,-0.252136,-0.920166,0.376465,4.512195,-1.951220,-0.792683
1548455858088,-0.253296,-0.917786,0.373291,4.207317,-2.317073,-1.097561
1548455858095,-0.260132,-0.918152,0.375916,3.658537,-2.378049,-1.219512
1548455858110,-0.267578,-0.917358,0.377319,3.292683,-2.560976,-0.914634
1548455858118,-0.270264,-0.914246,0.379089,3.597561,-2.378049,-0.792683
1548455858125,-0.265991,-0.918457,0.381226,3.902439,-2.134146,-0.853659
1548455858140,-0.258789,-0.928162,0.379761,4.329268,-1.341463,-0.731707
1548455858148,-0.252869,-0.931213,0.378296,4.329268,-0.670732,-0.914634
1548455858155,-0.253662,-0.927124,0.377502,3.963415,-0.487805,-1.036585
1548455858170,-0.255615,-0.919678,0.381897,3.048780,-1.219512,-1.097561
1548455858178,-0.256897,-0.917725,0.383728,2.804878,-1.646341,-0.853659
1548455858186,-0.256104,-0.916077,0.383484,2.926829,-1.646341,-0.365854
1548455858200,-0.257751,-0.916626,0.382080,3.231707,-1.402439,-0.365854
1548455858208,-0.259460,-0.918396,0.381531,3.353659,-1.402439,-0.670732
1548455858215,-0.258301,-0.920837,0.381165,3.414634,-0.792683,-0.853659
1548455858230,-0.256714,-0.923401,0.379211,3.231707,-0.182927,-0.365854
1548455858238,-0.254822,-0.919983,0.383057,3.170732,0.243902,0.060976
1548455858245,-0.252258,-0.919800,0.382080,3.231707,0.487805,0.121951
1548455858260,-0.250183,-0.922180,0.380066,2.865854,0.426829,0.060976
1548455858268,-0.250977,-0.923706,0.380127,2.195122,0.121951,0.121951
1548455858275,-0.253296,-0.919861,0.383484,1.646341,-0.670732,0.121951
1548455858290,-0.256287,-0.917419,0.381958,1.097561,-1.158537,0.060976
1548455858298,-0.255981,-0.919800,0.381104,0.792683,-1.219512,-0.121951
1548455858305,-0.253296,-0.919556,0.382690,0.670732,-1.158537,-0.121951
1548455858320,-0.250305,-0.917725,0.387207,0.792683,-1.158537,-0.182927
1548455858328,-0.248474,-0.920532,0.387085,1.097561,-1.402439,-0.426829
1548455858335,-0.248291,-0.925537,0.381042,1.463415,-1.036585,-0.426829
1548455858350,-0.253784,-0.926331,0.382629,1.280488,-0.914634,-0.121951
1548455858358,-0.262939,-0.924561,0.383606,0.975610,-1.402439,-0.060976
1548455858365,-0.264648,-0.922913,0.383850,0.609756,-1.707317,0.000000
1548455858380,-0.260559,-0.923218,0.381287,0.487805,-1.097561,-0.060976
1548455858388,-0.253967,-0.923828,0.379761,0.365854,-0.548781,0.000000
1548455858395,-0.250244,-0.922058,0.380310,0.243902,-0.670732,-0.182927
1548455858410,-0.247498,-0.921509,0.384277,0.182927,-0.914634,-0.426829
1548455858418,-0.248535,-0.921814,0.385559,0.243902,-1.219512,-0.121951
1548455858425,-0.256348,-0.916260,0.386475,0.243902,-1.219512,0.426829
1548455858440,-0.258606,-0.910767,0.387634,0.060976,-1.097561,0.731707
1548455858448,-0.256958,-0.910156,0.384155,-0.243902,-0.975610,0.426829
1548455858455,-0.253052,-0.907227,0.385315,-0.304878,-0.731707,0.182927
1548455858470,-0.251526,-0.907654,0.383362,0.060976,-0.731707,0.243902
1548455858478,-0.255737,-0.908081,0.382324,0.792683,-0.731707,0.487805
1548455858485,-0.258362,-0.914978,0.384216,1.402439,-0.670732,0.304878
1548455858500,-0.256836,-0.913025,0.384521,1.646341,-0.731707,0.060976
1548455858508,-0.253540,-0.912537,0.381409,2.073171,-0.609756,0.060976
1548455858523,-0.251587,-0.912354,0.383423,2.073171,-0.365854,-0.060976
1548455858530,-0.254333,-0.915649,0.383118,1.829268,-0.609756,-0.243902
1548455858538,-0.254822,-0.915161,0.383484,1.768293,-0.914634,-0.548781
1548455858553,-0.258789,-0.913818,0.387817,2.073171,-1.097561,-0.670732
1548455858560,-0.260742,-0.917358,0.388000,2.256098,-1.402439,-0.609756
1548455858568,-0.256836,-0.916870,0.387512,2.621951,-1.219512,-0.853659
1548455858575,-0.252441,-0.915894,0.386414,2.804878,-0.670732,-0.975610
1548455858590,-0.250366,-0.918701,0.383972,2.682927,-0.426829,-1.158537
1548455858598,-0.246216,-0.918396,0.384888,2.439024,-0.487805,-1.219512
1548455858605,-0.248474,-0.917664,0.386108,2.195122,-0.731707,-1.280488
1548455858620,-0.253479,-0.918823,0.387512,2.134146,-1.097561,-1.036585
1548455858628,-0.252686,-0.919495,0.391541,2.256098,-1.219512,-0.853659
1548455858635,-0.252197,-0.917664,0.390625,2.317073,-0.975610,-1.097561
1548455858650,-0.246582,-0.918884,0.389038,2.195122,-0.548781,-1.158537
1548455858658,-0.245728,-0.919617,0.386230,1.890244,-0.243902,-0.853659
1548455858665,-0.248596,-0.917297,0.389832,1.707317,-0.426829,-0.365854
1548455858680,-0.252441,-0.916016,0.392639,1.646341,-0.792683,-0.182927
1548455858688,-0.255005,-0.916138,0.391418,1.585366,-0.853659,-0.243902
1548455858695,-0.250793,-0.916504,0.388916,1.646341,-0.548781,-0.121951
1548455858710,-0.247498,-0.918335,0.389221,1.646341,-0.243902,-0.121951
1548455858725,-0.246643,-0.918335,0.385864,1.463415,-0.243902,0.000000
1548455858733,-0.249634,-0.918579,0.386719,1.402439,-0.792683,0.060976
1548455858740,-0.251282,-0.915466,0.390015,1.524390,-1.463415,-0.121951
1548455858748,-0.248718,-0.915039,0.390320,1.768293,-1.585366,-0.487805
1548455858755,-0.245178,-0.915771,0.388306,1.768293,-1.280488,-0.548781
1548455858770,-0.246826,-0.913635,0.389038,1.768293,-1.097561,-0.304878
1548455858778,-0.252563,-0.913452,0.394531,1.951220,-1.463415,-0.182927
1548455858785,-0.257751,-0.910095,0.394775,2.195122,-1.890244,-0.304878
1548455858800,-0.258545,-0.907837,0.392273,2.378049,-1.829268,-0.304878
1548455858808,-0.253296,-0.908508,0.393311,2.621951,-1.280488,-0.487805
1548455858815,-0.248230,-0.906067,0.394714,2.926829,-1.097561,-0.731707
1548455858830,-0.243408,-0.906799,0.396240,3.353659,-1.158537,-1.036585
1548455858838,-0.240845,-0.909485,0.396057,3.780488,-1.158537,-1.158537
1548455858845,-0.242004,-0.910828,0.397949,3.841464,-1.585366,-1.341463
1548455858860,-0.244751,-0.908875,0.397766,3.902439,-2.378049,-1.646341
1548455858868,-0.248291,-0.908630,0.397339,3.963415,-2.500000,-1.890244
1548455858875,-0.253357,-0.909424,0.397461,3.963415,-2.256098,-2.134146
1548455858890,-0.251648,-0.904785,0.394775,4.085366,-2.439024,-2.073171
1548455858898,-0.247375,-0.904358,0.392273,4.451220,-2.439024,-2.256098
1548455858905,-0.245239,-0.909851,0.396729,5.000000,-2.500000,-2.987805
1548455858920,-0.244568,-0.910461,0.396790,5.609756,-2.743902,-3.231707
1548455858928,-0.241028,-0.912170,0.399353,6.036585,-2.560976,-3.292683
1548455858935,-0.241516,-0.909729,0.404907,6.097561,-2.804878,-3.597561
1548455858950,-0.239258,-0.908020,0.405640,6.097561,-3.292683,-4.024390
1548455858958,-0.239441,-0.903076,0.408508,6.280488,-3.414634,-3.841464
1548455858965,-0.244202,-0.901184,0.410828,6.585366,-3.658537,-4.146341
1548455858980,-0.247925,-0.896729,0.406555,7.439024,-4.024390,-3.963415
1548455858988,-0.245911,-0.900818,0.408813,8.231708,-3.170732,-4.146341
1548455858995,-0.241943,-0.904114,0.405762,8.597561,-2.621951,-4.268293
1548455859010,-0.241211,-0.905457,0.410461,9.085366,-2.073171,-4.390244
1548455859018,-0.237305,-0.904419,0.411438,9.573171,-1.890244,-4.695122
1548455859025,-0.231995,-0.902466,0.410645,9.817074,-1.951220,-5.243903
1548455859048,-0.225708,-0.900574,0.411133,10.060976,-2.256098,-5.609756
1548455859048,-0.226013,-0.899292,0.415771,10.304878,-2.804878,-5.853659
1548455859055,-0.227295,-0.898193,0.418091,10.792684,-3.597561,-6.219512
1548455859070,-0.226318,-0.896790,0.419617,11.341464,-4.207317,-6.951220
1548455859078,-0.223877,-0.899292,0.425049,11.646341,-4.207317,-7.500000
1548455859085,-0.225220,-0.900391,0.431152,12.073171,-4.329268,-7.439024
1548455859100,-0.223145,-0.901672,0.429749,12.317074,-4.268293,-7.256098
1548455859108,-0.223328,-0.904724,0.434265,12.378049,-4.329268,-7.378049
1548455859115,-0.223877,-0.908752,0.431396,12.317074,-4.573171,-8.048780
1548455859138,-0.222961,-0.907776,0.434448,12.073171,-5.243903,-8.597561
1548455859138,-0.223267,-0.906311,0.435364,11.646341,-5.975610,-9.329268
1548455859145,-0.219360,-0.909546,0.439270,10.975610,-6.097561,-10.000000
1548455859161,-0.212524,-0.909790,0.440796,10.792684,-5.670732,-10.304878
1548455859168,-0.208557,-0.908508,0.442322,10.487805,-5.060976,-9.939025
1548455859175,-0.206726,-0.909729,0.443848,10.060976,-4.817073,-9.268292
1548455859190,-0.205383,-0.908203,0.445984,9.634147,-5.000000,-8.780488
1548455859198,-0.206238,-0.904907,0.448364,8.963415,-5.365854,-8.780488
1548455859205,-0.208984,-0.907166,0.448486,8.109756,-5.975610,-9.024390
1548455859220,-0.209106,-0.903198,0.451294,7.317073,-6.280488,-9.207317
1548455859228,-0.207703,-0.901306,0.451904,6.829268,-6.219512,-9.329268
1548455859235,-0.201965,-0.901428,0.450073,6.463415,-5.426829,-9.268292
1548455859250,-0.197632,-0.899475,0.453308,6.463415,-4.878049,-9.390244
1548455859258,-0.194275,-0.899292,0.453003,7.012195,-4.695122,-9.512196
1548455859266,-0.189331,-0.902527,0.452209,7.439024,-4.512195,-9.390244
1548455859280,-0.189697,-0.903748,0.458374,7.621952,-4.817073,-9.024390
1548455859288,-0.189819,-0.903625,0.457397,7.987805,-5.243903,-8.414635
1548455859295,-0.187988,-0.901245,0.458435,7.865854,-5.304878,-8.048780
1548455859310,-0.186340,-0.900696,0.455872,7.439024,-5.243903,-8.292683
1548455859318,-0.181885,-0.899536,0.456421,6.829268,-5.243903,-8.414635
1548455859325,-0.180481,-0.898254,0.457275,6.158537,-5.243903,-8.231708
1548455859340,-0.177429,-0.896240,0.459106,5.853659,-5.487805,-8.170732
1548455859348,-0.176819,-0.895630,0.462219,5.975610,-5.548780,-8.353659
1548455859355,-0.179688,-0.894348,0.466858,6.341464,-5.914634,-8.353659
1548455859370,-0.179504,-0.895935,0.469238,6.951220,-6.097561,-8.170732
1548455859378,-0.182068,-0.895386,0.470642,7.195122,-5.792683,-8.048780
1548455859385,-0.178589,-0.896179,0.471130,7.378049,-5.548780,-7.926829
1548455859400,-0.172607,-0.899658,0.469604,7.682927,-5.060976,-7.804878
1548455859408,-0.168274,-0.900513,0.467957,7.439024,-5.000000,-7.865854
1548455859415,-0.166565,-0.896851,0.469177,7.012195,-5.182927,-8.231708
1548455859430,-0.162415,-0.895752,0.469421,6.890244,-5.731708,-8.475610
1548455859438,-0.163940,-0.894287,0.471619,6.890244,-6.036585,-8.658537
1548455859445,-0.158508,-0.893677,0.469177,6.829268,-6.280488,-8.475610
1548455859460,-0.158569,-0.892456,0.473633,6.890244,-6.219512,-8.536586
1548455859468,-0.160889,-0.885742,0.476868,7.012195,-6.402439,-8.658537
1548455859475,-0.161377,-0.884583,0.479492,7.195122,-6.585366,-8.963415
1548455859490,-0.158569,-0.881165,0.478699,7.439024,-6.646342,-9.390244
1548455859498,-0.150269,-0.882812,0.479797,7.682927,-6.402439,-9.695122
1548455859505,-0.141235,-0.888550,0.479492,8.048780,-6.036585,-10.121951
1548455859520,-0.138855,-0.891052,0.481201,8.292683,-6.158537,-9.939025
1548455859528,-0.138733,-0.892090,0.487061,8.231708,-6.463415,-9.634147
1548455859535,-0.142395,-0.893188,0.487427,8.109756,-7.256098,-9.268292
1548455859550,-0.149414,-0.891235,0.486938,7.804878,-7.682927,-9.268292
1548455859558,-0.152283,-0.890381,0.488586,7.500000,-8.170732,-9.451220
1548455859565,-0.148376,-0.887512,0.490845,7.378049,-7.987805,-9.939025
1548455859580,-0.136414,-0.886047,0.487671,7.621952,-7.134147,-10.609756
1548455859588,-0.120056,-0.886719,0.486938,7.987805,-6.280488,-11.097561
1548455859595,-0.114258,-0.888733,0.490601,8.048780,-6.158537,-11.158537
1548455859610,-0.118347,-0.890381,0.494263,8.170732,-6.890244,-10.731708
1548455859618,-0.128906,-0.890320,0.501099,8.109756,-8.231708,-10.000000
1548455859625,-0.140930,-0.886841,0.507324,7.987805,-9.329268,-9.512196
1548455859640,-0.144531,-0.886475,0.504578,8.048780,-9.329268,-9.634147
1548455859648,-0.136780,-0.885193,0.506165,8.048780,-8.231708,-10.060976
1548455859655,-0.121399,-0.884949,0.503723,7.560976,-6.646342,-10.670732
1548455859670,-0.106140,-0.885803,0.499634,7.378049,-5.426829,-11.280488
1548455859678,-0.098083,-0.881653,0.499878,7.378049,-5.365854,-11.585366
1548455859685,-0.097534,-0.877747,0.499084,6.951220,-6.097561,-11.524390
1548455859700,-0.100220,-0.878052,0.502686,6.158537,-7.317073,-11.524390
1548455859708,-0.107117,-0.877991,0.503052,5.792683,-8.963415,-11.402439
1548455859715,-0.108704,-0.876587,0.506775,6.280488,-9.817074,-11.585366
1548455859730,-0.106262,-0.875305,0.507446,7.256098,-9.878049,-12.256098
1548455859738,-0.100464,-0.877991,0.508118,8.170732,-9.451220,-12.926829
1548455859745,-0.093384,-0.881409,0.511841,9.024390,-9.085366,-13.414635
1548455859760,-0.087280,-0.880310,0.517700,9.695122,-9.085366,-13.231708
1548455859768,-0.087158,-0.878479,0.518372,10.000000,-9.085366,-12.743903
1548455859775,-0.091125,-0.879028,0.520081,9.939025,-9.329268,-12.682927
1548455859790,-0.091187,-0.876099,0.518738,9.756098,-10.121951,-12.804878
1548455859798,-0.090393,-0.879333,0.516113,9.207317,-9.817074,-13.048780
1548455859806,-0.084351,-0.879150,0.522766,8.719512,-8.902439,-13.536586
1548455859820,-0.074402,-0.876160,0.527222,8.658537,-8.719512,-13.597561
1548455859828,-0.065613,-0.878174,0.526123,8.658537,-8.353659,-13.231708
1548455859835,-0.062439,-0.880798,0.527222,8.597561,-8.292683,-12.987805
1548455859850,-0.068115,-0.880005,0.527222,8.658537,-9.024390,-12.500000
1548455859858,-0.071228,-0.874451,0.531006,8.536586,-9.695122,-12.256098
1548455859865,-0.067505,-0.871033,0.534851,8.414635,-9.573171,-12.439025
1548455859880,-0.055969,-0.871704,0.538879,8.536586,-9.268292,-12.621951
1548455859888,-0.050598,-0.873291,0.541748,8.353659,-8.536586,-12.500000
1548455859895,-0.052795,-0.877441,0.541321,8.597561,-8.475610,-11.829268
1548455859910,-0.056885,-0.880127,0.542297,8.963415,-8.841464,-10.853659
1548455859918,-0.060669,-0.878479,0.542480,9.024390,-9.024390,-10.365854
1548455859925,-0.057800,-0.871765,0.539673,8.963415,-8.170732,-10.426829
1548455859940,-0.050720,-0.865723,0.538391,8.719512,-7.682927,-10.548780
1548455859948,-0.035156,-0.865601,0.538940,8.048780,-6.951220,-11.097561
1548455859955,-0.026672,-0.869507,0.538086,7.682927,-6.707317,-11.463415
1548455859970,-0.023132,-0.872314,0.540710,7.865854,-7.256098,-11.341464
1548455859978,-0.025208,-0.874268,0.544922,7.500000,-8.048780,-11.036586
1548455859985,-0.033264,-0.872742,0.547485,7.317073,-8.963415,-10.365854
1548455860000,-0.043030,-0.871887,0.551636,7.012195,-9.329268,-9.756098
1548455860008,-0.049011,-0.870117,0.549622,6.402439,-9.146341,-9.512196
1548455860016,-0.045532,-0.868286,0.548279,6.219512,-8.719512,-9.451220
1548455860030,-0.033325,-0.866577,0.551575,6.402439,-7.378049,-9.634147
1548455860038,-0.020630,-0.868103,0.552124,6.524390,-5.731708,-9.939025
1548455860045,-0.011169,-0.869873,0.551819,6.219512,-5.426829,-10.060976
1548455860060,-0.008606,-0.870605,0.553528,5.792683,-5.670732,-9.817074
1548455860068,-0.012817,-0.869751,0.551758,5.548780,-6.341464,-9.146341
1548455860075,-0.016541,-0.869934,0.558289,5.609756,-6.951220,-8.231708
1548455860090,-0.020874,-0.866699,0.560425,5.487805,-6.890244,-7.378049
1548455860098,-0.019836,-0.865967,0.560364,5.121951,-6.219512,-7.012195
1548455860105,-0.014038,-0.868652,0.555969,4.634146,-5.609756,-6.463415
1548455860120,-0.011597,-0.868042,0.555237,4.268293,-4.695122,-6.158537
1548455860128,-0.011719,-0.865479,0.558533,4.268293,-4.268293,-6.036585
1548455860135,-0.012268,-0.865295,0.560852,4.329268,-4.512195,-5.853659
1548455860150,-0.010437,-0.861694,0.560425,4.085366,-4.146341,-5.731708
1548455860158,-0.004578,-0.861450,0.561340,3.902439,-3.414634,-5.670732
1548455860165,0.003357,-0.863892,0.560486,3.597561,-2.865854,-5.670732
1548455860188,0.006348,-0.860046,0.559509,3.170732,-2.865854,-5.548780
1548455860188,0.003418,-0.857422,0.558350,2.926829,-3.414634,-5.060976
1548455860195,-0.004089,-0.859558,0.558350,2.987805,-3.719512,-4.573171
1548455860210,-0.000916,-0.857605,0.563293,3.292683,-3.780488,-4.085366
1548455860218,0.000183,-0.858215,0.563477,3.475610,-3.475610,-3.841464
1548455860225,-0.000916,-0.858826,0.562378,3.292683,-3.353659,-3.902439
1548455860240,0.000305,-0.858826,0.563416,3.048780,-3.292683,-3.963415
1548455860248,0.002197,-0.859131,0.564026,2.987805,-3.292683,-3.841464
1548455860255,0.004211,-0.861816,0.564392,2.804878,-2.743902,-3.597561
1548455860270,0.000061,-0.863831,0.566711,2.621951,-2.439024,-3.231707
1548455860278,-0.002502,-0.863770,0.567749,2.378049,-2.317073,-2.987805
1548455860285,-0.000977,-0.860962,0.563904,2.134146,-1.890244,-2.804878
1548455860300,0.005676,-0.861023,0.565369,1.707317,-1.097561,-2.743902
1548455860308,0.010620,-0.859558,0.566772,1.158537,-0.609756,-2.560976
1548455860315,0.010925,-0.861084,0.566833,0.975610,-0.609756,-2.134146
1548455860330,0.005737,-0.858276,0.566406,0.487805,-0.792683,-1.768293
1548455860338,0.004761,-0.857971,0.566040,0.060976,-0.792683,-1.402439
1548455860345,0.004639,-0.858398,0.565796,-0.060976,-0.426829,-1.280488
1548455860360,0.008545,-0.854187,0.565613,-0.304878,-0.060976,-1.280488
1548455860368,0.010803,-0.855347,0.562805,-0.609756,0.182927,-1.158537
1548455860375,0.010803,-0.854248,0.562500,-0.853659,0.182927,-1.036585
1548455860391,0.006348,-0.855469,0.561157,-0.731707,-0.121951,-0.853659
1548455860398,0.003357,-0.857117,0.562805,-0.670732,-0.304878,-0.609756
1548455860406,0.003540,-0.857178,0.560486,-0.792683,-0.182927,-0.548781
1548455860420,0.003174,-0.856873,0.560608,-0.914634,0.121951,-0.670732
1548455860428,0.010254,-0.858765,0.560608,-0.975610,0.609756,-0.792683
1548455860435,0.013672,-0.858765,0.560608,-0.914634,0.792683,-0.975610
1548455860451,0.014221,-0.861511,0.562378,-0.731707,0.853659,-0.975610
1548455860458,0.012451,-0.859009,0.559143,-0.853659,0.426829,-0.792683
1548455860466,0.009155,-0.854858,0.560547,-0.975610,0.121951,-0.304878
1548455860480,0.005554,-0.852295,0.559387,-1.158537,-0.243902,-0.121951
1548455860488,0.003967,-0.851929,0.558838,-1.097561,-0.304878,-0.121951
1548455860495,0.003479,-0.854309,0.558594,-0.853659,-0.121951,-0.426829
1548455860510,0.008667,-0.854919,0.556885,-0.487805,0.000000,-0.731707
1548455860518,0.010803,-0.856750,0.558167,-0.365854,0.365854,-0.853659
1548455860525,0.009827,-0.856628,0.559448,-0.304878,0.365854,-0.670732
1548455860540,0.007935,-0.856201,0.559082,-0.365854,0.365854,-0.304878
1548455860548,0.006836,-0.855408,0.557922,-0.487805,0.243902,0.000000
1548455860555,0.005066,-0.853333,0.559143,-0.304878,0.121951,0.121951
1548455860570,0.006653,-0.855225,0.556152,0.060976,0.182927,0.121951
1548455860578,0.011292,-0.857178,0.558350,0.060976,0.182927,0.060976
1548455860585,0.011292,-0.858276,0.559753,0.121951,0.182927,0.000000
1548455860600,0.011719,-0.857178,0.561279,0.243902,-0.121951,0.121951
1548455860608,0.011597,-0.857361,0.559753,0.365854,-0.365854,0.182927
1548455860616,0.008789,-0.859741,0.561035,0.304878,-0.548781,0.365854
1548455860630,0.006836,-0.859009,0.561584,0.182927,-0.670732,0.487805
1548455860638,0.005066,-0.855713,0.559021,-0.060976,-0.731707,0.548781
1548455860653,0.003845,-0.852661,0.557678,-0.304878,-0.548781,0.548781
1548455860660,0.003662,-0.852356,0.557434,-0.243902,-0.548781,0.304878
1548455860675,0.005371,-0.860596,0.562561,0.121951,-0.426829,0.060976
1548455860676,0.006714,-0.869690,0.564941,0.548781,-0.182927,-0.121951
1548455860698,0.010071,-0.871582,0.561890,0.426829,-0.121951,-0.243902
1548455860705,0.013794,-0.868164,0.561951,-0.548781,0.000000,-0.060976
1548455860706,0.010864,-0.864807,0.559509,-1.585366,0.000000,0.365854
1548455860720,0.006409,-0.858459,0.556580,-2.195122,-0.487805,0.853659
1548455860728,0.001770,-0.856995,0.555847,-2.439024,-0.853659,1.097561
1548455860735,0.001404,-0.862000,0.556213,-2.500000,-0.853659,1.036585
1548455860750,0.003235,-0.865723,0.556580,-2.317073,-0.548781,0.792683
1548455860758,0.006836,-0.867737,0.558716,-2.317073,-0.182927,0.487805
1548455860765,0.010864,-0.867432,0.558777,-2.439024,0.182927,0.243902
1548455860780,0.010010,-0.863708,0.557739,-2.804878,0.426829,0.487805
1548455860788,0.009949,-0.863464,0.559204,-3.048780,0.182927,0.792683
1548455860795,0.010742,-0.862122,0.555237,-3.475610,-0.182927,1.036585
1548455860811,0.007446,-0.859192,0.551697,-3.841464,-0.243902,1.402439
1548455860818,0.005737,-0.856750,0.551331,-3.902439,-0.243902,1.646341
1548455860825,0.005432,-0.857117,0.550171,-3.597561,-0.182927,1.646341
1548455860840,0.006409,-0.862671,0.548889,-3.170732,-0.121951,1.524390
1548455860848,0.007202,-0.865784,0.551086,-2.987805,-0.060976,1.524390
1548455860855,0.003723,-0.863647,0.552002,-2.926829,-0.304878,1.463415
1548455860870,0.002136,-0.858948,0.549072,-2.987805,-0.426829,1.524390
1548455860878,0.001160,-0.856750,0.548645,-2.926829,-0.548781,1.524390
1548455860885,0.001099,-0.855591,0.546021,-2.682927,-0.609756,1.280488
1548455860900,0.001343,-0.859070,0.546082,-2.134146,-0.548781,1.036585
1548455860908,0.002563,-0.866394,0.548950,-1.524390,-0.487805,0.853659
1548455860915,0.001221,-0.866455,0.549744,-1.158537,-0.487805,0.853659
1548455860930,0.002258,-0.862671,0.551697,-1.097561,-0.609756,0.975610
1548455860938,0.002869,-0.857849,0.548401,-1.341463,-0.609756,1.036585
1548455860945,0.001648,-0.852417,0.548523,-1.524390,-0.487805,0.792683
1548455860960,0.002869,-0.854492,0.547241,-0.975610,-0.548781,0.609756
1548455860968,0.002075,-0.858459,0.548157,-0.426829,-0.548781,0.487805
1548455860975,0.002319,-0.864502,0.548340,0.121951,-0.487805,0.243902
1548455860990,0.003296,-0.867249,0.552185,0.121951,-0.487805,0.304878
1548455860998,0.001404,-0.867615,0.550964,-0.426829,-0.609756,0.182927
1548455861005,0.000122,-0.864624,0.547241,-0.975610,-0.731707,0.000000
1548455861020,0.001648,-0.860535,0.545410,-1.402439,-0.792683,-0.121951
1548455861028,0.004517,-0.860657,0.544006,-1.524390,-0.792683,-0.304878
1548455861035,0.007446,-0.861450,0.544067,-1.158537,-0.609756,-0.487805
1548455861051,0.007263,-0.865662,0.545532,-0.914634,-0.365854,-0.609756
1548455861058,0.006531,-0.867798,0.546936,-0.609756,-0.548781,-0.548781
1548455861065,0.006287,-0.869141,0.547913,-0.426829,-0.609756,-0.426829
1548455861081,0.005310,-0.867004,0.549805,-0.609756,-0.670732,-0.243902
1548455861088,0.004333,-0.869934,0.546448,-0.792683,-0.670732,-0.243902
1548455861095,0.005920,-0.868347,0.544983,-1.036585,-0.609756,-0.243902
1548455861111,0.006897,-0.868530,0.544678,-1.280488,-0.548781,-0.182927
1548455861118,0.008240,-0.868713,0.544739,-1.219512,-0.365854,-0.243902
1548455861125,0.007141,-0.864563,0.543091,-1.219512,-0.426829,-0.243902
1548455861140,0.003479,-0.862488,0.539917,-1.341463,-0.609756,-0.182927
1548455861148,0.003296,-0.862976,0.542542,-1.158537,-0.853659,0.000000
1548455861155,0.002930,-0.865906,0.544800,-0.731707,-0.975610,0.060976
1548455861170,0.003357,-0.870667,0.546448,-0.182927,-0.914634,0.060976
1548455861178,0.009338,-0.872498,0.547302,0.426829,-0.670732,0.121951
1548455861185,0.008911,-0.873535,0.545105,0.670732,-0.487805,0.121951
1548455861200,0.007812,-0.871460,0.545532,0.304878,-0.548781,0.548781
1548455861208,0.004150,-0.866211,0.548828,-0.121951,-0.731707,0.975610
1548455861215,0.000000,-0.862183,0.547485,-0.243902,-0.914634,1.280488
1548455861230,-0.000549,-0.862488,0.544312,-0.121951,-0.975610,1.158537
1548455861238,0.000977,-0.864746,0.544800,0.121951,-0.670732,0.853659
1548455861245,0.003723,-0.865906,0.545105,0.243902,-0.243902,0.548781
1548455861260,0.005493,-0.870911,0.545593,0.304878,0.060976,0.304878
1548455861268,0.006104,-0.872498,0.542419,0.060976,0.304878,0.243902
1548455861275,0.004944,-0.871033,0.543762,-0.121951,0.304878,0.548781
1548455861290,0.005127,-0.867798,0.544128,-0.304878,0.121951,0.670732
1548455861298,0.002930,-0.869446,0.542908,-0.304878,-0.121951,0.914634
1548455861305,0.001038,-0.869446,0.544373,-0.548781,-0.060976,1.158537
1548455861320,0.001221,-0.867859,0.544617,-0.670732,0.060976,1.219512
1548455861328,-0.000366,-0.868103,0.546448,-0.914634,0.121951,1.097561
1548455861336,0.002563,-0.867737,0.540955,-1.158537,0.365854,0.914634
1548455861351,0.004089,-0.869568,0.544739,-1.341463,0.548781,0.914634
1548455861358,0.003296,-0.867188,0.543518,-1.341463,0.670732,1.036585
1548455861365,0.001465,-0.867126,0.542419,-1.402439,0.548781,1.158537
1548455861380,-0.003723,-0.871338,0.539917,-1.341463,0.243902,1.097561
1548455861388,-0.002441,-0.872253,0.539856,-1.219512,0.060976,1.219512
1548455861395,-0.003052,-0.874084,0.543396,-1.158537,0.000000,1.280488
1548455861410,-0.001831,-0.877625,0.542847,-1.341463,0.243902,1.280488
1548455861418,-0.001038,-0.880188,0.541382,-1.402439,0.304878,1.341463
1548455861425,-0.001648,-0.878662,0.544434,-1.463415,0.243902,1.402439
1548455861440,-0.000305,-0.876038,0.541931,-1.829268,0.243902,1.524390
1548455861448,0.002441,-0.871277,0.539734,-2.195122,0.365854,1.707317
1548455861455,-0.000366,-0.869751,0.540161,-2.439024,0.487805,2.134146
1548455861470,-0.002869,-0.868958,0.543945,-2.256098,0.426829,2.560976
1548455861478,-0.005005,-0.867371,0.543091,-2.012195,0.426829,2.682927
1548455861485,-0.005188,-0.873840,0.544312,-1.768293,0.487805,2.743902
1548455861500,-0.001282,-0.877441,0.545349,-1.524390,0.731707,2.621951
1548455861508,0.001343,-0.876160,0.543030,-2.195122,0.914634,2.500000
1548455861515,0.003540,-0.875305,0.541260,-3.170732,0.914634,2.804878
1548455861530,0.000671,-0.872864,0.541504,-3.780488,0.670732,3.170732
1548455861538,-0.006714,-0.869629,0.538330,-4.085366,0.182927,3.719512
1548455861545,-0.008667,-0.874512,0.537231,-4.207317,0.121951,4.085366
1548455861560,-0.012756,-0.877258,0.537415,-4.207317,0.487805,4.085366
1548455861568,-0.012146,-0.879944,0.538452,-4.329268,0.914634,3.963415
1548455861575,-0.010681,-0.878540,0.539124,-4.634146,1.158537,3.719512
1548455861590,-0.010132,-0.876892,0.535950,-5.182927,1.463415,3.475610
1548455861598,-0.006653,-0.875793,0.533264,-5.670732,1.829268,3.597561
1548455861605,-0.006287,-0.874817,0.535767,-5.853659,1.768293,3.841464
1548455861620,-0.008789,-0.875366,0.532471,-5.975610,1.646341,4.024390
1548455861628,-0.013977,-0.874451,0.533630,-6.158537,1.463415,4.207317
1548455861635,-0.017639,-0.879456,0.529175,-6.219512,1.280488,4.268293
1548455861650,-0.020569,-0.882385,0.527100,-6.219512,1.402439,4.268293
1548455861658,-0.020630,-0.884094,0.525574,-6.158537,1.768293,4.207317
1548455861665,-0.017456,-0.882324,0.524841,-6.158537,2.195122,4.085366
1548455861680,-0.014343,-0.878662,0.523499,-6.219512,2.439024,3.963415
1548455861688,-0.016235,-0.879700,0.523987,-6.402439,2.439024,3.963415
1548455861696,-0.017090,-0.877747,0.520752,-6.646342,2.317073,4.207317
1548455861711,-0.019958,-0.879028,0.519653,-6.463415,2.195122,4.634146
1548455861718,-0.023193,-0.884888,0.522034,-6.280488,2.073171,4.817073
1548455861725,-0.027954,-0.884644,0.518982,-6.341464,1.768293,4.756098
1548455861741,-0.026428,-0.886902,0.517578,-6.219512,1.890244,4.756098
1548455861748,-0.023743,-0.887878,0.516479,-6.280488,2.500000,4.878049
1548455861755,-0.021484,-0.888855,0.515869,-6.280488,3.109756,5.060976
1548455861771,-0.021484,-0.890320,0.513367,-6.158537,3.292683,5.365854
1548455861778,-0.021118,-0.886475,0.512939,-6.036585,2.926829,5.670732
1548455861785,-0.025818,-0.881531,0.510742,-6.158537,2.378049,6.097561
1548455861800,-0.027283,-0.881653,0.508240,-6.036585,2.500000,6.280488
1548455861808,-0.031738,-0.883484,0.509155,-5.548780,2.317073,6.280488
1548455861816,-0.032837,-0.886475,0.508484,-4.939024,1.951220,6.097561
1548455861830,-0.031677,-0.888367,0.508057,-4.695122,2.195122,5.914634
1548455861838,-0.031250,-0.890991,0.510986,-4.512195,2.743902,5.975610
1548455861845,-0.030151,-0.891418,0.509277,-4.329268,3.048780,6.280488
1548455861860,-0.030640,-0.888794,0.503479,-4.634146,2.926829,6.646342
1548455861868,-0.033875,-0.887207,0.499756,-5.000000,2.682927,6.890244
1548455861876,-0.039612,-0.885803,0.500732,-5.243903,2.073171,7.256098
1548455861890,-0.048157,-0.885010,0.504028,-5.365854,1.585366,7.378049
1548455861898,-0.049988,-0.883362,0.503174,-5.000000,1.524390,7.256098
1548455861905,-0.047729,-0.883850,0.504700,-4.451220,1.890244,6.890244
1548455861920,-0.041992,-0.890076,0.501770,-3.841464,2.560976,6.829268
1548455861928,-0.038330,-0.895874,0.501770,-3.414634,3.475610,7.073171
1548455861935,-0.038879,-0.896667,0.503235,-3.414634,3.353659,7.560976
1548455861943,-0.042847,-0.893433,0.501709,-3.597561,2.682927,8.170732
1548455861958,-0.051758,-0.892639,0.501892,-3.902439,2.134146,8.536586
1548455861965,-0.059753,-0.894470,0.503052,-3.902439,1.646341,8.536586
1548455861973,-0.060913,-0.896729,0.498962,-3.719512,1.707317,8.475610
1548455861988,-0.062744,-0.895874,0.499512,-3.780488,2.317073,8.292683
1548455861995,-0.056152,-0.897217,0.501465,-4.085366,3.048780,8.719512
1548455862003,-0.052917,-0.899109,0.498108,-4.451220,3.963415,8.902439
1548455862018,-0.056274,-0.901123,0.497375,-4.817073,4.207317,9.329268
1548455862025,-0.060974,-0.896240,0.496948,-4.817073,3.963415,10.060976
1548455862033,-0.063721,-0.894043,0.494263,-4.878049,3.597561,10.487805
1548455862048,-0.068420,-0.893372,0.493652,-4.939024,3.719512,10.426829
1548455862055,-0.071228,-0.894470,0.494385,-4.817073,3.719512,10.487805
1548455862063,-0.071472,-0.897766,0.494568,-4.695122,4.207317,10.975610
1548455862078,-0.071899,-0.897888,0.494629,-4.878049,4.878049,11.158537
1548455862085,-0.071838,-0.899963,0.493408,-5.060976,5.000000,11.524390
1548455862093,-0.074402,-0.903259,0.492859,-5.365854,5.000000,11.646341
1548455862108,-0.080750,-0.901611,0.494568,-5.853659,4.695122,11.707317
1548455862115,-0.085999,-0.904907,0.492004,-5.914634,4.329268,12.012196
1548455862123,-0.088806,-0.907104,0.488098,-6.280488,4.695122,11.951220
1548455862138,-0.090759,-0.902588,0.482605,-6.585366,5.000000,12.073171
1548455862145,-0.091003,-0.899353,0.482361,-6.707317,5.548780,12.134147
1548455862153,-0.092651,-0.898804,0.480286,-6.768293,5.731708,12.195122
1548455862168,-0.090820,-0.898865,0.479004,-6.585366,6.158537,12.560976
1548455862175,-0.092407,-0.898987,0.478088,-6.524390,6.219512,12.621951
1548455862183,-0.095459,-0.899048,0.477783,-6.524390,5.914634,12.621951
1548455862198,-0.102173,-0.900146,0.478394,-6.280488,5.182927,12.804878
1548455862205,-0.107666,-0.899231,0.477417,-6.158537,5.000000,12.865854
1548455862213,-0.112183,-0.898071,0.477844,-6.097561,5.121951,13.048780
1548455862228,-0.112915,-0.900269,0.477051,-5.731708,5.548780,13.231708
1548455862235,-0.113342,-0.898315,0.473938,-5.365854,5.975610,13.231708
1548455862243,-0.109802,-0.900879,0.472229,-5.182927,6.341464,13.048780
1548455862258,-0.109741,-0.903015,0.467590,-5.121951,6.463415,12.987805
1548455862265,-0.113953,-0.903503,0.468323,-5.182927,6.280488,13.048780
1548455862273,-0.116638,-0.902649,0.468018,-5.304878,5.670732,12.926829
1548455862288,-0.121094,-0.903076,0.464417,-5.060976,5.304878,12.804878
1548455862295,-0.123047,-0.904663,0.464478,-4.634146,4.878049,12.987805
1548455862303,-0.128967,-0.903015,0.466797,-4.207317,4.939024,13.231708
1548455862318,-0.132080,-0.902649,0.464417,-3.719512,5.000000,13.658537
1548455862326,-0.134827,-0.901611,0.465027,-3.292683,5.365854,13.902439
1548455862333,-0.136169,-0.899475,0.464478,-2.743902,5.182927,13.963415
1548455862348,-0.140564,-0.899902,0.463806,-2.560976,5.121951,13.902439
1548455862355,-0.138916,-0.905029,0.461670,-2.134146,5.121951,13.414635
1548455862363,-0.137634,-0.904358,0.462524,-1.768293,5.243903,13.170732
1548455862378,-0.139099,-0.900452,0.466614,-1.463415,5.304878,13.048780
1548455862386,-0.138428,-0.894775,0.465759,-1.219512,5.060976,13.170732
1548455862393,-0.141602,-0.893127,0.464478,-0.853659,4.817073,13.353659
1548455862408,-0.148987,-0.894897,0.462952,-0.182927,4.390244,13.292684
1548455862415,-0.155334,-0.897461,0.462463,0.548781,3.963415,13.170732
1548455862423,-0.161865,-0.899353,0.461304,0.975610,3.658537,13.048780
1548455862438,-0.166626,-0.894531,0.461121,1.036585,3.658537,12.743903
1548455862445,-0.168335,-0.896301,0.459595,1.219512,3.902439,12.378049
1548455862453,-0.165161,-0.901428,0.461243,1.402439,4.268293,11.890244
1548455862468,-0.163696,-0.901917,0.461426,1.036585,4.451220,11.768293
1548455862475,-0.163513,-0.899109,0.464050,0.792683,4.390244,11.707317
1548455862483,-0.167664,-0.900879,0.459656,0.426829,3.963415,11.585366
1548455862498,-0.172668,-0.895386,0.460388,0.121951,3.719512,11.280488
1548455862505,-0.179199,-0.888672,0.462341,0.243902,3.475610,11.158537
1548455862513,-0.184021,-0.887817,0.460571,0.609756,3.170732,11.036586
1548455862528,-0.181396,-0.891968,0.460144,1.036585,3.353659,10.304878
1548455862535,-0.181152,-0.896729,0.462219,1.463415,3.414634,9.573171
1548455862543,-0.180115,-0.896057,0.461670,1.646341,3.536585,9.268292
1548455862558,-0.179993,-0.895874,0.463928,1.890244,3.536585,9.329268
1548455862565,-0.185120,-0.900024,0.463501,1.341463,3.231707,9.512196
1548455862573,-0.191101,-0.898621,0.462280,0.426829,3.048780,9.268292
1548455862588,-0.195984,-0.892761,0.462280,0.304878,2.865854,9.024390
1548455862596,-0.191895,-0.884827,0.462524,-0.060976,3.109756,8.597561
1548455862603,-0.187256,-0.884399,0.456726,-0.182927,3.841464,7.865854
1548455862618,-0.186096,-0.890137,0.456177,0.365854,3.963415,7.256098
1548455862625,-0.191284,-0.893860,0.460266,0.792683,3.475610,7.134147
1548455862633,-0.199463,-0.896362,0.457703,0.914634,2.804878,7.195122
1548455862648,-0.202942,-0.894836,0.458801,0.609756,2.439024,7.195122
1548455862655,-0.202332,-0.894653,0.460815,0.182927,2.378049,6.768293
1548455862663,-0.198181,-0.895630,0.460083,0.121951,2.865854,6.280488
1548455862678,-0.195923,-0.895691,0.461487,0.365854,3.109756,5.853659
1548455862686,-0.192810,-0.889893,0.457214,0.548781,3.109756,5.792683
1548455862693,-0.197998,-0.889709,0.457947,0.365854,2.500000,5.670732
1548455862708,-0.204285,-0.891357,0.460754,-0.182927,1.646341,5.487805
1548455862723,-0.210022,-0.886963,0.459045,-0.304878,0.670732,5.121951
1548455862723,-0.214355,-0.886597,0.457764,0.121951,0.487805,4.878049
1548455862738,-0.211853,-0.890625,0.458069,0.609756,0.975610,4.573171
1548455862745,-0.204773,-0.893311,0.459534,0.670732,1.707317,4.390244
1548455862753,-0.201782,-0.896912,0.458374,0.731707,2.500000,4.512195
1548455862768,-0.206665,-0.899353,0.456177,0.792683,2.378049,4.756098
1548455862775,-0.210266,-0.898132,0.459473,0.487805,1.707317,5.000000
1548455862783,-0.212219,-0.893127,0.460876,-0.243902,1.158537,4.939024
1548455862798,-0.210999,-0.891479,0.460388,-0.914634,0.914634,4.695122
1548455862806,-0.209534,-0.893982,0.459839,-1.036585,0.914634,4.451220
1548455862813,-0.208618,-0.895264,0.460083,-0.853659,1.158537,4.634146
1548455862828,-0.211365,-0.893433,0.462280,-0.548781,1.158537,5.000000
1548455862835,-0.211792,-0.900452,0.455933,-0.182927,1.097561,5.365854
1548455862843,-0.216003,-0.907715,0.460754,-1.036585,1.585366,4.939024
1548455862858,-0.220093,-0.902222,0.463257,-2.621951,0.670732,4.024390
1548455862865,-0.220764,-0.896362,0.462708,-3.231707,-0.060976,3.963415
1548455862873,-0.225037,-0.895996,0.458923,-4.146341,0.487805,4.329268
1548455862888,-0.223755,-0.897461,0.456177,-4.512195,1.219512,4.695122
1548455862896,-0.218506,-0.900391,0.452942,-4.329268,1.707317,4.878049
1548455862903,-0.216064,-0.898621,0.453369,-4.390244,1.707317,4.512195
1548455862918,-0.216248,-0.900085,0.450378,-4.329268,1.463415,4.268293
1548455862925,-0.219299,-0.896667,0.449280,-4.512195,1.341463,4.146341
1548455862933,-0.225464,-0.893372,0.450684,-4.756098,0.792683,4.512195
1548455862948,-0.228210,-0.888245,0.451965,-4.573171,0.853659,4.939024
1548455862955,-0.229431,-0.890869,0.449463,-4.329268,1.097561,5.304878
1548455862971,-0.229919,-0.894470,0.451172,-3.902439,1.524390,5.426829
1548455862978,-0.229248,-0.896057,0.452576,-3.780488,1.585366,5.243903
1548455862986,-0.227783,-0.895447,0.447937,-3.597561,1.280488,4.939024
1548455862993,-0.225098,-0.897217,0.445129,-3.780488,1.829268,4.634146
1548455863008,-0.228760,-0.890442,0.448364,-3.841464,2.073171,5.000000
1548455863016,-0.228027,-0.895996,0.440918,-3.109756,2.012195,5.487805
1548455863023,-0.227478,-0.895691,0.436462,-2.743902,2.560976,5.670732
1548455863038,-0.232117,-0.891602,0.442932,-2.317073,1.036585,5.121951
1548455863046,-0.237000,-0.878967,0.449341,-2.378049,0.487805,4.390244
1548455863053,-0.238953,-0.867737,0.452820,-1.951220,0.731707,4.756098
1548455863068,-0.239563,-0.870483,0.450745,0.670732,0.975610,6.646342
1548455863075,-0.236328,-0.888489,0.442505,5.609756,1.707317,8.292683
1548455863083,-0.235596,-0.903259,0.441528,9.268292,3.109756,7.317073
1548455863098,-0.240356,-0.907776,0.447632,10.243902,2.378049,5.670732
1548455863105,-0.243469,-0.909241,0.451843,8.780488,1.646341,5.182927
1548455863113,-0.239868,-0.905396,0.450012,6.463415,2.073171,6.097561
1548455863128,-0.241150,-0.900635,0.448547,4.085366,2.439024,6.768293
1548455863136,-0.247620,-0.896912,0.447327,2.317073,2.073171,7.134147
1548455863143,-0.251404,-0.895569,0.447266,0.792683,1.585366,6.890244
1548455863158,-0.250061,-0.889832,0.451111,-0.487805,1.280488,6.402439
1548455863165,-0.241638,-0.882324,0.449524,-0.792683,1.524390,5.853659
1548455863173,-0.239075,-0.881287,0.446289,-0.182927,2.012195,5.792683
1548455863188,-0.241333,-0.881592,0.447083,0.975610,1.768293,6.280488
1548455863195,-0.248596,-0.883484,0.450623,1.890244,1.646341,6.585366
1548455863203,-0.257812,-0.882263,0.453308,2.439024,0.975610,6.585366
1548455863218,-0.257385,-0.885803,0.451843,2.865854,1.463415,6.463415
1548455863225,-0.253723,-0.887512,0.450623,2.621951,2.073171,6.402439
1548455863233,-0.254639,-0.891235,0.449646,2.073171,2.073171,6.097561
1548455863248,-0.259216,-0.892212,0.451843,1.646341,1.646341,6.036585
1548455863256,-0.259583,-0.887695,0.452576,1.097561,1.585366,6.158537
1548455863263,-0.260498,-0.884216,0.450928,1.036585,1.524390,6.097561
1548455863278,-0.257874,-0.884827,0.451050,1.158537,1.951220,5.975610
1548455863285,-0.255737,-0.884949,0.451599,0.792683,2.012195,5.792683
1548455863293,-0.258911,-0.884705,0.454224,1.158537,1.829268,5.853659
1548455863308,-0.265198,-0.883362,0.454468,1.036585,1.829268,5.975610
1548455863315,-0.269348,-0.879944,0.455261,1.097561,1.890244,6.219512
1548455863323,-0.266602,-0.884033,0.451721,1.463415,1.890244,6.097561
1548455863338,-0.261719,-0.886475,0.450378,1.463415,2.195122,5.426829
1548455863345,-0.260864,-0.883606,0.451843,1.097561,2.134146,4.939024
1548455863353,-0.265625,-0.883789,0.451233,1.280488,1.829268,5.000000
1548455863368,-0.274109,-0.883972,0.450745,1.524390,1.768293,5.365854
1548455863375,-0.279602,-0.878601,0.448669,1.768293,1.768293,5.487805
1548455863383,-0.276245,-0.883423,0.444519,1.951220,2.256098,5.426829
1548455863398,-0.270447,-0.885925,0.445923,1.585366,2.560976,5.000000
1548455863405,-0.266174,-0.882996,0.450378,0.609756,2.073171,4.268293
1548455863413,-0.264343,-0.879883,0.450867,-0.121951,2.012195,3.475610
1548455863428,-0.269409,-0.877136,0.449890,-0.365854,1.463415,3.292683
1548455863435,-0.272705,-0.877869,0.447083,-0.121951,0.731707,3.536585
1548455863443,-0.274902,-0.872253,0.451111,-0.487805,0.426829,3.170732
1548455863458,-0.275513,-0.867493,0.451294,-0.304878,0.000000,2.195122
1548455863466,-0.274536,-0.871765,0.452209,0.060976,0.060976,1.402439
1548455863473,-0.275757,-0.878967,0.449646,0.365854,0.121951,1.036585
1548455863488,-0.274719,-0.879272,0.446472,0.792683,0.304878,1.097561
1548455863495,-0.278564,-0.878357,0.446594,0.975610,0.487805,1.280488
1548455863503,-0.279419,-0.876099,0.448730,1.158537,0.365854,1.036585
1548455863518,-0.276917,-0.878296,0.450623,1.219512,0.121951,0.487805
1548455863525,-0.270996,-0.881836,0.450073,1.280488,-0.060976,0.182927
1548455863533,-0.268677,-0.883728,0.453796,1.219512,0.000000,0.182927
1548455863548,-0.270935,-0.883179,0.449707,1.036585,-0.487805,0.121951
1548455863555,-0.278015,-0.879700,0.452393,0.853659,-1.158537,0.060976
1548455863563,-0.280273,-0.880371,0.457703,0.731707,-1.341463,0.000000
1548455863578,-0.278259,-0.882080,0.456543,0.731707,-1.036585,0.060976
1548455863586,-0.274475,-0.883789,0.456848,1.097561,-0.609756,0.000000
1548455863593,-0.275574,-0.888367,0.453308,1.280488,-0.609756,-0.182927
1548455863608,-0.279297,-0.892700,0.453857,1.158537,-0.670732,-0.182927
1548455863616,-0.282227,-0.890381,0.453064,0.731707,-0.548781,0.121951
1548455863631,-0.284485,-0.886780,0.453552,0.000000,-0.426829,0.426829
1548455863645,-0.281128,-0.885742,0.451904,-0.304878,-0.060976,0.487805
1548455863646,-0.276245,-0.887634,0.448486,-0.548781,0.304878,0.121951
1548455863653,-0.270142,-0.887939,0.447083,-0.731707,0.670732,-0.182927
1548455863668,-0.267090,-0.883301,0.446533,-0.975610,0.304878,-0.182927
1548455863676,-0.268372,-0.879700,0.446167,-1.097561,-0.365854,0.000000
1548455863683,-0.270813,-0.877014,0.449951,-0.975610,-0.975610,0.182927
1548455863698,-0.276123,-0.878845,0.452454,-0.731707,-1.280488,0.365854
1548455863705,-0.279358,-0.878296,0.453125,-0.365854,-1.341463,0.487805
1548455863713,-0.280273,-0.880798,0.453369,-0.121951,-0.975610,0.487805
1548455863728,-0.281494,-0.880554,0.452393,-0.121951,-0.731707,0.548781
1548455863735,-0.279236,-0.881287,0.450989,-0.121951,-0.487805,0.426829
1548455863743,-0.273804,-0.880615,0.445801,-0.060976,-0.060976,0.182927
1548455863758,-0.268921,-0.884705,0.444519,0.060976,-0.060976,0.060976
1548455863766,-0.266113,-0.885437,0.447144,0.304878,-0.548781,0.000000
1548455863773,-0.264465,-0.883179,0.448242,0.609756,-1.158537,-0.182927
1548455863788,-0.269226,-0.882874,0.448242,0.487805,-1.768293,-0.487805
1548455863795,-0.273438,-0.880615,0.451355,0.365854,-1.951220,-0.182927
1548455863803,-0.279968,-0.881592,0.455200,0.304878,-1.829268,0.243902
1548455863818,-0.284607,-0.881531,0.455505,0.304878,-1.707317,0.365854
1548455863825,-0.286255,-0.883179,0.454712,0.365854,-1.219512,0.548781
1548455863833,-0.282471,-0.884033,0.453918,0.487805,-0.609756,0.548781
1548455863848,-0.276184,-0.884399,0.453247,0.426829,0.060976,0.365854
1548455863856,-0.270996,-0.883606,0.452576,0.243902,0.426829,0.121951
1548455863863,-0.269653,-0.884827,0.448730,0.060976,0.304878,0.121951
1548455863878,-0.268555,-0.881042,0.449219,-0.121951,-0.121951,0.000000
1548455863885,-0.269653,-0.877380,0.451660,-0.060976,-0.548781,-0.121951
1548455863893,-0.273193,-0.878845,0.448914,0.060976,-0.975610,-0.182927
1548455863908,-0.279968,-0.882446,0.448547,0.182927,-1.158537,-0.060976
1548455863915,-0.279114,-0.883240,0.453613,0.731707,-1.036585,-0.060976
1548455863923,-0.275940,-0.881531,0.450317,1.097561,-0.487805,-0.182927
1548455863938,-0.276733,-0.880920,0.448486,1.036585,-0.182927,-0.243902
1548455863946,-0.278381,-0.881226,0.450500,0.670732,-0.182927,-0.182927
1548455863953,-0.279480,-0.879822,0.450500,0.548781,-0.243902,-0.304878
1548455863968,-0.275635,-0.877502,0.450989,0.609756,-0.243902,-0.243902
1548455863975,-0.269592,-0.881287,0.447937,0.853659,-0.243902,-0.365854
1548455863983,-0.269409,-0.886780,0.446838,0.914634,-0.365854,-0.426829
1548455863998,-0.271179,-0.887573,0.449585,1.036585,-0.792683,-0.365854
1548455864005,-0.275879,-0.885376,0.450989,1.219512,-1.158537,-0.060976
1548455864013,-0.279358,-0.883972,0.453369,1.036585,-1.219512,0.060976
1548455864028,-0.278381,-0.884399,0.450684,0.731707,-1.219512,-0.121951
1548455864035,-0.274231,-0.882263,0.448364,0.670732,-0.853659,-0.304878
1548455864043,-0.270508,-0.878540,0.449768,0.548781,-0.487805,-0.487805
1548455864058,-0.271301,-0.875488,0.451965,0.670732,-0.548781,-0.426829
1548455864066,-0.278137,-0.878479,0.454407,1.280488,-0.731707,-0.182927
1548455864073,-0.277710,-0.884766,0.455994,1.890244,-0.853659,-0.182927
1548455864088,-0.273499,-0.890015,0.453918,1.829268,-0.609756,-0.487805
1548455864095,-0.270691,-0.888794,0.453186,1.280488,-0.609756,-0.609756
1548455864103,-0.270447,-0.884277,0.449463,0.609756,-0.609756,-0.487805
1548455864118,-0.276184,-0.882202,0.447693,0.060976,-0.548781,-0.182927
1548455864125,-0.281128,-0.878296,0.447510,-0.121951,-0.426829,0.243902
1548455864133,-0.281006,-0.877625,0.448120,0.182927,-0.426829,0.243902
1548455864155,-0.275085,-0.880554,0.450745,0.609756,-0.243902,-0.304878
1548455864156,-0.265991,-0.887817,0.453430,1.158537,-0.060976,-0.731707
1548455864163,-0.262695,-0.888306,0.453064,1.402439,-0.243902,-0.975610
1548455864178,-0.264832,-0.883972,0.454163,1.097561,-0.914634,-0.792683
1548455864185,-0.272888,-0.878052,0.454651,0.548781,-1.707317,-0.609756
1548455864193,-0.279663,-0.872925,0.455872,0.365854,-1.890244,-0.487805
1548455864208,-0.282898,-0.872620,0.455994,0.853659,-1.829268,-0.487805
1548455864215,-0.281189,-0.876587,0.455811,1.768293,-1.402439,-0.914634
1548455864223,-0.274658,-0.879272,0.450562,2.500000,-0.609756,-1.158537
1548455864238,-0.268250,-0.882568,0.447632,2.682927,0.182927,-1.036585
1548455864246,-0.264954,-0.883240,0.448730,2.682927,0.426829,-0.731707
1548455864253,-0.267578,-0.881470,0.450195,2.439024,-0.182927,-0.670732
1548455864268,-0.272278,-0.880798,0.454956,2.256098,-0.731707,-0.853659
1548455864276,-0.271851,-0.878845,0.454834,2.134146,-1.158537,-1.036585
1548455864283,-0.269592,-0.880798,0.452942,2.073171,-1.341463,-1.280488
1548455864298,-0.263733,-0.880859,0.453857,1.951220,-1.646341,-1.768293
1548455864306,-0.265503,-0.879395,0.456238,1.829268,-2.195122,-2.256098
1548455864313,-0.268982,-0.876465,0.456970,1.768293,-2.682927,-2.256098
1548455864328,-0.270203,-0.873840,0.457092,2.012195,-2.560976,-2.256098
1548455864336,-0.267517,-0.874512,0.462769,2.378049,-2.256098,-1.951220
1548455864343,-0.273193,-0.878906,0.460754,2.804878,-2.256098,-2.012195
1548455864358,-0.274414,-0.883057,0.457764,3.109756,-2.317073,-2.195122
1548455864366,-0.274658,-0.884766,0.457886,3.048780,-2.317073,-2.500000
1548455864373,-0.270508,-0.881165,0.455933,2.743902,-2.256098,-2.926829
1548455864395,-0.265015,-0.879517,0.455811,2.317073,-2.073171,-3.170732
1548455864396,-0.254700,-0.877319,0.452271,2.317073,-1.951220,-3.353659
1548455864410,-0.251953,-0.879272,0.454468,2.378049,-1.951220,-3.719512
1548455864418,-0.253540,-0.878540,0.456299,2.682927,-2.804878,-4.024390
1548455864426,-0.262085,-0.876770,0.457520,2.621951,-3.658537,-4.146341
1548455864433,-0.269104,-0.874573,0.458984,2.560976,-4.268293,-4.085366
1548455864448,-0.269714,-0.875000,0.461243,2.621951,-4.207317,-4.207317
1548455864456,-0.263000,-0.875305,0.459900,3.170732,-3.658537,-4.390244
1548455864463,-0.256714,-0.878479,0.462097,3.536585,-3.536585,-4.695122
1548455864478,-0.256592,-0.879700,0.461365,3.658537,-3.597561,-5.426829
1548455864485,-0.254456,-0.878784,0.461365,3.536585,-4.085366,-5.975610
1548455864493,-0.249207,-0.875977,0.461670,3.475610,-4.268293,-6.524390
1548455864508,-0.245605,-0.877136,0.460693,3.414634,-4.695122,-6.951220
1548455864515,-0.242615,-0.878296,0.458801,3.719512,-5.000000,-7.439024
1548455864523,-0.240234,-0.880249,0.463623,3.963415,-5.487805,-7.926829
1548455864538,-0.245483,-0.880188,0.470154,4.573171,-6.036585,-8.109756
1548455864545,-0.249695,-0.883362,0.471741,4.939024,-6.402439,-7.987805
1548455864553,-0.252136,-0.880310,0.475281,5.000000,-6.280488,-7.804878
1548455864568,-0.248962,-0.875305,0.474915,5.243903,-6.036585,-7.987805
1548455864575,-0.244507,-0.875427,0.474609,5.060976,-5.426829,-8.414635
1548455864583,-0.236816,-0.880066,0.471497,4.817073,-5.182927,-8.780488
1548455864605,-0.230347,-0.881531,0.473328,4.695122,-5.000000,-8.841464
1548455864606,-0.231567,-0.884338,0.476868,4.878049,-5.426829,-8.902439
1548455864613,-0.234375,-0.885559,0.477783,4.817073,-6.158537,-9.024390
1548455864628,-0.235901,-0.881348,0.477539,4.512195,-6.646342,-9.146341
1548455864635,-0.232544,-0.882996,0.479553,4.146341,-6.524390,-9.390244
1548455864643,-0.226929,-0.887878,0.480042,4.451220,-6.036585,-9.756098
1548455864658,-0.218262,-0.881775,0.482239,5.121951,-5.609756,-9.756098
1548455864666,-0.219055,-0.878235,0.483887,5.487805,-5.487805,-9.512196
1548455864673,-0.223755,-0.882629,0.484497,4.878049,-5.731708,-8.902439
1548455864688,-0.230957,-0.882324,0.487244,4.268293,-5.914634,-8.475610
1548455864695,-0.232117,-0.873901,0.485779,4.085366,-5.975610,-8.536586
1548455864703,-0.231628,-0.874573,0.482544,4.512195,-5.548780,-8.780488
1548455864718,-0.224670,-0.882324,0.483093,4.756098,-4.573171,-9.085366
1548455864725,-0.213867,-0.882996,0.486389,5.121951,-3.780488,-9.573171
1548455864733,-0.203613,-0.879089,0.487671,5.000000,-3.536585,-9.939025
1548455864748,-0.196777,-0.878479,0.489136,4.207317,-3.902439,-10.121951
1548455864755,-0.197144,-0.877502,0.486877,3.414634,-4.756098,-10.487805
1548455864763,-0.200378,-0.876404,0.486938,3.109756,-5.609756,-10.548780
1548455864778,-0.203308,-0.874329,0.489319,3.292683,-6.219512,-10.609756
1548455864785,-0.205078,-0.876831,0.485718,3.597561,-6.280488,-10.853659
1548455864793,-0.202820,-0.885010,0.491150,4.268293,-5.792683,-11.158537
1548455864808,-0.202576,-0.889404,0.498291,5.121951,-5.121951,-10.731708
1548455864815,-0.205688,-0.890137,0.498901,5.670732,-4.756098,-10.000000
1548455864823,-0.209045,-0.888184,0.498840,5.365854,-4.634146,-9.573171
1548455864838,-0.201721,-0.880371,0.492920,5.000000,-3.841464,-9.817074
1548455864845,-0.189575,-0.877502,0.490173,4.451220,-2.621951,-10.426829
1548455864853,-0.177917,-0.880188,0.491089,4.146341,-2.195122,-10.792684
1548455864868,-0.170654,-0.882324,0.492004,4.085366,-2.256098,-10.975610
1548455864875,-0.169800,-0.884155,0.494690,4.390244,-2.926829,-10.853659
1548455864883,-0.173340,-0.883240,0.498169,4.573171,-3.963415,-10.243902
1548455864898,-0.179749,-0.887146,0.502075,4.329268,-4.939024,-9.878049
1548455864906,-0.186584,-0.885681,0.499084,3.963415,-5.365854,-9.695122
1548455864913,-0.191223,-0.880981,0.497559,3.780488,-5.121951,-9.329268
1548455864928,-0.187805,-0.876465,0.494507,3.231707,-4.390244,-9.268292
1548455864936,-0.177979,-0.873962,0.494202,2.926829,-3.536585,-9.573171
1548455864943,-0.168274,-0.877014,0.495667,3.231707,-2.926829,-10.182927
1548455864958,-0.159973,-0.877808,0.496948,4.024390,-2.987805,-10.792684
1548455864966,-0.157288,-0.883057,0.498962,5.000000,-3.658537,-11.097561
1548455864973,-0.156128,-0.890808,0.497131,5.426829,-4.390244,-10.975610
1548455864988,-0.160156,-0.892334,0.501465,4.939024,-5.060976,-10.548780
1548455864995,-0.164734,-0.883118,0.503174,4.512195,-5.609756,-10.060976
1548455865003,-0.165588,-0.874756,0.505066,4.634146,-6.097561,-9.817074
1548455865018,-0.164734,-0.871216,0.503418,4.451220,-5.975610,-10.060976
1548455865025,-0.156006,-0.872314,0.503418,4.512195,-5.365854,-10.487805
1548455865033,-0.149048,-0.875549,0.506165,5.182927,-4.817073,-10.914635
1548455865048,-0.139709,-0.879944,0.506470,5.548780,-4.390244,-11.219512
1548455865055,-0.133240,-0.885986,0.507446,5.609756,-4.451220,-10.914635
1548455865063,-0.135437,-0.890198,0.506531,5.365854,-5.060976,-10.365854
1548455865078,-0.145081,-0.888855,0.512390,4.573171,-6.219512,-9.512196
1548455865085,-0.155334,-0.883240,0.517517,4.207317,-7.134147,-8.780488
1548455865093,-0.159729,-0.882263,0.517639,3.597561,-6.951220,-8.536586
1548455865108,-0.158630,-0.880798,0.516174,3.231707,-6.097561,-8.719512
1548455865115,-0.147217,-0.880981,0.511963,3.109756,-4.878049,-8.902439
1548455865123,-0.132385,-0.878357,0.512878,2.743902,-3.597561,-9.451220
1548455865138,-0.120667,-0.873291,0.513306,2.865854,-3.292683,-10.121951
1548455865145,-0.114746,-0.876465,0.510864,3.048780,-3.902439,-10.304878
1548455865153,-0.116760,-0.881042,0.512024,2.865854,-4.756098,-9.878049
1548455865168,-0.123901,-0.883301,0.513916,2.987805,-5.548780,-9.329268
1548455865175,-0.131470,-0.877563,0.521118,3.231707,-6.402439,-9.024390
1548455865183,-0.135437,-0.874084,0.521423,3.475610,-6.890244,-8.841464
1548455865198,-0.132629,-0.876038,0.515869,3.353659,-6.219512,-9.207317
1548455865205,-0.129517,-0.876038,0.515442,3.109756,-5.548780,-9.512196
1548455865213,-0.125671,-0.871826,0.516785,3.414634,-4.817073,-9.634147
1548455865228,-0.122559,-0.869995,0.519165,4.024390,-4.085366,-9.878049
1548455865236,-0.115112,-0.871399,0.517090,4.268293,-3.780488,-10.060976
1548455865243,-0.112061,-0.867493,0.516541,4.146341,-3.719512,-10.548780
1548455865258,-0.110168,-0.866272,0.516296,4.329268,-4.329268,-10.914635
1548455865265,-0.099976,-0.866150,0.515381,4.756098,-4.268293,-11.280488
1548455865273,-0.095337,-0.868713,0.519958,5.426829,-4.573171,-11.585366
1548455865288,-0.095886,-0.871216,0.523254,5.731708,-5.182927,-12.073171
1548455865295,-0.100830,-0.874451,0.528320,5.670732,-6.097561,-12.195122
1548455865303,-0.103821,-0.874146,0.526611,5.670732,-6.829268,-12.317074
1548455865318,-0.106140,-0.872009,0.529602,5.731708,-6.951220,-12.500000
1548455865325,-0.102112,-0.871460,0.527405,5.609756,-6.402439,-12.560976
1548455865333,-0.095276,-0.871155,0.528259,5.670732,-5.670732,-12.682927
1548455865348,-0.092651,-0.868835,0.530579,5.487805,-5.182927,-13.109756
1548455865356,-0.089233,-0.870056,0.531189,5.609756,-5.182927,-13.353659
1548455865363,-0.091248,-0.871399,0.531128,6.158537,-5.365854,-13.353659
1548455865378,-0.088623,-0.874207,0.531067,6.585366,-5.060976,-13.109756
1548455865385,-0.084412,-0.871277,0.531982,7.073171,-4.695122,-13.109756
1548455865393,-0.073547,-0.869690,0.534119,7.500000,-4.451220,-13.109756
1548455865408,-0.065430,-0.877319,0.533081,7.987805,-4.329268,-12.865854
1548455865415,-0.062622,-0.883179,0.538635,8.292683,-4.085366,-12.439025
1548455865423,-0.064880,-0.880066,0.544373,8.353659,-4.695122,-11.768293
1548455865446,-0.071960,-0.878357,0.546326,8.231708,-5.670732,-10.975610
1548455865454,-0.080017,-0.875793,0.543823,7.560976,-6.097561,-10.914635
1548455865455,-0.078369,-0.873413,0.540283,7.012195,-5.914634,-10.853659
1548455865473,-0.067505,-0.870728,0.541443,6.829268,-4.939024,-10.914635
1548455865477,-0.057495,-0.872253,0.544678,6.890244,-4.085366,-10.975610
1548455865483,-0.050537,-0.871094,0.544250,7.073171,-3.719512,-10.914635
1548455865498,-0.048767,-0.867493,0.546814,7.134147,-4.024390,-10.426829
1548455865505,-0.054138,-0.869507,0.552185,7.378049,-4.573171,-9.817074
1548455865513,-0.057678,-0.868286,0.553711,7.439024,-4.939024,-9.024390
1548455865528,-0.059631,-0.869873,0.550232,7.439024,-4.695122,-8.597561
1548455865536,-0.051758,-0.868042,0.551636,7.256098,-4.451220,-8.658537
1548455865543,-0.042114,-0.869141,0.552612,6.585366,-3.841464,-8.841464
1548455865558,-0.033997,-0.872070,0.551514,5.975610,-3.719512,-8.902439
1548455865566,-0.035522,-0.871155,0.552124,5.304878,-4.024390,-8.719512
1548455865573,-0.041321,-0.868347,0.552856,4.817073,-4.756098,-7.987805
1548455865588,-0.050415,-0.865051,0.552185,4.878049,-5.426829,-7.256098
1548455865596,-0.052063,-0.866882,0.557129,5.121951,-5.426829,-6.829268
1548455865603,-0.050171,-0.871338,0.560547,5.365854,-4.512195,-6.768293
1548455865618,-0.041931,-0.870850,0.555847,5.304878,-3.658537,-7.012195
1548455865626,-0.030701,-0.866638,0.554688,4.939024,-2.987805,-7.073171
1548455865633,-0.023560,-0.866394,0.552490,4.451220,-2.743902,-7.012195
1548455865648,-0.023865,-0.863037,0.556274,4.085366,-3.353659,-6.524390
1548455865656,-0.029907,-0.859680,0.556946,3.902439,-4.146341,-6.097561
1548455865663,-0.032104,-0.855408,0.557800,3.658537,-4.695122,-5.487805
1548455865678,-0.031738,-0.857605,0.557312,3.780488,-4.634146,-5.182927
1548455865693,-0.028381,-0.859985,0.559143,3.963415,-4.390244,-5.121951
1548455865694,-0.024353,-0.861450,0.560608,3.963415,-4.390244,-5.365854
1548455865708,-0.022827,-0.860718,0.561768,4.451220,-4.512195,-5.487805
1548455865716,-0.023254,-0.866089,0.565002,4.817073,-4.634146,-5.060976
1548455865723,-0.029053,-0.867004,0.563843,4.451220,-4.573171,-4.329268
1548455865738,-0.033875,-0.867493,0.563904,3.658537,-4.634146,-3.963415
1548455865746,-0.032410,-0.862366,0.565125,2.987805,-4.329268,-3.719512
1548455865754,-0.023987,-0.856812,0.563843,2.439024,-3.536585,-3.780488
1548455865770,-0.015991,-0.859558,0.563904,1.951220,-2.743902,-4.146341
1548455865776,-0.010986,-0.865662,0.562744,2.195122,-2.439024,-4.024390
1548455865783,-0.012878,-0.868164,0.566833,2.500000,-2.500000,-3.414634
1548455865798,-0.018982,-0.866028,0.571655,2.195122,-2.743902,-2.743902
1548455865805,-0.024963,-0.864441,0.570923,1.585366,-3.231707,-2.134146
1548455865813,-0.026978,-0.861511,0.568115,0.853659,-3.170732,-1.768293
1548455865828,-0.024475,-0.858521,0.565369,0.487805,-2.500000,-1.707317
1548455865835,-0.019531,-0.860107,0.565308,0.426829,-2.134146,-1.829268
1548455865843,-0.016663,-0.859619,0.564880,0.426829,-1.829268,-1.890244
1548455865858,-0.018433,-0.856445,0.566833,0.060976,-1.707317,-2.012195
1548455865866,-0.019531,-0.857788,0.565308,-0.609756,-1.707317,-1.951220
1548455865873,-0.014893,-0.855103,0.566284,-1.097561,-1.402439,-1.829268
1548455865888,-0.016724,-0.856140,0.564514,-1.158537,-1.097561,-1.646341
1548455865895,-0.016968,-0.859802,0.566589,-1.036585,-1.219512,-1.280488
1548455865903,-0.016663,-0.857971,0.565247,-0.731707,-1.280488,-1.097561
1548455865918,-0.014832,-0.856140,0.566284,-0.792683,-1.280488,-1.280488
1548455865926,-0.013916,-0.857056,0.565674,-1.036585,-1.524390,-1.280488
1548455865933,-0.013672,-0.856628,0.564941,-1.097561,-1.585366,-1.341463
1548455865949,-0.012146,-0.856018,0.567993,-1.097561,-1.707317,-1.219512
1548455865956,-0.014709,-0.856140,0.567383,-1.219512,-1.707317,-1.036585
1548455865963,-0.016235,-0.858948,0.569092,-1.341463,-1.768293,-0.914634
1548455865978,-0.017883,-0.862000,0.571350,-1.463415,-1.768293,-0.731707
1548455865986,-0.017700,-0.862244,0.571716,-1.585366,-1.341463,-0.609756
1548455865993,-0.016541,-0.862793,0.569336,-2.073171,-1.036585,-0.670732
1548455866008,-0.015442,-0.861877,0.564880,-2.865854,-0.853659,-0.731707
1548455866016,-0.013367,-0.863342,0.563904,-3.231707,-0.792683,-0.853659
1548455866023,-0.009094,-0.864929,0.564270,-3.353659,-0.487805,-0.914634
1548455866039,-0.007996,-0.866089,0.564087,-3.536585,-0.304878,-0.731707
1548455866046,-0.010010,-0.860229,0.559998,-4.024390,-0.426829,-0.304878
1548455866053,-0.011169,-0.850891,0.555664,-4.695122,-0.487805,0.060976
1548455866069,-0.013733,-0.839539,0.549500,-5.121951,-0.548781,0.548781
1548455866076,-0.015381,-0.836609,0.546570,-4.878049,-0.243902,0.670732
1548455866084,-0.013733,-0.843994,0.550171,-3.841464,0.060976,0.731707
1548455866098,-0.013794,-0.855774,0.552795,-2.439024,0.243902,0.609756
1548455866107,-0.012817,-0.869080,0.554199,-1.646341,0.426829,0.487805
1548455866113,-0.009827,-0.877319,0.554016,-1.707317,0.670732,0.304878
1548455866129,-0.006958,-0.882080,0.552063,-2.195122,0.670732,0.365854
1548455866136,-0.008240,-0.880615,0.551025,-2.987805,0.365854,0.548781
1548455866143,-0.011597,-0.876526,0.548950,-4.024390,0.060976,0.853659
1548455866158,-0.016479,-0.875916,0.544434,-4.573171,-0.365854,1.219512
1548455866166,-0.019653,-0.876282,0.545349,-4.756098,-0.548781,1.280488
1548455866174,-0.016052,-0.874268,0.544922,-4.695122,-0.365854,1.219512
1548455866189,-0.010925,-0.870850,0.547302,-4.390244,-0.182927,1.158537
1548455866203,-0.010742,-0.872498,0.545532,-4.085366,-0.304878,1.219512
1548455866204,-0.013977,-0.866516,0.547119,-3.963415,-0.670732,1.463415
1548455866218,-0.015442,-0.856873,0.549133,-4.329268,-0.853659,1.585366
1548455866226,-0.020386,-0.852966,0.545105,-4.817073,-0.975610,1.890244
1548455866234,-0.021240,-0.848877,0.543457,-4.695122,-0.731707,2.012195
1548455866248,-0.021667,-0.844360,0.541565,-3.963415,-0.731707,2.012195
1548455866255,-0.020508,-0.845520,0.539795,-3.231707,-0.548781,1.768293
1548455866263,-0.017822,-0.849304,0.538818,-2.256098,-0.548781,1.585366
1548455866278,-0.018066,-0.851013,0.539001,-1.280488,-0.548781,1.341463
1548455866286,-0.019104,-0.846863,0.539673,-0.304878,-0.731707,1.402439
1548455866293,-0.019226,-0.838684,0.538147,0.670732,-0.853659,1.646341
1548455866317,-0.024536,-0.834534,0.536926,1.768293,-0.914634,2.012195
1548455866317,-0.025513,-0.829834,0.537292,3.170732,-0.975610,2.134146
1548455866324,-0.026855,-0.838257,0.539001,5.182927,-0.731707,1.707317
1548455866338,-0.026184,-0.845825,0.544678,7.317073,-0.365854,1.158537
1548455866346,-0.022034,-0.857361,0.548462,9.207317,0.182927,0.548781
1548455866353,-0.014709,-0.867310,0.547119,10.182927,0.609756,-0.243902
1548455866368,-0.009216,-0.869568,0.547058,10.426829,0.670732,-0.487805
1548455866377,-0.008484,-0.867065,0.548279,10.243902,0.365854,-0.426829
1548455866383,-0.009705,-0.863892,0.549744,9.939025,-0.365854,-0.182927
1548455866399,-0.013611,-0.859009,0.553894,9.756098,-0.975610,0.121951
1548455866421,-0.017578,-0.856995,0.553711,9.451220,-1.341463,0.243902
1548455866422,-0.016174,-0.852600,0.550354,9.451220,-1.402439,0.548781
1548455866444,-0.018921,-0.848206,0.552246,9.817074,-1.158537,0.670732
1548455866445,-0.021240,-0.850037,0.554260,10.487805,-0.975610,0.487805
1548455866445,-0.021179,-0.855713,0.555420,10.975610,-0.792683,0.426829
1548455866459,-0.019409,-0.865417,0.560303,11.219512,-0.426829,0.182927
1548455866466,-0.015076,-0.876587,0.563538,10.853659,-0.243902,-0.365854
1548455866481,-0.010559,-0.882202,0.567017,10.060976,-0.182927,-0.853659
1548455866489,-0.007385,-0.880432,0.571289,8.841464,-0.121951,-0.914634
1548455866496,-0.005310,-0.873535,0.572083,7.134147,-0.121951,-0.487805
1548455866504,-0.010010,-0.862061,0.571716,5.365854,-0.304878,0.000000
1548455866519,-0.018250,-0.855530,0.570557,4.085366,-0.548781,0.609756
1548455866526,-0.023499,-0.853210,0.571960,3.597561,-0.853659,0.975610
1548455866534,-0.022400,-0.852173,0.576782,3.719512,-0.853659,0.914634
1548455866549,-0.023132,-0.857056,0.579102,3.841464,-0.609756,0.548781
1548455866556,-0.020752,-0.859619,0.582092,3.719512,-0.426829,0.243902
1548455866564,-0.019043,-0.860352,0.583008,3.414634,-0.182927,0.243902
1548455866579,-0.019714,-0.861938,0.581177,2.682927,0.000000,0.182927
1548455866587,-0.022644,-0.859009,0.580627,1.585366,0.182927,0.182927
1548455866594,-0.024475,-0.855164,0.583801,0.853659,0.365854,0.243902
1548455866609,-0.023743,-0.850403,0.582947,0.304878,0.731707,0.243902
1548455866616,-0.024536,-0.843628,0.579468,0.121951,1.158537,0.243902
1548455866623,-0.023682,-0.837158,0.580200,0.182927,1.341463,0.121951
1548455866639,-0.023438,-0.837524,0.580078,0.243902,1.524390,0.121951
1548455866646,-0.023132,-0.841980,0.579773,0.121951,1.646341,-0.060976
1548455866653,-0.023254,-0.841248,0.580139,0.000000,1.951220,-0.243902
1548455866669,-0.023132,-0.842590,0.580933,-0.060976,2.073171,-0.182927
1548455866676,-0.024658,-0.839355,0.579895,-0.060976,2.073171,0.000000
1548455866684,-0.024292,-0.841003,0.578003,0.060976,2.195122,-0.060976
1548455866699,-0.022583,-0.845581,0.577209,0.243902,2.256098,-0.182927
1548455866706,-0.021667,-0.847839,0.580261,0.426829,2.195122,-0.365854
1548455866713,-0.020569,-0.852783,0.579590,0.365854,2.134146,-0.365854
1548455866728,-0.020081,-0.852661,0.578857,-0.121951,1.951220,-0.426829
1548455866736,-0.018738,-0.852722,0.574463,-0.426829,1.768293,-0.487805
1548455866743,-0.016113,-0.853943,0.572266,-0.365854,1.585366,-0.365854
1548455866758,-0.019348,-0.853760,0.569946,-0.243902,1.463415,-0.182927
1548455866765,-0.021912,-0.853271,0.573730,0.060976,1.097561,-0.060976
1548455866773,-0.021240,-0.859131,0.577148,0.121951,1.097561,-0.060976
1548455866788,-0.019470,-0.861816,0.576538,0.243902,1.280488,-0.304878
1548455866803,-0.016418,-0.863708,0.577454,-0.060976,1.524390,-0.609756
1548455866803,-0.015442,-0.861084,0.573242,-0.609756,1.402439,-0.792683
1548455866818,-0.015198,-0.854248,0.568604,-1.341463,1.097561,-0.548781
1548455866826,-0.018799,-0.847351,0.567871,-2.012195,0.731707,-0.121951
1548455866833,-0.021057,-0.846680,0.571167,-2.073171,0.365854,0.304878
1548455866848,-0.022156,-0.850037,0.569397,-1.829268,0.182927,0.548781
1548455866856,-0.022034,-0.852356,0.569214,-1.463415,0.060976,0.731707
1548455866863,-0.023132,-0.850464,0.572205,-1.158537,-0.060976,0.731707
1548455866878,-0.024353,-0.848267,0.573914,-1.097561,-0.304878,0.548781
1548455866886,-0.024231,-0.853088,0.570740,-1.097561,-0.426829,0.365854
1548455866893,-0.021362,-0.855103,0.569397,-0.914634,-0.182927,0.243902
1548455866908,-0.019226,-0.853882,0.570679,-0.914634,-0.060976,0.182927
1548455866915,-0.019287,-0.851257,0.568909,-0.731707,-0.243902,0.426829
1548455866923,-0.023010,-0.848572,0.567993,-0.609756,-0.731707,0.792683
1548455866938,-0.025635,-0.851501,0.571350,-0.304878,-1.036585,1.158537
1548455866945,-0.025391,-0.851074,0.575439,0.182927,-1.280488,1.219512
1548455866953,-0.025085,-0.851807,0.575195,0.487805,-0.975610,1.219512
1548455866968,-0.022705,-0.853088,0.573425,0.426829,-0.731707,0.914634
1548455866975,-0.023071,-0.850769,0.572327,0.182927,-0.731707,0.853659
1548455866983,-0.024902,-0.852539,0.573303,-0.060976,-0.792683,0.853659
1548455866998,-0.026367,-0.848694,0.571472,-0.243902,-0.853659,0.792683
1548455867005,-0.026672,-0.846863,0.571411,-0.426829,-0.792683,0.731707
1548455867013,-0.024780,-0.847839,0.572205,-0.426829,-0.731707,0.548781
1548455867028,-0.023987,-0.849854,0.573975,-0.182927,-0.792683,0.121951
1548455867035,-0.020630,-0.852905,0.571594,-0.182927,-0.609756,0.000000
1548455867043,-0.023010,-0.853638,0.572021,-0.304878,-0.365854,-0.121951
1548455867058,-0.022583,-0.851440,0.570984,-0.792683,-0.548781,-0.060976
1548455867065,-0.027161,-0.853577,0.569580,-1.280488,-0.548781,0.060976
1548455867073,-0.027710,-0.854065,0.568848,-1.646341,-0.609756,0.121951
1548455867088,-0.026978,-0.850952,0.567383,-1.829268,-0.487805,-0.060976
1548455867095,-0.025269,-0.851257,0.565735,-1.890244,-0.426829,-0.426829
1548455867103,-0.023499,-0.852539,0.564575,-1.829268,-0.426829,-0.792683
1548455867125,-0.018738,-0.852478,0.566956,-1.646341,-0.487805,-0.853659
1548455867126,-0.016174,-0.853149,0.568420,-1.463415,-0.426829,-0.853659
1548455867133,-0.019897,-0.855469,0.567261,-1.402439,-0.548781,-0.670732
1548455867148,-0.022949,-0.855469,0.565674,-1.341463,-0.670732,-0.365854
1548455867155,-0.023926,-0.855042,0.565979,-1.402439,-0.853659,-0.121951
1548455867163,-0.023499,-0.856201,0.564758,-1.524390,-0.914634,-0.121951
1548455867178,-0.022827,-0.857544,0.566040,-1.341463,-0.731707,-0.243902
1548455867185,-0.019043,-0.854065,0.562805,-1.280488,-0.548781,-0.182927
1548455867193,-0.020508,-0.852966,0.561890,-1.280488,-0.487805,-0.182927
1548455867208,-0.020020,-0.856628,0.564758,-1.097561,-0.609756,-0.060976
1548455867215,-0.022583,-0.857239,0.565308,-0.731707,-0.670732,0.243902
1548455867223,-0.024353,-0.853821,0.564392,-0.731707,-0.853659,0.548781
1548455867238,-0.027039,-0.852295,0.563232,-0.731707,-0.731707,0.609756
1548455867245,-0.024048,-0.854065,0.564331,-0.792683,-0.670732,0.487805
1548455867253,-0.022461,-0.857666,0.564209,-0.548781,-0.670732,0.121951
1548455867268,-0.019714,-0.856140,0.566101,-0.182927,-0.670732,0.060976
1548455867275,-0.016602,-0.853088,0.565674,-0.060976,-0.609756,0.182927
1548455867283,-0.021362,-0.854126,0.560608,-0.304878,-0.670732,0.365854
1548455867298,-0.024902,-0.851440,0.561035,-0.792683,-0.792683,0.609756
1548455867306,-0.026794,-0.849487,0.566162,-0.792683,-1.097561,0.853659
1548455867313,-0.028687,-0.850708,0.563660,-0.792683,-1.158537,0.914634
1548455867330,-0.025635,-0.854065,0.561890,-0.609756,-0.792683,0.609756
1548455867337,-0.024963,-0.858398,0.562561,-0.060976,-0.548781,0.426829
1548455867347,-0.025208,-0.861816,0.562439,0.060976,-0.548781,0.304878
1548455867358,-0.023376,-0.856323,0.565857,0.000000,-0.426829,0.304878
1548455867366,-0.019470,-0.851074,0.563049,-0.304878,-0.243902,0.304878
1548455867373,-0.019775,-0.852844,0.563293,-0.304878,-0.487805,0.487805
1548455867388,-0.023010,-0.855530,0.564453,-0.121951,-0.731707,0.792683
1548455867396,-0.024170,-0.856628,0.566650,0.243902,-0.914634,0.975610
1548455867403,-0.024780,-0.856934,0.561096,0.426829,-0.731707,0.975610
1548455867418,-0.024231,-0.856873,0.561401,0.365854,-0.487805,0.975610
1548455867426,-0.019470,-0.859070,0.562378,0.426829,-0.304878,1.036585
1548455867433,-0.020935,-0.858337,0.563171,0.426829,-0.243902,1.280488
1548455867448,-0.022339,-0.860596,0.563354,0.548781,-0.487805,1.646341
1548455867458,-0.026672,-0.865234,0.563049,0.609756,-0.792683,1.951220
1548455867463,-0.025513,-0.867493,0.566040,0.426829,-0.731707,2.195122
1548455867478,-0.024597,-0.864624,0.564697,0.121951,-0.304878,2.500000
1548455867486,-0.023682,-0.864197,0.565735,-0.243902,0.060976,2.682927
1548455867493,-0.022705,-0.866211,0.566223,-0.609756,0.121951,3.048780
1548455867508,-0.026123,-0.866089,0.569580,-0.853659,0.182927,3.658537
1548455867516,-0.030212,-0.863953,0.570557,-1.524390,0.304878,4.146341
1548455867523,-0.030823,-0.867432,0.566711,-2.134146,0.243902,4.451220
1548455867538,-0.031250,-0.871399,0.567444,-2.560976,0.609756,4.512195
1548455867545,-0.031433,-0.870911,0.568176,-3.048780,1.097561,4.817073
1548455867553,-0.031250,-0.868530,0.563782,-3.719512,1.463415,5.304878
1548455867568,-0.035400,-0.863220,0.562195,-4.573171,1.707317,5.670732
1548455867575,-0.038513,-0.862366,0.561707,-5.304878,1.829268,6.158537
1548455867583,-0.039490,-0.861755,0.559998,-5.487805,2.012195,6.280488
1548455867598,-0.038574,-0.860352,0.560364,-5.609756,2.378049,6.341464
1548455867605,-0.038208,-0.859497,0.558716,-5.731708,2.621951,6.341464
1548455867613,-0.037415,-0.859558,0.555359,-6.097561,2.987805,6.524390
1548455867628,-0.038818,-0.859680,0.558716,-6.158537,3.048780,6.768293
1548455867635,-0.043945,-0.858337,0.557129,-5.975610,2.743902,6.890244
1548455867643,-0.043762,-0.861694,0.555420,-6.097561,2.439024,7.134147
1548455867658,-0.042664,-0.864380,0.552490,-6.097561,2.682927,7.256098
1548455867665,-0.046448,-0.869080,0.553101,-6.280488,2.682927,7.256098
1548455867673,-0.047302,-0.868286,0.549622,-6.524390,2.621951,7.378049
1548455867688,-0.048462,-0.866638,0.547729,-6.585366,2.682927,7.500000
1548455867695,-0.051147,-0.866943,0.548584,-6.829268,2.682927,7.743903
1548455867703,-0.050842,-0.869629,0.545654,-6.707317,2.804878,8.170732
1548455867718,-0.052124,-0.870911,0.545532,-6.585366,3.170732,8.475610
1548455867725,-0.056702,-0.871155,0.542053,-6.707317,3.048780,8.658537
1548455867748,-0.058472,-0.870667,0.540894,-6.890244,3.048780,8.963415
1548455867749,-0.061951,-0.872925,0.543518,-6.890244,2.987805,9.390244
1548455867755,-0.063171,-0.873779,0.543274,-6.890244,3.170732,9.939025
1548455867763,-0.063416,-0.872864,0.540894,-6.768293,3.597561,10.548780
1548455867778,-0.061279,-0.874268,0.540955,-6.402439,3.902439,11.036586
1548455867786,-0.064575,-0.876709,0.538635,-6.463415,4.268293,10.914635
1548455867793,-0.065002,-0.877930,0.535950,-6.463415,3.658537,11.158537
1548455867808,-0.067505,-0.878967,0.536194,-6.585366,3.536585,11.646341
1548455867815,-0.068726,-0.879700,0.534241,-6.829268,3.597561,12.317074
1548455867823,-0.075439,-0.879089,0.533936,-7.134147,3.658537,12.926829
1548455867838,-0.084473,-0.878296,0.530884,-7.256098,3.170732,13.597561
1548455867845,-0.091614,-0.882080,0.531860,-7.073171,3.231707,14.207317
1548455867853,-0.092041,-0.885193,0.532654,-6.951220,3.658537,14.695123
1548455867868,-0.090149,-0.882263,0.530762,-6.829268,4.268293,15.060976
1548455867875,-0.087341,-0.879395,0.528198,-6.951220,4.878049,15.121951
1548455867883,-0.087952,-0.880371,0.526489,-7.317073,5.121951,15.365854
1548455867898,-0.086609,-0.880127,0.525085,-7.500000,5.000000,15.975610
1548455867906,-0.094421,-0.880554,0.524963,-7.378049,4.756098,16.219513
1548455867913,-0.099976,-0.880005,0.523743,-7.378049,4.024390,16.524391
1548455867928,-0.103333,-0.877991,0.522705,-7.317073,3.963415,16.829269
1548455867935,-0.108826,-0.875916,0.522888,-7.378049,4.085366,16.768293
1548455867943,-0.110962,-0.876099,0.521851,-7.378049,4.329268,17.012196
1548455867958,-0.110352,-0.879578,0.519348,-7.256098,4.756098,17.134148
1548455867965,-0.114624,-0.879333,0.516968,-7.439024,4.878049,16.890244
1548455867973,-0.119202,-0.880371,0.514954,-7.560976,4.573171,16.585365
1548455867988,-0.123840,-0.877075,0.516113,-7.500000,4.512195,16.524391
1548455867995,-0.123718,-0.878052,0.512878,-7.500000,4.756098,16.463415
1548455868003,-0.125732,-0.879150,0.514160,-7.500000,5.000000,16.280489
1548455868018,-0.125793,-0.879272,0.512634,-7.378049,5.000000,16.097561
1548455868026,-0.129211,-0.882751,0.511353,-7.378049,5.182927,16.036585
1548455868033,-0.134888,-0.879211,0.509705,-7.439024,5.000000,15.853659
1548455868048,-0.139404,-0.876099,0.508057,-7.439024,4.756098,15.731708
1548455868056,-0.142578,-0.875977,0.509155,-7.439024,4.817073,15.548780
1548455868063,-0.141785,-0.874573,0.504333,-7.317073,5.121951,15.304878
1548455868078,-0.142517,-0.879456,0.502869,-7.073171,5.548780,14.756098
1548455868086,-0.146118,-0.885193,0.502686,-6.951220,5.243903,14.451220
1548455868093,-0.149658,-0.887390,0.500488,-6.646342,5.182927,14.451220
1548455868108,-0.155701,-0.886353,0.502808,-6.524390,5.121951,14.390244
1548455868116,-0.163513,-0.884216,0.503845,-6.646342,4.695122,14.634147
1548455868123,-0.166321,-0.884216,0.500305,-7.012195,4.878049,14.573171
1548455868138,-0.167664,-0.883545,0.497986,-7.256098,5.304878,14.268293
1548455868146,-0.165344,-0.880981,0.495972,-6.951220,5.609756,14.146341
1548455868153,-0.166748,-0.882996,0.494446,-6.463415,5.853659,13.841464
1548455868168,-0.166382,-0.884338,0.492493,-5.914634,5.975610,14.146341
1548455868176,-0.169373,-0.886353,0.493347,-5.487805,6.097561,14.390244
1548455868183,-0.173584,-0.887512,0.493164,-5.182927,5.914634,14.512196
1548455868198,-0.180908,-0.885559,0.490723,-5.000000,5.548780,14.695123
1548455868205,-0.188477,-0.882996,0.487976,-4.817073,5.182927,14.695123
1548455868213,-0.191040,-0.884094,0.488403,-4.695122,5.243903,14.329268
1548455868228,-0.192322,-0.885620,0.485107,-4.329268,5.975610,14.024390
1548455868236,-0.190125,-0.888916,0.483582,-4.024390,6.829268,13.841464
1548455868243,-0.187622,-0.886536,0.481689,-3.902439,7.439024,14.024390
1548455868258,-0.188232,-0.883423,0.483521,-3.780488,7.500000,14.451220
1548455868265,-0.194214,-0.882385,0.481445,-3.597561,7.195122,14.634147
1548455868273,-0.201721,-0.880127,0.481995,-3.475610,6.646342,14.634147
1548455868288,-0.204041,-0.880615,0.480469,-2.926829,6.097561,14.634147
1548455868295,-0.204590,-0.885437,0.481567,-2.256098,6.097561,14.451220
1548455868303,-0.207214,-0.886414,0.481445,-2.195122,6.280488,14.207317
1548455868318,-0.212036,-0.889282,0.480713,-2.012195,6.341464,14.268293
1548455868325,-0.210083,-0.893738,0.476440,-2.195122,6.402439,14.573171
1548455868333,-0.203674,-0.892151,0.471924,-3.231707,6.768293,14.390244
1548455868348,-0.214233,-0.894104,0.474243,-5.000000,6.707317,13.597561
1548455868355,-0.226135,-0.891296,0.472046,-5.975610,4.024390,13.048780
1548455868363,-0.230103,-0.888977,0.474182,-6.036585,3.658537,13.170732
1548455868378,-0.230957,-0.885925,0.473083,-6.158537,4.756098,13.536586
1548455868385,-0.229004,-0.888184,0.469116,-6.463415,5.548780,13.658537
1548455868393,-0.228516,-0.894165,0.463440,-6.524390,5.670732,13.414635
1548455868409,-0.229553,-0.889709,0.465210,-6.646342,5.365854,12.987805
1548455868434,-0.236633,-0.882324,0.463257,-6.890244,4.756098,12.682927
1548455868441,-0.243652,-0.878296,0.464966,-6.890244,4.268293,12.560976
1548455868458,-0.246033,-0.875305,0.461914,-6.707317,4.512195,12.987805
1548455868464,-0.248230,-0.872864,0.463379,-5.487805,5.060976,13.841464
1548455868464,-0.246216,-0.877136,0.461914,-3.963415,5.609756,14.329268
1548455868468,-0.245544,-0.877991,0.464966,-2.743902,5.975610,14.024390
1548455868475,-0.249878,-0.876709,0.465271,-1.890244,5.487805,13.536586
1548455868483,-0.256714,-0.881897,0.459229,-1.219512,5.121951,13.292684
1548455868528,-0.256226,-0.883850,0.457764,-0.609756,5.365854,13.597561
1548455868528,-0.257324,-0.886963,0.455994,-0.853659,5.243903,13.292684
1548455868528,-0.251526,-0.900696,0.447266,-1.402439,4.756098,12.439025
1548455868533,-0.252319,-0.902954,0.445129,-3.597561,5.304878,11.036586
1548455868535,-0.268188,-0.888245,0.461670,-7.073171,2.439024,8.841464
1548455868543,-0.272339,-0.883972,0.456116,-8.902439,0.731707,8.292683
1548455868558,-0.264221,-0.877319,0.450378,-10.182927,2.560976,9.329268
1548455868565,-0.260925,-0.873474,0.450989,-10.365854,3.719512,10.121951
1548455868573,-0.266663,-0.875610,0.449829,-9.634147,3.536585,10.000000
1548455868610,-0.279663,-0.874207,0.452759,-8.963415,2.682927,9.451220
1548455868611,-0.284363,-0.874084,0.450928,-8.170732,2.073171,9.146341
1548455868611,-0.282532,-0.877197,0.447021,-7.317073,3.048780,8.658537
1548455868623,-0.278198,-0.881287,0.444641,-6.402439,4.085366,8.719512
1548455868625,-0.276306,-0.882324,0.442078,-6.036585,4.756098,9.024390
1548455868633,-0.279907,-0.884949,0.441467,-5.792683,4.573171,9.207317
1548455868649,-0.288513,-0.883972,0.444092,-5.914634,3.719512,8.780488
1548455868663,-0.287903,-0.881409,0.440125,-6.158537,3.414634,8.048780
1548455868663,-0.285767,-0.880005,0.436462,-6.341464,4.146341,7.560976
1548455868678,-0.284058,-0.878296,0.435486,-5.975610,4.268293,7.378049
1548455868686,-0.285278,-0.879272,0.435852,-5.731708,3.780488,7.134147
1548455868693,-0.288879,-0.876953,0.433533,-5.365854,3.475610,6.890244
1548455868708,-0.293701,-0.870728,0.433472,-5.060976,2.621951,6.402439
1548455868716,-0.293579,-0.870605,0.432678,-4.390244,2.317073,5.670732
1548455868727,-0.290405,-0.875000,0.429871,-2.926829,2.134146,5.792683
1548455868741,-0.299011,-0.875000,0.432190,-2.256098,2.926829,5.853659
1548455868746,-0.306396,-0.872559,0.432861,-1.219512,2.134146,5.975610
1548455868753,-0.298767,-0.881653,0.428589,0.487805,1.951220,5.914634
1548455868768,-0.290344,-0.884216,0.426147,0.182927,3.170732,4.573171
1548455868776,-0.287720,-0.880432,0.424927,-0.609756,2.926829,2.987805
1548455868783,-0.289001,-0.881104,0.424011,-1.036585,1.646341,2.560976
1548455868798,-0.291199,-0.879822,0.426880,-1.280488,0.914634,2.500000
1548455868805,-0.301758,-0.876465,0.426697,-1.707317,0.000000,1.951220
1548455868813,-0.304626,-0.876526,0.427734,-1.036585,-0.914634,1.646341
1548455868828,-0.304138,-0.881348,0.430664,-0.609756,-0.243902,1.280488
1548455868835,-0.300171,-0.882446,0.429626,-0.548781,-0.121951,0.670732
1548455868843,-0.297607,-0.883850,0.428223,-0.182927,-0.365854,0.304878
1548455868858,-0.297852,-0.884766,0.426147,-0.304878,-0.487805,0.121951
1548455868865,-0.299561,-0.885742,0.429871,-0.121951,-0.548781,0.182927
1548455868873,-0.301208,-0.885986,0.427917,0.060976,-1.036585,0.000000
1548455868888,-0.296753,-0.887634,0.426697,0.121951,-1.158537,-0.426829
1548455868895,-0.292480,-0.888062,0.426514,0.060976,-1.158537,-0.670732
1548455868903,-0.290649,-0.888611,0.427917,-0.243902,-1.524390,-0.670732
1548455868918,-0.298279,-0.889526,0.427307,-0.487805,-1.890244,-0.426829
1548455868925,-0.305481,-0.887512,0.429871,-0.487805,-1.829268,0.182927
1548455868933,-0.311462,-0.887878,0.433289,-0.426829,-1.585366,0.914634
1548455868948,-0.307434,-0.893494,0.436035,-0.243902,-1.036585,1.097561
1548455868956,-0.302124,-0.899109,0.432129,-0.243902,-0.365854,0.853659
1548455868963,-0.298096,-0.898376,0.426147,-0.182927,0.000000,0.548781
1548455868978,-0.297913,-0.894958,0.428833,-0.731707,-0.182927,0.792683
1548455868986,-0.299316,-0.890869,0.430847,-1.402439,-0.426829,1.158537
1548455868993,-0.296997,-0.883179,0.428894,-1.646341,-0.731707,1.402439
1548455869008,-0.296265,-0.880127,0.431335,-1.463415,-0.548781,1.585366
1548455869016,-0.296326,-0.880981,0.427185,-0.975610,-0.304878,1.585366
1548455869023,-0.298523,-0.884094,0.425964,-0.609756,-0.182927,1.280488
1548455869038,-0.302124,-0.884277,0.427124,-0.304878,-0.365854,1.097561
1548455869045,-0.303406,-0.883179,0.429199,-0.121951,-0.304878,1.097561
1548455869053,-0.303345,-0.885193,0.429626,-0.182927,0.060976,1.036585
1548455869075,-0.299622,-0.886292,0.428101,-0.121951,0.304878,1.036585
1548455869076,-0.299500,-0.885742,0.423767,0.000000,0.060976,1.036585
1548455869083,-0.301575,-0.887817,0.424988,-0.182927,-0.182927,0.975610
1548455869098,-0.299011,-0.886841,0.424377,-0.365854,-0.243902,0.914634
1548455869105,-0.296448,-0.883850,0.426758,-0.731707,-0.182927,0.914634
1548455869113,-0.301697,-0.884094,0.430786,-0.914634,-0.487805,0.853659
1548455869128,-0.303223,-0.883667,0.432617,-0.609756,-1.097561,0.609756
1548455869135,-0.297913,-0.882751,0.429504,-0.304878,-1.036585,0.304878
1548455869143,-0.298279,-0.885498,0.430115,0.121951,-0.975610,0.182927
1548455869158,-0.299500,-0.889038,0.429016,0.426829,-1.158537,-0.121951
1548455869173,-0.301147,-0.890747,0.427490,0.365854,-1.585366,-0.609756
1548455869173,-0.304871,-0.890869,0.425476,0.243902,-1.585366,-0.548781
1548455869188,-0.310791,-0.890198,0.429749,0.121951,-1.341463,0.121951
1548455869195,-0.311707,-0.889099,0.427429,0.060976,-1.036585,0.365854
1548455869203,-0.307007,-0.890381,0.425781,0.121951,-0.426829,0.243902
1548455869218,-0.298218,-0.892395,0.423889,0.060976,0.000000,0.182927
1548455869225,-0.291626,-0.891846,0.422485,-0.182927,0.060976,0.000000
1548455869233,-0.293945,-0.889038,0.423401,-0.487805,-0.426829,-0.182927
1548455869248,-0.298523,-0.887207,0.428040,-0.609756,-1.036585,0.121951
1548455869256,-0.302429,-0.885132,0.431152,-0.670732,-1.463415,0.548781
1548455869263,-0.300110,-0.884033,0.429077,-0.609756,-1.402439,0.609756
1548455869278,-0.302490,-0.884399,0.424805,-0.487805,-1.219512,0.000000
1548455869285,-0.300903,-0.886414,0.427002,-0.365854,-0.975610,-0.060976
1548455869293,-0.299744,-0.884399,0.429016,-0.060976,-0.853659,0.304878
1548455869308,-0.302307,-0.886475,0.422729,0.182927,-0.731707,0.426829
1548455869315,-0.303040,-0.888916,0.422485,0.243902,-0.731707,0.365854
1548455869323,-0.300537,-0.892029,0.420715,0.304878,-0.792683,0.426829
1548455869338,-0.300049,-0.890015,0.423889,0.243902,-0.609756,0.426829
1548455869345,-0.298950,-0.887878,0.423157,0.060976,-0.609756,0.487805
1548455869353,-0.301636,-0.887695,0.423828,-0.243902,-0.975610,0.548781
1548455869368,-0.302612,-0.885010,0.422791,-0.243902,-0.975610,0.365854
1548455869375,-0.299072,-0.883179,0.426331,-0.121951,-0.975610,0.182927
1548455869383,-0.296692,-0.884338,0.427673,0.182927,-0.975610,0.121951
1548455869398,-0.296448,-0.887268,0.427612,0.426829,-1.036585,0.182927
1548455869406,-0.300354,-0.885254,0.430115,0.609756,-1.341463,0.243902
1548455869413,-0.303101,-0.884460,0.427185,0.670732,-1.646341,0.182927
1548455869428,-0.300171,-0.886047,0.426514,0.487805,-1.463415,0.182927
1548455869436,-0.299255,-0.885925,0.426208,0.365854,-1.036585,0.243902
1548455869443,-0.299255,-0.886353,0.423950,0.487805,-0.853659,0.243902
1548455869458,-0.301514,-0.886719,0.424377,0.853659,-0.914634,0.121951
1548455869466,-0.303040,-0.886658,0.424011,1.036585,-0.975610,-0.060976
1548455869473,-0.298950,-0.885742,0.424500,1.341463,-0.914634,-0.182927
1548455869488,-0.293152,-0.886108,0.428589,1.463415,-0.914634,-0.365854
1548455869495,-0.293701,-0.887817,0.429749,1.402439,-0.853659,-0.426829
1548455869503,-0.299316,-0.887756,0.429321,1.341463,-1.097561,-0.182927
1548455869518,-0.305115,-0.882446,0.429871,1.280488,-1.463415,0.060976
1548455869525,-0.309998,-0.880676,0.427551,1.280488,-1.707317,-0.121951
1548455869533,-0.304443,-0.882629,0.425476,1.219512,-1.341463,-0.426829
1548455869548,-0.297668,-0.881897,0.422852,1.463415,-0.731707,-0.670732
1548455869555,-0.295410,-0.881714,0.423401,1.829268,-0.792683,-1.036585
1548455869563,-0.290955,-0.885620,0.425110,2.500000,-1.219512,-1.463415
1548455869578,-0.290405,-0.881592,0.428589,2.804878,-1.524390,-1.707317
1548455869585,-0.293030,-0.881348,0.430603,2.804878,-2.073171,-1.524390
1548455869593,-0.296448,-0.884583,0.433044,3.048780,-2.256098,-1.341463
1548455869608,-0.300232,-0.886475,0.437256,3.414634,-2.134146,-1.097561
1548455869615,-0.302612,-0.891235,0.434326,3.658537,-1.890244,-1.158537
1548455869623,-0.301208,-0.894470,0.430664,3.353659,-1.463415,-1.158537
1548455869638,-0.299194,-0.893494,0.429321,3.048780,-1.097561,-1.036585
1548455869645,-0.300232,-0.893433,0.431702,2.439024,-0.914634,-0.914634
1548455869653,-0.302856,-0.892151,0.431763,1.951220,-0.975610,-0.670732
1548455869668,-0.299744,-0.888123,0.431824,1.585366,-0.975610,-0.670732
1548455869675,-0.293091,-0.883850,0.430237,1.463415,-0.792683,-0.731707
1548455869683,-0.290405,-0.886963,0.431458,1.402439,-0.670732,-0.792683
1548455869698,-0.290588,-0.889465,0.436584,1.646341,-0.792683,-0.975610
1548455869705,-0.289673,-0.889526,0.433228,1.890244,-1.219512,-1.158537
1548455869713,-0.291199,-0.888184,0.433350,2.012195,-1.402439,-1.219512
1548455869728,-0.293762,-0.884277,0.435669,1.768293,-1.524390,-0.975610
1548455869736,-0.300720,-0.881104,0.437744,1.524390,-1.585366,-0.426829
1548455869743,-0.302246,-0.879395,0.437866,1.646341,-1.585366,-0.182927
1548455869758,-0.300842,-0.881042,0.437500,2.073171,-1.402439,-0.304878
1548455869765,-0.298645,-0.883728,0.432922,2.378049,-0.670732,-0.426829
1548455869773,-0.293152,-0.885071,0.432129,2.865854,-0.121951,-0.609756
1548455869788,-0.286011,-0.886841,0.432678,2.926829,0.060976,-0.792683
1548455869795,-0.284668,-0.883850,0.433105,2.743902,-0.182927,-0.853659
1548455869803,-0.290100,-0.883057,0.433655,2.560976,-0.731707,-0.853659
1548455869818,-0.293152,-0.881531,0.435059,2.378049,-1.463415,-0.853659
1548455869825,-0.295898,-0.879028,0.437439,2.317073,-1.951220,-0.914634
1548455869833,-0.296021,-0.877808,0.439697,2.378049,-2.134146,-1.158537
1548455869848,-0.292969,-0.877502,0.442505,2.560976,-2.256098,-1.646341
1548455869855,-0.289429,-0.877686,0.438843,2.865854,-2.256098,-2.195122
1548455869863,-0.289001,-0.879883,0.442322,3.353659,-2.256098,-2.439024
1548455869878,-0.289978,-0.879272,0.445435,3.902439,-2.500000,-2.621951
1548455869885,-0.289429,-0.879150,0.445435,4.146341,-2.743902,-2.560976
1548455869893,-0.291199,-0.881287,0.442749,4.512195,-2.560976,-2.682927
1548455869908,-0.291626,-0.880554,0.444336,4.512195,-2.439024,-2.682927
1548455869915,-0.291626,-0.882935,0.445435,4.451220,-2.439024,-2.804878
1548455869923,-0.286194,-0.885132,0.441101,4.634146,-2.256098,-2.987805
1548455869938,-0.282471,-0.887207,0.440796,4.939024,-2.073171,-3.231707
1548455869945,-0.283569,-0.886414,0.442017,4.878049,-2.621951,-3.658537
1548455869953,-0.285828,-0.887085,0.443237,4.817073,-3.109756,-4.024390
1548455869968,-0.287109,-0.882935,0.447510,4.756098,-3.353659,-4.024390
1548455869975,-0.284851,-0.879333,0.450439,4.634146,-3.597561,-3.780488
1548455869983,-0.286987,-0.881470,0.450378,4.451220,-3.231707,-3.536585
1548455869998,-0.289795,-0.880493,0.452393,4.634146,-3.109756,-3.048780
1548455870007,-0.289001,-0.879761,0.452759,4.817073,-3.109756,-2.987805
1548455870015,-0.288940,-0.879944,0.449158,4.939024,-2.865854,-3.170732
1548455870028,-0.280579,-0.878845,0.448242,5.000000,-2.256098,-3.536585
1548455870036,-0.269836,-0.877075,0.446411,5.182927,-1.768293,-3.902439
1548455870043,-0.261536,-0.875183,0.448547,5.426829,-2.073171,-4.207317
1548455870058,-0.260864,-0.877319,0.450012,5.548780,-2.865854,-4.512195
1548455870066,-0.263977,-0.879395,0.450439,5.548780,-3.902439,-4.573171
1548455870073,-0.270508,-0.878418,0.452759,5.609756,-4.695122,-4.573171
1548455870088,-0.280884,-0.880493,0.456726,5.670732,-5.365854,-4.451220
1548455870103,-0.287231,-0.877075,0.459839,5.792683,-5.609756,-4.329268
1548455870103,-0.284790,-0.876221,0.460999,5.914634,-5.121951,-4.329268
1548455870118,-0.277405,-0.876831,0.457458,6.036585,-4.207317,-4.695122
1548455870125,-0.265686,-0.873413,0.456055,6.463415,-3.414634,-5.304878
1548455870133,-0.257080,-0.874390,0.458252,6.707317,-3.170732,-5.853659
1548455870148,-0.252075,-0.876953,0.461060,6.707317,-3.536585,-6.280488
1548455870163,-0.258789,-0.874329,0.466309,6.768293,-4.634146,-6.646342
1548455870163,-0.263794,-0.872314,0.467224,6.646342,-5.975610,-6.951220
1548455870178,-0.265930,-0.872437,0.467529,6.219512,-6.463415,-7.317073
1548455870185,-0.261658,-0.870422,0.466125,6.280488,-6.341464,-7.804878
1548455870193,-0.255737,-0.873413,0.465149,6.158537,-5.853659,-8.536586
1548455870208,-0.250366,-0.875854,0.468933,6.219512,-5.792683,-9.085366
1548455870215,-0.253723,-0.873657,0.469727,6.280488,-6.463415,-9.329268
1548455870223,-0.257690,-0.868652,0.473022,6.585366,-7.500000,-9.756098
1548455870238,-0.259705,-0.867371,0.477661,6.646342,-7.682927,-10.243902
1548455870245,-0.252319,-0.870056,0.477112,6.951220,-7.256098,-10.426829
1548455870253,-0.247253,-0.872803,0.474915,7.378049,-6.463415,-10.609756
1548455870268,-0.238892,-0.870422,0.475647,7.621952,-5.853659,-10.853659
1548455870276,-0.233643,-0.866089,0.479065,7.621952,-5.670732,-11.158537
1548455870283,-0.231384,-0.871704,0.479431,7.865854,-6.097561,-11.219512
1548455870299,-0.232117,-0.875916,0.479614,7.926829,-6.951220,-11.158537
1548455870305,-0.234131,-0.875122,0.484131,8.353659,-7.804878,-11.402439
1548455870313,-0.235352,-0.874207,0.486206,8.658537,-8.048780,-11.707317
1548455870329,-0.230591,-0.875977,0.486145,8.719512,-8.109756,-11.890244
1548455870335,-0.230225,-0.878357,0.484558,8.597561,-7.865854,-11.829268
1548455870343,-0.229187,-0.876831,0.486450,8.414635,-7.682927,-11.585366
1548455870358,-0.226562,-0.874939,0.492493,8.475610,-7.500000,-11.585366
1548455870365,-0.218994,-0.872559,0.495728,8.719512,-7.195122,-11.707317
1548455870373,-0.211304,-0.873962,0.496338,8.719512,-6.890244,-12.073171
1548455870388,-0.206848,-0.880615,0.498596,8.414635,-6.646342,-12.195122
1548455870396,-0.205811,-0.880554,0.500977,8.170732,-7.073171,-11.890244
1548455870403,-0.208679,-0.877686,0.501648,7.560976,-7.804878,-11.524390
1548455870418,-0.211792,-0.874939,0.501953,6.890244,-8.170732,-11.280488
1548455870426,-0.210388,-0.874146,0.499329,6.524390,-8.353659,-11.036586
1548455870433,-0.207642,-0.873413,0.499695,6.341464,-8.109756,-10.853659
1548455870448,-0.204163,-0.871277,0.505554,6.280488,-7.378049,-10.670732
1548455870455,-0.202942,-0.874023,0.507568,6.524390,-7.073171,-10.365854
1548455870463,-0.200806,-0.879272,0.507690,7.012195,-6.951220,-10.060976
1548455870478,-0.201050,-0.878540,0.507996,7.195122,-6.890244,-10.243902
1548455870485,-0.194885,-0.874329,0.505432,7.195122,-6.707317,-10.487805
1548455870493,-0.185486,-0.870483,0.508362,6.707317,-6.463415,-10.731708
1548455870508,-0.178711,-0.869263,0.507935,6.158537,-6.646342,-11.036586
1548455870516,-0.176636,-0.864502,0.509644,5.731708,-7.195122,-11.280488
1548455870523,-0.181091,-0.860413,0.509216,5.731708,-8.048780,-11.585366
1548455870538,-0.186584,-0.862549,0.508179,5.975610,-9.085366,-11.646341
1548455870546,-0.185669,-0.864319,0.510193,6.280488,-9.207317,-11.768293
1548455870553,-0.180359,-0.865601,0.510864,6.341464,-8.658537,-12.012196
1548455870568,-0.166992,-0.860352,0.513306,6.890244,-8.109756,-12.500000
1548455870575,-0.151184,-0.860657,0.513855,7.134147,-7.926829,-13.170732
1548455870583,-0.143311,-0.868408,0.514709,6.829268,-8.292683,-13.475610
1548455870598,-0.149780,-0.875793,0.517517,6.463415,-9.329268,-12.987805
1548455870605,-0.164124,-0.877930,0.524414,5.853659,-10.975610,-12.317074
1548455870613,-0.175659,-0.872681,0.531494,4.878049,-12.195122,-11.951220
1548455870628,-0.178589,-0.864990,0.531311,4.207317,-12.012196,-12.256098
1548455870635,-0.167786,-0.866333,0.526428,4.268293,-10.792684,-12.926829
1548455870643,-0.151855,-0.863464,0.527893,4.024390,-9.268292,-13.780488
1548455870658,-0.141418,-0.861450,0.528381,4.573171,-8.597561,-14.573171
1548455870666,-0.132202,-0.864746,0.527588,5.548780,-9.085366,-14.878049
1548455870674,-0.127686,-0.867981,0.524658,6.097561,-9.390244,-14.695123
1548455870688,-0.126953,-0.869446,0.526733,5.914634,-10.000000,-14.268293
1548455870696,-0.131592,-0.869873,0.526611,5.731708,-10.853659,-13.902439
1548455870711,-0.136719,-0.864075,0.528992,5.487805,-11.524390,-13.963415
1548455870718,-0.136719,-0.862183,0.533264,5.975610,-11.829268,-14.085366
1548455870726,-0.131470,-0.867920,0.533020,6.219512,-11.646341,-14.207317
1548455870734,-0.120300,-0.870422,0.536682,6.524390,-10.975610,-14.146341
1548455870748,-0.116028,-0.871765,0.542603,6.524390,-10.426829,-13.780488
1548455870755,-0.120178,-0.874084,0.546326,6.219512,-10.365854,-12.865854
1548455870763,-0.125183,-0.873352,0.545959,5.853659,-10.487805,-12.012196
1548455870778,-0.127563,-0.869751,0.548218,5.487805,-10.182927,-11.768293
1548455870785,-0.126160,-0.869995,0.545410,5.487805,-9.268292,-11.829268
1548455870793,-0.113464,-0.869629,0.543274,5.548780,-7.804878,-12.012196
1548455870808,-0.099731,-0.874878,0.539673,5.792683,-6.280488,-11.768293
1548455870815,-0.091553,-0.874451,0.538696,5.975610,-5.609756,-11.402439
1548455870823,-0.090210,-0.870728,0.541931,5.975610,-6.097561,-10.853659
1548455870838,-0.093872,-0.866455,0.547546,5.609756,-6.890244,-10.365854
1548455870846,-0.099854,-0.862366,0.548767,5.000000,-7.926829,-10.121951
1548455870853,-0.101624,-0.863647,0.545715,4.634146,-8.170732,-10.060976
1548455870868,-0.096619,-0.860107,0.546082,4.695122,-7.743903,-10.243902
1548455870875,-0.088989,-0.858276,0.545654,4.634146,-6.707317,-10.548780
1548455870883,-0.082214,-0.860718,0.545410,4.573171,-6.036585,-10.914635
1548455870898,-0.083496,-0.860779,0.549377,4.756098,-6.036585,-11.036586
1548455870913,-0.086365,-0.860535,0.552551,5.121951,-6.524390,-10.792684
1548455870913,-0.087769,-0.862000,0.558044,5.426829,-6.646342,-10.853659
1548455870928,-0.083008,-0.860962,0.558044,5.487805,-6.158537,-10.731708
1548455870935,-0.075684,-0.859253,0.556030,5.243903,-5.548780,-10.914635
1548455870943,-0.070557,-0.857483,0.556519,5.304878,-4.817073,-10.975610
1548455870958,-0.068909,-0.857666,0.558594,5.548780,-4.817073,-10.548780
1548455870965,-0.069153,-0.859924,0.557800,5.792683,-4.939024,-10.121951
1548455870973,-0.071655,-0.864014,0.561646,5.853659,-4.817073,-9.939025
1548455870988,-0.070435,-0.863464,0.567139,6.097561,-4.878049,-9.573171
1548455870996,-0.070984,-0.862061,0.569153,6.158537,-4.634146,-9.634147
1548455871003,-0.070496,-0.867676,0.566406,5.975610,-4.207317,-9.390244
1548455871018,-0.070618,-0.873230,0.569031,5.670732,-3.414634,-8.963415
1548455871026,-0.068420,-0.873718,0.568909,5.304878,-2.926829,-8.353659
1548455871033,-0.065186,-0.871765,0.565918,4.451220,-2.073171,-7.987805
1548455871048,-0.060913,-0.865967,0.563782,3.353659,-1.219512,-7.804878
1548455871056,-0.057068,-0.861572,0.567993,2.621951,-0.670732,-7.256098
1548455871063,-0.057861,-0.866699,0.565063,2.195122,-0.304878,-6.829268
1548455871078,-0.057434,-0.871155,0.565063,2.012195,-0.060976,-6.280488
1548455871086,-0.054260,-0.869019,0.567871,1.768293,0.060976,-5.914634
1548455871093,-0.051392,-0.864929,0.566528,1.280488,0.243902,-5.670732
1548455871108,-0.049622,-0.864502,0.563049,0.609756,0.426829,-5.304878
1548455871116,-0.051270,-0.864014,0.558655,-0.243902,0.548781,-4.817073
1548455871123,-0.057129,-0.855835,0.562622,-0.670732,0.609756,-4.207317
1548455871138,-0.059204,-0.855530,0.560608,-0.670732,0.548781,-4.024390
1548455871146,-0.054199,-0.854309,0.556885,-0.670732,0.548781,-4.390244
1548455871153,-0.045776,-0.855957,0.556641,-0.609756,0.914634,-4.756098
1548455871168,-0.037781,-0.859985,0.555664,-0.304878,1.219512,-4.939024
1548455871176,-0.037537,-0.859619,0.555969,0.060976,0.914634,-4.817073
1548455871183,-0.041016,-0.859192,0.556580,0.182927,0.365854,-4.146341
1548455871198,-0.048828,-0.861694,0.556946,0.121951,-0.548781,-3.292683
1548455871206,-0.055359,-0.862061,0.556885,0.182927,-1.280488,-2.865854
1548455871220,-0.052734,-0.861023,0.557190,0.548781,-1.158537,-2.865854
1548455871228,-0.046570,-0.857971,0.556213,1.036585,-0.792683,-3.109756
1548455871236,-0.042664,-0.859375,0.557556,1.402439,-0.487805,-3.048780
1548455871243,-0.039856,-0.859924,0.558472,1.768293,-0.548781,-2.743902
1548455871258,-0.040344,-0.859619,0.559814,1.951220,-1.036585,-2.439024
1548455871266,-0.043823,-0.861816,0.559631,2.195122,-1.646341,-1.890244
1548455871273,-0.045349,-0.862793,0.561279,2.500000,-1.951220,-1.585366
1548455871288,-0.045471,-0.860718,0.562317,2.621951,-2.012195,-1.585366
1548455871296,-0.045288,-0.859619,0.559814,2.439024,-1.585366,-1.585366
1548455871303,-0.043701,-0.856812,0.558289,2.256098,-1.036585,-1.463415
1548455871318,-0.040466,-0.856934,0.558960,2.256098,-0.731707,-1.341463
1548455871326,-0.041931,-0.860046,0.561829,2.439024,-0.792683,-1.036585
1548455871333,-0.044250,-0.861084,0.567017,2.682927,-1.219512,-0.487805
1548455871348,-0.045898,-0.858948,0.566895,2.621951,-1.463415,-0.182927
1548455871356,-0.044434,-0.856384,0.565125,2.256098,-1.280488,-0.121951
1548455871363,-0.041748,-0.855774,0.569458,1.646341,-0.975610,-0.243902
1548455871378,-0.041382,-0.855530,0.568359,1.280488,-0.975610,-0.304878
1548455871386,-0.040039,-0.857971,0.568848,1.036585,-1.036585,-0.121951
1548455871393,-0.041626,-0.858765,0.568665,0.914634,-0.914634,0.121951
1548455871408,-0.046082,-0.861511,0.566406,0.792683,-0.853659,0.365854
1548455871416,-0.043701,-0.862366,0.566833,0.426829,-0.914634,0.487805
1548455871423,-0.043823,-0.859985,0.567688,0.121951,-0.731707,0.365854
1548455871438,-0.042358,-0.855774,0.566101,0.060976,-0.548781,0.365854
1548455871446,-0.044067,-0.856995,0.567444,-0.121951,-0.487805,0.426829
1548455871453,-0.044617,-0.855591,0.566467,-0.670732,-0.426829,0.426829
1548455871468,-0.045044,-0.857788,0.564270,-0.853659,-0.304878,0.304878
1548455871476,-0.042847,-0.857056,0.564392,-0.731707,-0.182927,0.182927
1548455871483,-0.041077,-0.856018,0.561279,-0.975610,-0.060976,0.182927
1548455871506,-0.041504,-0.853394,0.562256,-1.158537,0.121951,0.243902
1548455871506,-0.045105,-0.847229,0.561523,-0.914634,-0.182927,0.304878
1548455871513,-0.046997,-0.847473,0.562256,-0.609756,-0.548781,0.426829
1548455871528,-0.047424,-0.853027,0.563110,-0.304878,-0.548781,0.426829
1548455871536,-0.045105,-0.853882,0.566772,0.121951,-0.548781,0.243902
1548455871543,-0.044006,-0.854614,0.566711,0.304878,-0.304878,0.000000
1548455871558,-0.040710,-0.858582,0.563110,0.121951,-0.243902,-0.182927
1548455871566,-0.040710,-0.860474,0.562317,-0.182927,-0.426829,0.000000
1548455871573,-0.041138,-0.856628,0.562744,-0.243902,-0.609756,0.060976
1548455871588,-0.043762,-0.857117,0.562012,-0.243902,-0.670732,0.426829
1548455871595,-0.045471,-0.859009,0.562256,-0.182927,-0.792683,0.609756
1548455871603,-0.044434,-0.856750,0.561279,-0.243902,-0.670732,0.609756
1548455871618,-0.044678,-0.856384,0.563477,-0.243902,-0.426829,0.365854
1548455871626,-0.044617,-0.855774,0.562683,-0.182927,-0.365854,0.304878
1548455871633,-0.045044,-0.857178,0.562317,-0.304878,-0.304878,0.487805
1548455871648,-0.043091,-0.853760,0.561829,-0.182927,-0.365854,0.426829
1548455871656,-0.040527,-0.854248,0.561829,0.000000,-0.426829,0.304878
1548455871663,-0.044006,-0.859375,0.562195,0.000000,-0.426829,0.365854
1548455871678,-0.043945,-0.860596,0.563293,-0.121951,-0.487805,0.487805
1548455871685,-0.042114,-0.857849,0.563049,-0.304878,-0.304878,0.548781
1548455871693,-0.043030,-0.856445,0.563354,-0.609756,-0.243902,0.670732
1548455871708,-0.046021,-0.856506,0.561096,-0.670732,-0.365854,0.731707
1548455871715,-0.045471,-0.852783,0.558655,-0.609756,-0.487805,0.548781
1548455871723,-0.045410,-0.852844,0.561829,-0.365854,-0.426829,0.426829
1548455871738,-0.046326,-0.859558,0.564941,-0.121951,-0.487805,0.426829
1548455871745,-0.046997,-0.856384,0.562866,0.182927,-0.548781,0.487805
1548455871753,-0.046265,-0.856384,0.564575,0.121951,-0.548781,0.426829
1548455871769,-0.045166,-0.858887,0.566345,0.060976,-0.548781,0.426829
1548455871775,-0.044800,-0.859863,0.563843,-0.060976,-0.609756,0.304878
1548455871783,-0.044861,-0.858398,0.564026,-0.426829,-0.426829,0.365854
1548455871798,-0.044434,-0.858337,0.562195,-0.609756,-0.182927,0.426829
1548455871806,-0.047485,-0.857239,0.562927,-0.792683,-0.243902,0.609756
1548455871813,-0.047241,-0.859863,0.561951,-0.914634,-0.304878,0.548781
1548455871829,-0.046875,-0.859680,0.561462,-0.853659,-0.182927,0.487805
1548455871835,-0.044861,-0.858948,0.560181,-0.914634,-0.060976,0.426829
1548455871843,-0.042969,-0.857361,0.558777,-0.853659,-0.182927,0.426829
1548455871858,-0.045532,-0.853149,0.559814,-0.670732,-0.426829,0.487805
1548455871866,-0.043579,-0.850586,0.560608,-0.426829,-0.548781,0.609756
1548455871873,-0.042480,-0.853882,0.560486,-0.365854,-0.365854,0.609756
1548455871888,-0.045044,-0.856079,0.559570,-0.426829,-0.365854,0.548781
1548455871895,-0.046387,-0.857971,0.563599,-0.060976,-0.487805,0.548781
1548455871911,-0.046570,-0.861023,0.562805,0.060976,-0.365854,0.548781
1548455871918,-0.044128,-0.859802,0.560730,0.000000,-0.243902,0.487805
1548455871926,-0.042603,-0.859497,0.557434,-0.426829,-0.121951,0.426829
1548455871933,-0.042480,-0.859070,0.554749,-0.548781,-0.426829,0.182927
1548455871948,-0.046631,-0.853821,0.555420,-0.487805,-0.792683,0.182927
1548455871956,-0.047485,-0.853333,0.560303,-0.365854,-1.036585,0.365854
1548455871963,-0.050354,-0.853455,0.561157,0.000000,-1.097561,0.426829
1548455871979,-0.047546,-0.858093,0.559143,0.670732,-0.975610,0.182927
1548455871986,-0.042114,-0.861145,0.560608,0.853659,-0.853659,-0.060976
1548455871993,-0.042664,-0.862244,0.565491,0.609756,-0.853659,-0.060976
1548455872008,-0.046753,-0.858154,0.563477,0.243902,-0.975610,0.182927
1548455872016,-0.049011,-0.855774,0.561340,-0.121951,-1.341463,0.426829
1548455872023,-0.048706,-0.858582,0.562744,-0.060976,-1.341463,0.548781
1548455872038,-0.047607,-0.860901,0.559143,0.304878,-1.097561,0.243902
1548455872046,-0.046448,-0.863159,0.559753,0.365854,-0.792683,0.060976
1548455872053,-0.044739,-0.864441,0.560974,0.000000,-0.487805,-0.121951
1548455872068,-0.045227,-0.859497,0.557556,-0.609756,-0.365854,-0.060976
1548455872076,-0.046021,-0.856018,0.558716,-0.853659,-0.121951,0.121951
1548455872083,-0.046082,-0.854065,0.556885,-0.731707,-0.304878,0.304878
1548455872098,-0.045410,-0.855286,0.557861,-0.487805,-0.487805,0.243902
1548455872106,-0.043213,-0.855835,0.558655,-0.243902,-0.670732,0.182927
1548455872113,-0.041504,-0.856750,0.558044,-0.060976,-0.731707,0.121951
1548455872128,-0.041443,-0.859131,0.559448,0.000000,-0.792683,0.121951
1548455872135,-0.043213,-0.859253,0.559814,-0.060976,-1.036585,0.304878
1548455872143,-0.046631,-0.861145,0.560547,-0.060976,-1.219512,0.609756
1548455872158,-0.044739,-0.864197,0.561890,-0.121951,-1.097561,0.792683
1548455872166,-0.046082,-0.862488,0.560913,-0.365854,-0.975610,0.792683
1548455872173,-0.047485,-0.862854,0.559326,-0.487805,-1.158537,0.731707
1548455872188,-0.048889,-0.863770,0.558472,-0.426829,-1.219512,0.670732
1548455872196,-0.049744,-0.863892,0.559814,-0.487805,-1.036585,0.792683
1548455872203,-0.050415,-0.862366,0.557556,-0.670732,-0.609756,0.914634
