timestamp, accel_x, accel_y, accel_z, gyro_x, gyro_y, gyro_z
1548456687188,-1.023193,0.102112,0.042603,0.914634,-0.792683,0.487805
1548456687203,-1.030701,0.103516,0.043579,0.670732,-0.792683,0.487805
1548456687211,-1.029907,0.105957,0.043823,0.487805,-0.853659,0.487805
1548456687225,-1.029724,0.106812,0.041382,0.304878,-0.914634,0.548781
1548456687226,-1.031677,0.105957,0.037537,0.182927,-0.914634,0.487805
1548456687233,-1.035950,0.104492,0.038513,0.243902,-0.975610,0.487805
1548456687249,-1.034790,0.104675,0.038513,0.304878,-0.975610,0.487805
1548456687256,-1.033630,0.102539,0.037292,0.243902,-1.036585,0.487805
1548456687263,-1.034180,0.102966,0.037903,0.060976,-1.036585,0.426829
1548456687278,-1.032471,0.105591,0.034668,0.000000,-1.097561,0.426829
1548456687286,-1.032410,0.105713,0.034485,-0.060976,-1.097561,0.365854
1548456687293,-1.031372,0.106567,0.034729,-0.121951,-1.097561,0.365854
1548456687315,-1.034241,0.109131,0.033813,0.000000,-1.036585,0.487805
1548456687316,-1.034302,0.108948,0.033264,0.000000,-0.975610,0.426829
1548456687323,-1.034241,0.108582,0.032410,-0.060976,-0.975610,0.487805
1548456687339,-1.031799,0.107483,0.031616,0.243902,-0.853659,0.487805
1548456687346,-1.027649,0.109619,0.034363,0.487805,-0.853659,0.548781
1548456687368,-1.026306,0.108948,0.032288,0.487805,-0.914634,0.487805
1548456687368,-1.027100,0.107727,0.032349,0.609756,-0.853659,0.487805
1548456687376,-1.026917,0.107544,0.033081,0.731707,-0.731707,0.548781
1548456687383,-1.025757,0.106384,0.034363,0.731707,-0.609756,0.548781
1548456687413,-1.028076,0.108093,0.031982,0.426829,-0.548781,0.609756
1548456687413,-1.027771,0.106445,0.033264,0.304878,-0.609756,0.548781
1548456687414,-1.028931,0.105347,0.036743,0.304878,-0.548781,0.609756
1548456687435,-1.033508,0.106079,0.036804,0.243902,-0.487805,0.548781
1548456687436,-1.034729,0.106018,0.034607,0.304878,-0.426829,0.548781
1548456687458,-1.033691,0.104614,0.033203,0.304878,-0.426829,0.670732
1548456687458,-1.035217,0.106140,0.035156,0.365854,-0.365854,0.548781
1548456687480,-1.034119,0.106567,0.038208,0.426829,-0.487805,0.548781
1548456687481,-1.034363,0.102051,0.036865,0.548781,-0.426829,0.426829
1548456687488,-1.034241,0.106689,0.038086,0.426829,-0.426829,0.365854
1548456687496,-1.032959,0.105774,0.037598,0.426829,-0.548781,0.426829
1548456687503,-1.033325,0.105652,0.037354,0.426829,-0.548781,0.304878
1548456687526,-1.032776,0.104431,0.036987,0.182927,-0.670732,0.304878
1548456687533,-1.031616,0.103638,0.037598,0.182927,-0.731707,0.304878
1548456687534,-1.029053,0.104797,0.038025,0.121951,-0.792683,0.182927
1548456687548,-1.026611,0.105896,0.037781,0.060976,-0.914634,0.060976
1548456687556,-1.026794,0.106018,0.038391,-0.060976,-0.914634,0.121951
1548456687571,-1.028564,0.106750,0.038818,0.000000,-0.975610,0.121951
1548456687578,-1.031860,0.110168,0.038574,0.000000,-0.792683,0.121951
1548456687585,-1.031250,0.108154,0.037231,0.182927,-0.548781,0.121951
1548456687593,-1.029297,0.107178,0.035095,0.243902,-0.487805,0.121951
1548456687623,-1.029358,0.107544,0.035034,0.365854,-0.426829,0.121951
1548456687623,-1.030762,0.110229,0.035645,0.487805,-0.365854,0.121951
1548456687624,-1.030945,0.108337,0.035706,0.609756,-0.243902,0.243902
1548456687646,-1.031799,0.109375,0.033203,0.670732,-0.121951,0.243902
1548456687647,-1.029236,0.111023,0.036011,0.548781,-0.060976,0.243902
1548456687653,-1.030457,0.110474,0.035828,0.609756,0.060976,0.182927
1548456687668,-1.030579,0.111755,0.035156,0.670732,0.060976,0.182927
1548456687690,-1.029358,0.112488,0.033325,0.792683,0.182927,0.243902
1548456687691,-1.034058,0.111877,0.035217,1.036585,0.365854,0.304878
1548456687713,-1.034058,0.114075,0.033752,1.280488,0.548781,0.304878
1548456687714,-1.034668,0.115906,0.034546,1.463415,0.792683,0.304878
1548456687714,-1.034363,0.116699,0.031189,1.768293,0.975610,0.365854
1548456687735,-1.036865,0.117554,0.026855,2.073171,1.036585,0.487805
1548456687736,-1.035583,0.115601,0.023376,2.317073,1.402439,0.670732
1548456687743,-1.032837,0.114563,0.023560,2.439024,1.707317,0.914634
1548456687758,-1.034851,0.109375,0.025085,2.560976,1.707317,1.097561
1548456687765,-1.030396,0.108032,0.027222,2.500000,1.707317,1.219512
1548456687781,-1.028198,0.105103,0.031372,2.195122,1.646341,1.402439
1548456687788,-1.028931,0.102356,0.032532,1.768293,1.524390,1.707317
1548456687803,-1.028870,0.102112,0.031677,1.463415,1.280488,1.890244
1548456687804,-1.026489,0.099182,0.033508,0.914634,1.036585,1.951220
1548456687818,-1.029541,0.099304,0.037048,0.487805,0.609756,2.012195
1548456687826,-1.031494,0.100159,0.038696,0.243902,0.365854,1.890244
1548456687833,-1.033447,0.097473,0.040222,0.060976,0.060976,1.707317
1548456687848,-1.035828,0.097717,0.043457,-0.182927,-0.487805,1.402439
1548456687856,-1.038208,0.099365,0.039490,-0.365854,-0.792683,1.158537
1548456687878,-1.039978,0.099548,0.034363,-0.609756,-0.853659,0.853659
1548456687879,-1.038147,0.098877,0.030090,-0.914634,-0.975610,0.548781
1548456687885,-1.036316,0.102722,0.030273,-1.097561,-0.914634,0.304878
1548456687893,-1.035034,0.106445,0.029053,-1.158537,-0.914634,0.060976
1548456687923,-1.034912,0.108643,0.028381,-1.097561,-0.853659,-0.121951
1548456687924,-1.031311,0.107788,0.022705,-1.036585,-0.731707,-0.243902
1548456687924,-1.025635,0.107727,0.020386,-1.219512,-0.609756,-0.243902
1548456687938,-1.021118,0.108643,0.024963,-1.463415,-0.487805,-0.243902
1548456687946,-1.020081,0.112793,0.026062,-1.463415,-0.609756,-0.243902
1548456687968,-1.022217,0.114685,0.025269,-1.341463,-0.731707,-0.182927
1548456687969,-1.024109,0.115051,0.028870,-1.219512,-0.548781,-0.304878
1548456687990,-1.026428,0.114624,0.033997,-0.914634,-0.426829,-0.243902
1548456687991,-1.031860,0.113953,0.037231,-0.365854,-0.548781,-0.182927
1548456687998,-1.036743,0.111206,0.041321,0.121951,-0.792683,-0.182927
1548456688006,-1.035217,0.110229,0.041260,0.548781,-0.914634,-0.304878
1548456688013,-1.032959,0.108337,0.041870,0.731707,-0.975610,-0.304878
1548456688028,-1.033752,0.107483,0.045532,0.975610,-1.097561,-0.304878
1548456688036,-1.032471,0.108032,0.045837,0.975610,-1.341463,-0.365854
1548456688043,-1.033020,0.107544,0.045959,1.036585,-1.463415,-0.487805
1548456688058,-1.032104,0.106018,0.047729,0.731707,-1.524390,-0.487805
1548456688066,-1.030212,0.106201,0.048523,0.304878,-1.524390,-0.487805
1548456688073,-1.028015,0.107605,0.049561,-0.060976,-1.768293,-0.487805
1548456688088,-1.027405,0.109009,0.045898,-0.243902,-1.951220,-0.487805
1548456688103,-1.026978,0.106934,0.045105,-0.487805,-2.073171,-0.426829
1548456688104,-1.026917,0.110291,0.042725,-0.792683,-2.378049,-0.182927
1548456688118,-1.026733,0.113953,0.037781,-1.036585,-2.560976,-0.060976
1548456688126,-1.028748,0.112976,0.036682,-1.158537,-2.743902,0.060976
1548456688141,-1.030945,0.113281,0.034668,-1.219512,-2.743902,0.243902
1548456688156,-1.031921,0.114563,0.026794,-0.975610,-2.865854,0.304878
1548456688156,-1.034363,0.114014,0.027893,-0.609756,-2.743902,0.365854
1548456688178,-1.034668,0.112183,0.025818,-0.243902,-2.621951,0.426829
1548456688179,-1.037964,0.111206,0.024475,0.182927,-2.621951,0.426829
1548456688193,-1.039246,0.110168,0.025269,0.121951,-2.560976,0.426829
1548456688194,-1.035706,0.106140,0.024536,0.121951,-2.256098,0.487805
1548456688208,-1.032349,0.105225,0.025452,0.121951,-1.951220,0.609756
1548456688216,-1.030334,0.106201,0.026123,0.121951,-1.829268,0.609756
1548456688223,-1.029175,0.104431,0.027649,-0.060976,-1.524390,0.609756
1548456688238,-1.028015,0.102112,0.029602,-0.365854,-1.280488,0.609756
1548456688246,-1.025146,0.101685,0.033447,-0.365854,-1.097561,0.609756
1548456688253,-1.028381,0.101868,0.035095,-0.365854,-1.036585,0.426829
1548456688268,-1.032043,0.101013,0.034729,-0.365854,-0.975610,0.243902
1548456688290,-1.032532,0.101013,0.034180,-0.365854,-0.853659,-0.060976
1548456688291,-1.030762,0.104309,0.037415,-0.426829,-0.731707,-0.060976
1548456688298,-1.032410,0.105835,0.037964,-0.365854,-0.670732,-0.243902
1548456688313,-1.034729,0.105896,0.038391,-0.121951,-0.731707,-0.365854
1548456688313,-1.036438,0.109985,0.043396,0.000000,-0.670732,-0.487805
1548456688335,-1.038391,0.116882,0.046814,0.060976,-0.609756,-0.426829
1548456688336,-1.035889,0.121460,0.043396,0.243902,-0.731707,-0.182927
1548456688343,-1.029602,0.122437,0.046204,0.304878,-0.731707,0.000000
1548456688358,-1.025208,0.125854,0.050964,0.365854,-0.792683,0.182927
1548456688366,-1.023804,0.128662,0.056030,0.487805,-1.036585,0.670732
1548456688381,-1.021118,0.131226,0.055786,0.853659,-1.402439,1.036585
1548456688388,-1.019287,0.134583,0.053894,1.097561,-1.646341,1.280488
1548456688396,-1.015015,0.136230,0.056396,1.036585,-1.646341,1.890244
1548456688403,-1.013977,0.135559,0.060608,0.975610,-1.768293,2.317073
1548456688433,-1.016296,0.136658,0.060486,1.097561,-2.073171,2.743902
1548456688433,-1.022278,0.136719,0.060913,1.219512,-2.378049,3.048780
1548456688434,-1.026855,0.135498,0.061401,0.975610,-2.560976,3.353659
1548456688455,-1.028931,0.136597,0.059204,0.365854,-2.926829,3.902439
1548456688456,-1.032227,0.141602,0.055359,0.000000,-3.292683,4.390244
1548456688463,-1.028992,0.142029,0.053284,-0.609756,-3.597561,4.939024
1548456688479,-1.026550,0.139465,0.056580,-1.463415,-3.719512,5.548780
1548456688500,-1.028259,0.142639,0.057861,-1.829268,-4.268293,6.097561
1548456688501,-1.025879,0.144348,0.057922,-2.073171,-4.756098,6.524390
1548456688523,-1.022888,0.143311,0.055481,-2.317073,-5.000000,7.012195
1548456688523,-1.022034,0.145752,0.057434,-2.317073,-5.182927,7.621952
1548456688524,-1.020142,0.145691,0.057556,-2.560976,-5.609756,8.170732
1548456688545,-1.019043,0.145996,0.055054,-2.987805,-5.853659,8.658537
1548456688546,-1.021545,0.144348,0.057617,-3.231707,-6.036585,9.085366
1548456688553,-1.025024,0.144958,0.056274,-3.414634,-6.219512,9.573171
1548456688568,-1.029358,0.148804,0.054260,-3.780488,-6.341464,10.000000
1548456688576,-1.031860,0.147949,0.055969,-3.963415,-6.524390,10.426829
1548456688583,-1.033142,0.149414,0.056274,-3.963415,-6.585366,10.792684
1548456688598,-1.033386,0.148254,0.058044,-3.719512,-6.829268,11.280488
1548456688613,-1.031982,0.148743,0.060486,-3.597561,-6.829268,11.707317
1548456688613,-1.029358,0.149780,0.061890,-3.658537,-6.829268,11.890244
1548456688635,-1.028931,0.151367,0.063904,-3.414634,-6.890244,12.134147
1548456688636,-1.029358,0.150818,0.065063,-3.231707,-7.012195,12.317074
1548456688643,-1.029358,0.146912,0.067139,-3.231707,-7.073171,12.500000
1548456688658,-1.028564,0.147888,0.067444,-3.475610,-6.951220,12.621951
1548456688666,-1.026123,0.148987,0.066650,-3.597561,-7.012195,12.682927
1548456688673,-1.028687,0.147827,0.065491,-3.597561,-7.134147,12.743903
1548456688688,-1.027649,0.146240,0.066711,-3.597561,-7.073171,12.682927
1548456688695,-1.027466,0.144714,0.067932,-3.658537,-7.134147,12.682927
1548456688711,-1.026611,0.146057,0.067078,-3.658537,-7.134147,12.621951
1548456688733,-1.027161,0.151367,0.066589,-3.658537,-7.317073,12.439025
1548456688733,-1.029846,0.156616,0.068359,-3.719512,-7.317073,12.195122
1548456688735,-1.030090,0.162231,0.067810,-3.719512,-7.134147,12.012196
1548456688756,-1.025574,0.166260,0.067566,-3.536585,-6.829268,12.012196
1548456688757,-1.024658,0.171143,0.067261,-2.804878,-6.951220,12.012196
1548456688778,-1.020081,0.172546,0.072510,-2.073171,-6.890244,11.890244
1548456688779,-1.017639,0.173096,0.071411,-1.280488,-6.768293,11.707317
1548456688786,-1.015137,0.173523,0.072815,-0.609756,-6.890244,11.707317
1548456688801,-1.016052,0.178101,0.074646,-0.182927,-6.951220,11.707317
1548456688808,-1.016541,0.182007,0.071899,-0.060976,-6.768293,12.012196
1548456688816,-1.016113,0.184448,0.074036,-0.182927,-6.585366,12.073171
1548456688823,-1.017090,0.187622,0.078735,-0.304878,-6.463415,12.134147
1548456688845,-1.015747,0.189697,0.079773,-0.426829,-6.524390,12.317074
1548456688846,-1.015076,0.194885,0.082581,-0.304878,-6.646342,12.378049
1548456688853,-1.015808,0.198914,0.087463,-0.365854,-6.707317,12.500000
1548456688868,-1.017944,0.201843,0.093079,-0.487805,-7.012195,12.682927
1548456688876,-1.016113,0.208252,0.092346,-0.487805,-7.073171,12.926829
1548456688883,-1.016541,0.212646,0.093628,-0.304878,-7.134147,13.170732
1548456688898,-1.015015,0.216187,0.097351,-0.243902,-7.256098,13.475610
1548456688906,-1.013428,0.219482,0.102539,-0.060976,-7.378049,13.719513
1548456688913,-1.011536,0.220703,0.103516,0.182927,-7.804878,13.902439
1548456688935,-1.009338,0.221741,0.107239,0.243902,-8.048780,14.146341
1548456688936,-1.009338,0.225037,0.109985,0.365854,-8.292683,14.512196
1548456688943,-1.007629,0.225952,0.113098,0.304878,-8.597561,14.939025
1548456688959,-1.006775,0.228577,0.114624,0.121951,-8.963415,15.365854
1548456688966,-1.004822,0.230225,0.115051,-0.060976,-9.329268,15.670732
1548456688973,-1.001709,0.233215,0.117004,-0.243902,-9.451220,15.975610
1548456688988,-1.002930,0.238708,0.116699,-0.365854,-9.512196,16.463415
1548456688996,-1.000732,0.242004,0.112427,-0.548781,-9.695122,16.768293
1548456689003,-1.003296,0.243774,0.116089,-0.670732,-9.756098,17.195122
1548456689033,-1.002197,0.243774,0.119385,-0.670732,-9.817074,17.560976
1548456689034,-1.001648,0.248718,0.117676,-0.487805,-9.939025,17.743902
1548456689034,-1.002319,0.255310,0.121765,-0.243902,-10.000000,17.987804
1548456689048,-0.999146,0.260254,0.125488,-0.060976,-10.243902,18.292683
1548456689056,-0.997009,0.262695,0.124023,0.304878,-10.487805,18.658537
1548456689063,-0.995911,0.261230,0.128479,0.609756,-10.792684,19.085367
1548456689078,-0.995728,0.260986,0.133301,0.792683,-11.036586,19.451220
1548456689086,-0.997559,0.266235,0.133301,0.914634,-11.219512,19.695122
1548456689101,-0.998962,0.271729,0.133362,0.670732,-11.524390,19.939024
1548456689108,-0.997620,0.274170,0.134705,0.121951,-11.829268,20.365854
1548456689116,-0.999695,0.279663,0.134399,-0.060976,-11.890244,20.792683
1548456689123,-0.999634,0.285156,0.133850,-0.060976,-12.012196,20.975611
1548456689145,-0.997192,0.289490,0.136414,-0.060976,-12.134147,21.219513
1548456689146,-0.994629,0.292969,0.139282,-0.060976,-12.195122,21.463415
1548456689153,-0.990356,0.297058,0.143311,0.304878,-12.500000,21.951220
1548456689168,-0.988037,0.300964,0.142944,0.792683,-12.865854,22.317074
1548456689176,-0.987732,0.301147,0.145935,1.036585,-13.109756,22.682928
1548456689191,-0.984802,0.303162,0.149109,0.914634,-13.353659,23.109756
1548456689198,-0.984863,0.308472,0.153625,0.853659,-13.414635,23.597561
1548456689213,-0.985657,0.315369,0.152832,0.487805,-13.658537,23.902439
1548456689213,-0.986572,0.322632,0.154480,0.121951,-13.902439,24.329269
1548456689228,-0.984314,0.326538,0.156738,-0.060976,-14.024390,24.695122
1548456689236,-0.981628,0.330872,0.157898,-0.060976,-14.207317,25.060976
1548456689243,-0.979004,0.336914,0.159119,0.121951,-14.329268,25.426830
1548456689267,-0.979126,0.336304,0.164001,0.000000,-14.512196,25.853659
1548456689267,-0.977661,0.336914,0.166016,0.243902,-14.756098,26.280489
1548456689273,-0.976746,0.340088,0.165161,0.426829,-15.000000,26.585367
1548456689288,-0.976807,0.339050,0.171692,0.365854,-15.060976,26.707317
1548456689296,-0.974426,0.338745,0.169922,0.243902,-15.121951,27.012196
1548456689303,-0.973267,0.340332,0.168579,0.000000,-15.182927,27.256098
1548456689318,-0.969910,0.343506,0.171936,-0.182927,-15.121951,27.439026
1548456689326,-0.966431,0.344727,0.171997,-0.487805,-15.060976,27.500000
1548456689333,-0.964539,0.342468,0.168884,-0.670732,-15.000000,27.439026
1548456689355,-0.964844,0.340271,0.171387,-0.853659,-14.817074,27.317074
1548456689356,-0.963562,0.340759,0.176819,-1.036585,-14.756098,27.256098
1548456689363,-0.961304,0.344849,0.178711,-1.097561,-14.695123,27.073172
1548456689378,-0.960938,0.346008,0.177551,-1.036585,-14.634147,26.829269
1548456689386,-0.961060,0.344543,0.178284,-1.036585,-14.329268,26.585367
1548456689401,-0.956482,0.343567,0.175781,-1.097561,-13.963415,26.341463
1548456689408,-0.956726,0.342712,0.177490,-1.097561,-13.902439,25.792683
1548456689416,-0.956604,0.339172,0.179688,-1.036585,-13.719513,25.121952
1548456689423,-0.953735,0.334534,0.179626,-0.975610,-13.353659,24.512196
1548456689438,-0.952515,0.335754,0.179871,-0.792683,-12.926829,23.658537
1548456689446,-0.950073,0.333984,0.176270,-0.853659,-12.439025,22.804878
1548456689453,-0.947571,0.334290,0.176514,-0.975610,-12.012196,21.951220
1548456689468,-0.946228,0.336182,0.178223,-0.853659,-11.585366,21.036587
1548456689476,-0.944092,0.340515,0.176086,-0.731707,-11.036586,19.817074
1548456689483,-0.941284,0.343872,0.175842,-0.609756,-10.426829,18.719513
1548456689498,-0.938477,0.344360,0.179077,-0.121951,-9.878049,17.743902
1548456689506,-0.934692,0.343811,0.178528,0.426829,-9.329268,16.707317
1548456689513,-0.934387,0.345215,0.177368,0.914634,-8.780488,15.548780
1548456689528,-0.931091,0.345947,0.176331,1.341463,-8.170732,14.451220
1548456689536,-0.928711,0.349060,0.175354,1.585366,-7.500000,13.414635
1548456689543,-0.925537,0.355896,0.178284,1.707317,-6.829268,12.439025
1548456689558,-0.921753,0.365051,0.176880,2.012195,-6.280488,11.402439
1548456689566,-0.920532,0.370605,0.174194,2.256098,-5.487805,10.365854
1548456689573,-0.919006,0.373108,0.173950,2.560976,-4.756098,9.634147
1548456689588,-0.916931,0.376221,0.180603,2.987805,-4.024390,8.780488
1548456689596,-0.914795,0.383240,0.184875,3.902439,-3.475610,7.743903
1548456689603,-0.917358,0.386719,0.189636,4.939024,-3.170732,6.951220
1548456689618,-0.921509,0.385864,0.190857,6.097561,-3.170732,6.219512
1548456689626,-0.919373,0.386230,0.190552,6.646342,-3.048780,5.548780
1548456689633,-0.916260,0.391663,0.199097,6.219512,-2.500000,4.939024
1548456689648,-0.919189,0.400513,0.199951,5.670732,-2.195122,4.451220
1548456689656,-0.921204,0.408386,0.198547,4.939024,-2.073171,3.963415
1548456689663,-0.921753,0.415161,0.202942,4.207317,-1.768293,3.597561
1548456689678,-0.919434,0.421997,0.210022,3.780488,-1.280488,3.292683
1548456689686,-0.914917,0.427063,0.211548,3.597561,-1.036585,3.109756
1548456689693,-0.915894,0.433838,0.214478,3.719512,-1.097561,2.804878
1548456689708,-0.916138,0.439087,0.220337,3.780488,-1.280488,2.621951
1548456689716,-0.911438,0.443420,0.222229,3.902439,-1.280488,2.621951
1548456689723,-0.904846,0.445068,0.224548,3.780488,-1.158537,2.682927
1548456689738,-0.902588,0.449280,0.226318,3.658537,-1.402439,2.987805
1548456689746,-0.899597,0.460266,0.232361,3.475610,-1.707317,3.170732
1548456689753,-0.895325,0.471191,0.233276,3.292683,-2.195122,3.414634
1548456689768,-0.895203,0.476074,0.237732,3.353659,-2.560976,3.902439
1548456689776,-0.893494,0.476990,0.240051,3.414634,-2.865854,4.573171
1548456689783,-0.893127,0.479187,0.241943,3.353659,-3.048780,5.182927
1548456689798,-0.896118,0.481995,0.243958,3.353659,-3.414634,5.853659
1548456689806,-0.897949,0.484863,0.245667,3.231707,-3.719512,6.402439
1548456689813,-0.897827,0.483215,0.251709,3.231707,-4.268293,7.195122
1548456689828,-0.895447,0.481384,0.254272,3.292683,-4.817073,7.987805
1548456689836,-0.896484,0.483337,0.255432,3.109756,-5.243903,8.536586
1548456689843,-0.896118,0.486816,0.258423,2.682927,-5.914634,9.268292
1548456689858,-0.893677,0.490173,0.258484,2.256098,-6.463415,10.121951
1548456689866,-0.891235,0.489685,0.256653,1.890244,-6.951220,10.975610
1548456689873,-0.890747,0.487854,0.255371,1.219512,-7.378049,11.829268
1548456689888,-0.891479,0.486084,0.258362,0.914634,-7.865854,12.378049
1548456689896,-0.893005,0.486023,0.260315,0.792683,-8.292683,12.987805
1548456689911,-0.895020,0.492432,0.259399,0.731707,-8.902439,13.658537
1548456689918,-0.894043,0.494263,0.257568,0.426829,-9.451220,14.512196
1548456689926,-0.894287,0.489746,0.257385,0.060976,-9.756098,15.182927
1548456689933,-0.891907,0.485535,0.251404,-0.243902,-10.060976,15.731708
1548456689948,-0.892273,0.481628,0.249878,-0.487805,-10.487805,16.341463
1548456689956,-0.891235,0.482483,0.249878,-0.975610,-10.853659,16.707317
1548456689963,-0.891968,0.481750,0.247925,-1.036585,-11.036586,16.951220
1548456689978,-0.887817,0.482727,0.246582,-1.036585,-11.036586,17.378050
1548456689986,-0.885559,0.486877,0.246155,-1.036585,-11.219512,17.621952
1548456689993,-0.879517,0.489197,0.240479,-0.731707,-11.341464,17.926830
1548456690008,-0.876892,0.484802,0.238403,-0.365854,-11.402439,18.231709
1548456690016,-0.874084,0.485352,0.239380,-0.182927,-11.524390,18.109756
1548456690023,-0.874146,0.485413,0.240417,0.121951,-11.585366,18.170732
1548456690038,-0.872925,0.484314,0.240112,0.487805,-11.646341,18.231709
1548456690046,-0.876343,0.482605,0.236877,0.792683,-11.768293,17.987804
1548456690053,-0.877258,0.475220,0.237183,0.853659,-11.707317,17.743902
1548456690068,-0.874268,0.475403,0.241821,0.914634,-11.402439,17.621952
1548456690076,-0.870972,0.479675,0.235291,0.731707,-11.036586,17.560976
1548456690083,-0.873901,0.479187,0.236450,0.609756,-10.792684,17.195122
1548456690099,-0.869019,0.481873,0.239014,0.548781,-10.792684,16.768293
1548456690106,-0.866516,0.478455,0.238586,0.731707,-10.792684,16.341463
1548456690113,-0.863586,0.480042,0.240662,1.097561,-10.609756,16.036585
1548456690128,-0.863159,0.482727,0.240295,0.975610,-10.304878,15.487805
1548456690136,-0.860596,0.489258,0.239014,0.792683,-9.939025,15.000000
1548456690143,-0.856812,0.492065,0.237793,0.853659,-9.451220,14.756098
1548456690158,-0.855286,0.488770,0.242310,1.097561,-9.085366,14.451220
1548456690166,-0.850647,0.488403,0.243347,1.402439,-8.719512,13.841464
1548456690173,-0.847473,0.487671,0.241089,1.646341,-8.658537,13.353659
1548456690188,-0.850708,0.488464,0.242126,1.524390,-8.414635,12.926829
1548456690196,-0.849915,0.494690,0.246521,1.341463,-8.170732,12.500000
1548456690203,-0.847961,0.493713,0.249512,1.219512,-7.682927,12.195122
1548456690218,-0.846252,0.498962,0.252319,1.463415,-7.378049,11.768293
1548456690226,-0.844788,0.506653,0.253052,1.585366,-7.195122,11.280488
1548456690233,-0.844055,0.512695,0.252136,1.890244,-7.012195,10.853659
1548456690248,-0.844971,0.508606,0.251465,2.012195,-6.890244,10.426829
1548456690256,-0.845093,0.508789,0.254333,1.951220,-6.646342,10.121951
1548456690263,-0.843689,0.516602,0.259460,1.524390,-6.219512,9.695122
1548456690278,-0.837097,0.525085,0.262085,1.280488,-5.792683,9.207317
1548456690286,-0.830688,0.530518,0.263428,1.341463,-5.487805,8.841464
1548456690293,-0.826416,0.533325,0.267761,1.524390,-5.426829,8.658537
1548456690308,-0.822571,0.534546,0.268677,1.768293,-5.182927,8.658537
1548456690316,-0.818176,0.534790,0.270447,1.951220,-5.060976,8.719512
1548456690323,-0.820923,0.538940,0.273071,2.073171,-4.939024,8.719512
1548456690338,-0.827576,0.541992,0.275574,2.134146,-5.060976,8.536586
1548456690346,-0.828186,0.550293,0.279541,2.195122,-5.000000,8.231708
1548456690353,-0.820190,0.562073,0.283386,2.317073,-4.512195,7.987805
1548456690368,-0.818054,0.552063,0.282288,1.585366,-4.817073,8.780488
1548456690376,-0.826660,0.543274,0.288208,2.012195,-5.365854,9.268292
1548456690383,-0.830261,0.538391,0.290894,2.621951,-5.731708,9.085366
1548456690398,-0.827454,0.542969,0.293579,2.804878,-5.548780,8.536586
1548456690406,-0.827332,0.545715,0.291565,2.621951,-5.548780,8.414635
1548456690413,-0.824524,0.552917,0.288940,2.012195,-5.731708,8.658537
1548456690428,-0.817017,0.557739,0.285950,1.463415,-5.365854,8.292683
1548456690436,-0.813904,0.558838,0.288513,0.000000,-5.548780,8.597561
1548456690443,-0.818115,0.559082,0.288452,-0.243902,-5.731708,8.963415
1548456690458,-0.807800,0.571716,0.288696,0.243902,-5.548780,8.597561
1548456690466,-0.802490,0.569824,0.286804,-0.060976,-5.000000,8.414635
1548456690473,-0.805359,0.565308,0.291504,-0.548781,-5.609756,9.085366
1548456690488,-0.808777,0.572083,0.298035,0.304878,-5.853659,9.390244
1548456690496,-0.797546,0.587341,0.295349,1.036585,-5.487805,8.963415
1548456690503,-0.794312,0.592163,0.291626,0.670732,-5.487805,9.329268
1548456690518,-0.801819,0.580688,0.293274,0.731707,-6.036585,10.304878
1548456690526,-0.807373,0.567993,0.293701,1.463415,-6.585366,10.731708
1548456690533,-0.809265,0.561768,0.296082,1.951220,-6.585366,10.243902
1548456690548,-0.809937,0.562500,0.294250,1.829268,-6.524390,10.060976
1548456690556,-0.811340,0.571228,0.295227,1.524390,-6.646342,10.121951
1548456690563,-0.809570,0.573242,0.291321,1.219512,-7.073171,10.243902
1548456690578,-0.801147,0.582092,0.289429,1.219512,-7.134147,10.365854
1548456690586,-0.784912,0.596924,0.286743,1.585366,-6.036585,10.243902
1548456690593,-0.782471,0.581482,0.283264,0.304878,-5.487805,10.853659
1548456690609,-0.794739,0.570801,0.289368,0.000000,-5.975610,11.097561
1548456690623,-0.801208,0.565308,0.294067,1.219512,-6.768293,10.792684
1548456690623,-0.798706,0.563965,0.290527,1.646341,-6.646342,10.548780
1548456690638,-0.795105,0.566284,0.290588,1.341463,-6.097561,10.548780
1548456690646,-0.792542,0.565247,0.287354,0.792683,-5.975610,10.853659
1548456690653,-0.798706,0.552368,0.284424,0.182927,-5.853659,10.609756
1548456690668,-0.795532,0.562744,0.287659,-0.182927,-5.487805,9.939025
1548456690676,-0.788757,0.569946,0.286743,-0.548781,-4.756098,9.512196
1548456690683,-0.790466,0.559265,0.285217,-0.975610,-4.512195,9.512196
1548456690698,-0.793213,0.552734,0.290161,-0.121951,-4.939024,9.024390
1548456690706,-0.794189,0.554443,0.291016,0.914634,-5.000000,8.170732
1548456690713,-0.794739,0.554749,0.285522,1.036585,-4.573171,7.621952
1548456690728,-0.783142,0.575623,0.287109,1.097561,-4.024390,7.134147
1548456690736,-0.768555,0.597839,0.285706,1.280488,-2.987805,6.646342
1548456690743,-0.766113,0.589417,0.280090,0.243902,-2.926829,6.829268
1548456690758,-0.781006,0.570740,0.281982,0.121951,-3.536585,6.951220
1548456690766,-0.791992,0.565552,0.286865,1.463415,-3.841464,6.402439
1548456690773,-0.795227,0.561707,0.284180,2.500000,-3.353659,5.731708
1548456690788,-0.792175,0.556641,0.286072,2.500000,-2.621951,5.365854
1548456690803,-0.791443,0.557556,0.291199,2.500000,-2.560976,5.000000
1548456690804,-0.786621,0.553955,0.289001,2.560976,-2.804878,4.451220
1548456690818,-0.785034,0.551819,0.289185,1.768293,-2.743902,3.780488
1548456690833,-0.778992,0.560974,0.289673,0.792683,-2.317073,3.109756
1548456690833,-0.774902,0.569092,0.285339,-0.060976,-1.646341,2.378049
1548456690848,-0.771118,0.577393,0.281555,-0.914634,-0.975610,2.012195
1548456690856,-0.770020,0.580933,0.279785,-1.158537,-0.670732,1.768293
1548456690863,-0.771606,0.573792,0.280457,-0.975610,-0.182927,1.463415
1548456690878,-0.770386,0.565735,0.283752,-0.792683,0.426829,0.853659
1548456690886,-0.770447,0.574280,0.289368,-0.243902,0.731707,0.365854
1548456690893,-0.773376,0.588928,0.287659,0.548781,0.426829,0.060976
1548456690908,-0.770874,0.594727,0.282471,0.914634,0.426829,-0.182927
1548456690916,-0.768250,0.591919,0.287048,0.975610,0.609756,-0.365854
1548456690924,-0.773071,0.592102,0.295227,1.463415,0.914634,-0.182927
1548456690938,-0.777039,0.595154,0.302368,2.439024,1.097561,-0.426829
1548456690946,-0.776123,0.595520,0.303040,3.170732,1.036585,-1.036585
1548456690953,-0.775208,0.596252,0.304749,3.597561,0.792683,-1.280488
1548456690968,-0.771973,0.602539,0.307373,3.536585,0.487805,-1.158537
1548456690976,-0.764038,0.611023,0.315186,3.414634,0.426829,-0.914634
1548456690983,-0.765564,0.607422,0.314331,3.109756,0.365854,-0.792683
1548456690998,-0.770142,0.609375,0.315369,2.682927,0.121951,-0.792683
1548456691006,-0.772278,0.618347,0.319458,2.317073,-0.121951,-0.792683
1548456691013,-0.773010,0.629395,0.323303,1.951220,-0.243902,-0.548781
1548456691028,-0.770996,0.632019,0.326843,1.707317,-0.304878,-0.060976
1548456691036,-0.770569,0.627502,0.321167,1.890244,-0.548781,0.426829
1548456691043,-0.774109,0.620667,0.320007,1.890244,-0.670732,0.609756
1548456691058,-0.778137,0.609558,0.317139,1.829268,-0.609756,0.853659
1548456691066,-0.778442,0.605042,0.318115,1.463415,-0.487805,1.036585
1548456691073,-0.778748,0.605896,0.317688,0.914634,-0.853659,1.280488
1548456691088,-0.779480,0.604736,0.317200,0.365854,-1.280488,1.646341
1548456691096,-0.775818,0.608154,0.312439,-0.182927,-1.463415,1.951220
1548456691103,-0.774902,0.613098,0.311340,-0.609756,-1.524390,2.134146
1548456691118,-0.772400,0.614319,0.308655,-1.036585,-1.707317,2.256098
1548456691126,-0.771790,0.604736,0.302063,-1.341463,-1.951220,2.500000
1548456691133,-0.772827,0.589844,0.302917,-1.463415,-2.073171,2.743902
1548456691148,-0.775574,0.581543,0.296875,-1.524390,-2.012195,2.804878
1548456691156,-0.782104,0.575073,0.294800,-1.524390,-1.951220,2.560976
1548456691163,-0.785889,0.576599,0.294922,-1.585366,-2.195122,2.134146
1548456691178,-0.783020,0.580994,0.290405,-1.707317,-2.256098,1.951220
1548456691186,-0.776184,0.587708,0.282898,-1.829268,-2.012195,1.707317
1548456691193,-0.768127,0.580933,0.278259,-1.707317,-1.585366,1.219512
1548456691208,-0.769714,0.567322,0.280273,-1.585366,-1.158537,0.914634
1548456691216,-0.773743,0.560730,0.281799,-1.097561,-0.670732,0.243902
1548456691223,-0.776917,0.557739,0.280273,-0.609756,-0.426829,-0.365854
1548456691238,-0.780823,0.553528,0.277954,-0.426829,-0.304878,-0.975610
1548456691246,-0.780701,0.548828,0.277161,-0.548781,-0.121951,-1.463415
1548456691253,-0.776855,0.549622,0.278564,-0.670732,0.243902,-2.134146
1548456691268,-0.777405,0.548645,0.279114,-0.731707,0.670732,-2.804878
1548456691276,-0.780579,0.549438,0.279297,-0.792683,1.097561,-3.536585
1548456691283,-0.781799,0.554626,0.277161,-0.853659,1.463415,-4.390244
1548456691298,-0.785217,0.558289,0.274597,-0.731707,2.012195,-5.060976
1548456691306,-0.782043,0.552734,0.276001,-0.426829,2.439024,-5.731708
1548456691313,-0.783020,0.550293,0.279236,-0.121951,2.743902,-6.524390
1548456691328,-0.782837,0.546936,0.282227,0.121951,3.170732,-7.317073
1548456691336,-0.787354,0.538147,0.282471,0.243902,3.719512,-8.109756
1548456691343,-0.792542,0.529236,0.284546,0.487805,4.146341,-8.780488
1548456691358,-0.797180,0.525024,0.284241,0.609756,4.573171,-9.695122
1548456691366,-0.801270,0.518311,0.280884,0.487805,4.817073,-10.731708
1548456691373,-0.807556,0.507568,0.271118,0.060976,5.000000,-11.768293
1548456691388,-0.812500,0.489929,0.272156,-0.548781,5.548780,-12.926829
1548456691396,-0.815063,0.480103,0.269714,-1.097561,6.341464,-14.268293
1548456691403,-0.812805,0.483032,0.266663,-1.768293,7.439024,-15.853659
1548456691418,-0.810608,0.490234,0.263184,-2.682927,8.292683,-17.256098
1548456691426,-0.806458,0.505188,0.263977,-3.475610,8.963415,-18.414635
1548456691433,-0.794861,0.539001,0.268860,-3.658537,9.451220,-19.329269
1548456691448,-0.787781,0.577698,0.270569,-3.414634,9.695122,-19.939024
1548456691456,-0.784058,0.595642,0.268921,-2.500000,9.634147,-20.060976
1548456691463,-0.785522,0.598389,0.269409,-0.670732,9.817074,-19.756098
1548456691478,-0.794617,0.589233,0.273193,1.524390,10.243902,-19.756098
1548456691486,-0.811890,0.583069,0.280518,3.963415,10.243902,-20.060976
1548456691493,-0.829590,0.575439,0.287598,6.097561,9.878049,-20.121952
1548456691508,-0.843689,0.566956,0.290588,7.743903,9.268292,-20.365854
1548456691516,-0.853333,0.562683,0.295715,8.963415,8.597561,-20.731709
1548456691523,-0.853455,0.562012,0.295593,9.390244,8.048780,-20.609756
1548456691538,-0.844971,0.570984,0.294434,8.963415,7.865854,-20.304878
1548456691546,-0.837891,0.588257,0.295471,8.109756,7.804878,-20.182928
1548456691553,-0.830627,0.602356,0.289368,6.463415,7.560976,-19.817074
1548456691568,-0.822449,0.600037,0.282104,4.817073,7.621952,-18.902439
1548456691576,-0.816956,0.584595,0.277039,3.048780,7.926829,-17.743902
1548456691583,-0.819031,0.574158,0.276306,1.036585,8.048780,-16.707317
1548456691598,-0.826721,0.569275,0.280273,-0.731707,7.987805,-15.975610
1548456691606,-0.833984,0.560974,0.284668,-2.317073,7.743903,-15.000000
1548456691613,-0.841125,0.556274,0.287354,-3.475610,7.500000,-13.841464
1548456691628,-0.848022,0.552979,0.281860,-4.085366,7.073171,-12.987805
1548456691636,-0.852600,0.547241,0.278625,-5.000000,6.646342,-12.621951
1548456691643,-0.854492,0.536682,0.271301,-5.670732,6.341464,-12.317074
1548456691658,-0.854187,0.523743,0.267578,-6.036585,6.097561,-12.073171
1548456691666,-0.858398,0.505615,0.260559,-6.402439,6.036585,-12.073171
1548456691673,-0.859619,0.490295,0.255737,-6.402439,5.914634,-12.073171
1548456691688,-0.858948,0.487793,0.255249,-5.609756,6.402439,-12.560976
1548456691696,-0.853760,0.492920,0.251160,-5.182927,6.524390,-13.048780
1548456691703,-0.851440,0.500671,0.248108,-4.573171,6.463415,-13.109756
1548456691718,-0.851501,0.499695,0.244080,-3.353659,6.158537,-12.926829
1548456691726,-0.850403,0.487366,0.237061,-2.195122,5.975610,-13.048780
1548456691733,-0.852600,0.480652,0.234802,-1.280488,6.158537,-13.475610
1548456691755,-0.862305,0.466858,0.236450,-0.853659,6.280488,-13.963415
1548456691756,-0.874146,0.463989,0.237610,-0.609756,5.975610,-13.963415
1548456691763,-0.879639,0.473267,0.235229,0.609756,6.646342,-15.060976
1548456691778,-0.877380,0.466919,0.229736,0.609756,7.134147,-15.853659
1548456691786,-0.876892,0.455505,0.231934,0.609756,7.621952,-16.097561
1548456691793,-0.888000,0.434387,0.233948,0.487805,7.743903,-16.280489
1548456691808,-0.899536,0.424988,0.239380,-0.182927,7.378049,-17.012196
1548456691816,-0.897278,0.438477,0.240417,0.426829,7.743903,-18.597561
1548456691823,-0.894165,0.440552,0.232361,0.426829,8.475610,-19.939024
1548456691838,-0.893372,0.434021,0.228333,0.060976,8.780488,-20.243902
1548456691853,-0.893494,0.429138,0.226440,0.000000,9.024390,-20.609756
1548456691854,-0.891479,0.430603,0.225403,-0.243902,9.451220,-21.402439
1548456691876,-0.900452,0.419495,0.227478,-0.792683,9.573171,-21.768293
1548456691876,-0.902649,0.429993,0.228882,-0.609756,9.878049,-22.560976
1548456691883,-0.902222,0.437317,0.221985,-0.304878,10.487805,-23.780489
1548456691898,-0.901245,0.440369,0.221619,-0.731707,10.914635,-24.451220
1548456691906,-0.902527,0.442566,0.220947,-0.792683,11.036586,-24.512196
1548456691921,-0.901855,0.441467,0.222168,-0.121951,11.158537,-24.817074
1548456691928,-0.903076,0.440857,0.223938,0.670732,11.219512,-25.487806
1548456691936,-0.908264,0.436951,0.222412,1.219512,11.097561,-25.914635
1548456691943,-0.911682,0.432068,0.221924,1.890244,11.219512,-26.158537
1548456691958,-0.913025,0.435425,0.222290,2.439024,11.280488,-26.402439
1548456691966,-0.922485,0.428101,0.218506,2.378049,11.341464,-26.280489
1548456691973,-0.926147,0.433899,0.217651,2.682927,10.731708,-26.097561
1548456691988,-0.927124,0.436768,0.215088,3.292683,11.280488,-26.524391
1548456691996,-0.923523,0.439636,0.217651,2.804878,11.524390,-26.585367
1548456692003,-0.922668,0.445068,0.213562,2.500000,11.585366,-26.158537
1548456692018,-0.923645,0.442749,0.214111,2.500000,11.219512,-25.853659
1548456692026,-0.923889,0.439758,0.214111,2.560976,10.975610,-25.487806
1548456692033,-0.921082,0.435425,0.211609,2.621951,10.853659,-25.000000
1548456692063,-0.931824,0.420532,0.211548,2.439024,10.365854,-24.207317
1548456692063,-0.937927,0.417542,0.214050,2.439024,10.000000,-23.780489
1548456692064,-0.940735,0.414978,0.208496,2.073171,10.243902,-23.841463
1548456692078,-0.944702,0.412964,0.203735,0.670732,10.365854,-23.536587
1548456692086,-0.944092,0.406555,0.200500,-0.243902,10.304878,-22.743902
1548456692093,-0.943787,0.402344,0.197510,-0.975610,10.426829,-22.134148
1548456692108,-0.945251,0.396301,0.195984,-1.829268,10.304878,-22.012196
1548456692116,-0.945496,0.391052,0.196777,-2.073171,10.304878,-21.585367
1548456692123,-0.944580,0.385925,0.190796,-2.012195,10.365854,-21.158537
1548456692138,-0.947021,0.376892,0.189819,-1.951220,10.182927,-20.914635
1548456692146,-0.946838,0.376648,0.189148,-1.829268,9.878049,-20.670732
1548456692153,-0.954834,0.367798,0.186035,-1.646341,9.695122,-20.304878
1548456692168,-0.957458,0.365723,0.186462,-1.463415,9.146341,-20.000000
1548456692176,-0.954895,0.359192,0.183044,-0.609756,9.512196,-20.243902
1548456692183,-0.955688,0.349365,0.184509,-0.426829,9.573171,-20.304878
1548456692191,-0.958984,0.344421,0.180359,-0.609756,9.512196,-20.121952
1548456692206,-0.963867,0.343140,0.179199,-0.609756,9.329268,-19.939024
1548456692213,-0.965088,0.336731,0.175049,-0.487805,9.268292,-19.817074
1548456692221,-0.965088,0.334900,0.176941,-0.487805,9.451220,-19.939024
1548456692236,-0.965515,0.339539,0.174377,-0.121951,9.268292,-20.304878
1548456692243,-0.967346,0.342529,0.170227,0.243902,9.024390,-20.182928
1548456692251,-0.970947,0.335449,0.165161,0.609756,9.085366,-19.939024
1548456692266,-0.971069,0.330322,0.165283,0.670732,9.085366,-19.878050
1548456692273,-0.972229,0.327820,0.164978,0.853659,9.146341,-20.060976
1548456692281,-0.973938,0.325623,0.165833,0.853659,9.146341,-20.182928
1548456692296,-0.975647,0.326721,0.164124,1.097561,9.024390,-20.121952
1548456692303,-0.975769,0.325806,0.163147,1.585366,8.841464,-20.000000
1548456692311,-0.975891,0.321167,0.162415,2.073171,8.597561,-19.939024
1548456692326,-0.976990,0.312805,0.159485,2.500000,8.597561,-19.634148
1548456692333,-0.979553,0.306519,0.155334,2.500000,8.658537,-19.512196
1548456692341,-0.980896,0.301208,0.150452,2.195122,8.658537,-19.451220
1548456692356,-0.988586,0.292480,0.148621,1.646341,8.658537,-19.146341
1548456692363,-0.991577,0.289429,0.149292,0.914634,8.536586,-18.963415
1548456692371,-0.990967,0.294434,0.149597,0.426829,8.841464,-19.085367
1548456692386,-0.989380,0.298462,0.146729,0.121951,9.024390,-19.085367
1548456692393,-0.986023,0.291504,0.144836,0.121951,9.024390,-18.780489
1548456692401,-0.983154,0.288696,0.144531,0.000000,8.963415,-18.597561
1548456692416,-0.981445,0.294983,0.145325,-0.060976,8.841464,-18.536585
1548456692423,-0.982422,0.300049,0.140869,-0.121951,8.597561,-18.536585
1548456692431,-0.984009,0.299500,0.139832,0.000000,8.414635,-18.109756
1548456692446,-0.989441,0.292236,0.143494,0.182927,8.353659,-17.621952
1548456692453,-0.992371,0.286011,0.140564,0.548781,8.353659,-17.317074
1548456692461,-0.993835,0.280701,0.137085,0.853659,8.353659,-17.073172
1548456692476,-0.996643,0.271545,0.136597,0.975610,7.987805,-16.829269
1548456692483,-0.999817,0.264282,0.138977,0.975610,7.682927,-16.585365
1548456692491,-1.001343,0.258728,0.134705,0.914634,7.500000,-16.341463
1548456692506,-1.005066,0.253723,0.130554,0.670732,7.317073,-16.036585
1548456692513,-1.004272,0.248047,0.127075,0.182927,7.378049,-15.792684
1548456692521,-1.002747,0.242432,0.122925,-0.548781,7.439024,-15.609756
1548456692536,-1.002136,0.239990,0.121399,-1.219512,7.743903,-15.548780
1548456692543,-1.004150,0.239075,0.118408,-1.463415,7.865854,-15.365854
1548456692551,-1.002930,0.241455,0.119446,-1.585366,7.865854,-15.365854
1548456692566,-1.002075,0.243713,0.120056,-1.585366,7.926829,-15.182927
1548456692573,-0.999939,0.235535,0.118591,-1.158537,7.926829,-14.878049
1548456692581,-0.997131,0.229614,0.116882,-0.731707,7.804878,-14.817074
1548456692596,-1.000793,0.226196,0.115234,-0.609756,7.621952,-15.121951
1548456692603,-1.002747,0.218018,0.118408,-0.487805,7.500000,-15.365854
1548456692611,-1.005493,0.209961,0.116699,-0.548781,7.378049,-15.426829
1548456692626,-1.010742,0.207397,0.112244,-0.609756,7.439024,-15.487805
1548456692633,-1.013428,0.204285,0.108582,-0.609756,7.500000,-15.609756
1548456692641,-1.013245,0.200562,0.104431,-0.792683,7.621952,-15.914635
1548456692656,-1.015137,0.196411,0.103271,-0.975610,7.743903,-16.036585
1548456692663,-1.017090,0.192078,0.101196,-1.219512,7.865854,-16.341463
1548456692671,-1.020020,0.192383,0.100525,-1.036585,7.926829,-16.707317
1548456692686,-1.020752,0.187744,0.099487,-0.792683,7.804878,-16.890244
1548456692693,-1.021179,0.181213,0.098083,-0.548781,7.804878,-17.195122
1548456692701,-1.022522,0.175354,0.097290,-0.365854,8.109756,-17.439024
1548456692716,-1.022644,0.177002,0.094727,-0.243902,8.170732,-17.682928
1548456692723,-1.021484,0.175720,0.089661,-0.304878,8.170732,-18.048780
1548456692731,-1.019714,0.173096,0.087463,-0.487805,8.231708,-18.353659
1548456692753,-1.016235,0.176575,0.088196,-0.487805,8.353659,-18.536585
1548456692754,-1.016785,0.175476,0.089172,-0.243902,8.414635,-18.719513
1548456692761,-1.017944,0.174316,0.090515,0.182927,8.414635,-18.780489
1548456692776,-1.018188,0.174072,0.090454,0.487805,8.536586,-19.024391
1548456692783,-1.018433,0.170471,0.085693,0.731707,8.536586,-19.146341
1548456692791,-1.021301,0.173096,0.083801,0.914634,8.536586,-19.207317
1548456692806,-1.023621,0.173096,0.081055,1.219512,8.414635,-19.207317
1548456692813,-1.026978,0.173706,0.083191,1.463415,8.292683,-19.146341
1548456692821,-1.025696,0.173035,0.083435,1.890244,8.170732,-19.085367
1548456692836,-1.027039,0.172119,0.085144,2.256098,8.048780,-18.841463
1548456692843,-1.028198,0.170166,0.086548,2.439024,7.865854,-18.536585
1548456692851,-1.029541,0.169067,0.084961,2.378049,7.743903,-18.292683
1548456692873,-1.028137,0.172974,0.081665,2.378049,7.621952,-18.048780
1548456692874,-1.026306,0.176819,0.083069,2.195122,7.317073,-17.682928
1548456692881,-1.023438,0.180359,0.083130,2.134146,7.134147,-17.195122
1548456692895,-1.022400,0.181824,0.085571,2.134146,6.951220,-16.463415
1548456692903,-1.020569,0.180969,0.085754,2.256098,6.707317,-15.609756
1548456692911,-1.017639,0.180176,0.089478,2.378049,6.402439,-14.817074
1548456692926,-1.017151,0.180786,0.092529,2.134146,5.975610,-14.024390
1548456692940,-1.017761,0.182983,0.091309,1.890244,5.487805,-13.109756
1548456692941,-1.015808,0.186035,0.091736,1.646341,5.060976,-12.012196
1548456692956,-1.014954,0.188232,0.093994,1.463415,4.634146,-10.914635
1548456692963,-1.017212,0.186035,0.091431,1.341463,4.085366,-9.817074
1548456692971,-1.016174,0.186340,0.091370,1.097561,3.658537,-8.597561
1548456692986,-1.015198,0.183289,0.092651,0.853659,3.048780,-7.439024
1548456692993,-1.018005,0.183838,0.092224,0.609756,2.560976,-6.219512
1548456693001,-1.020935,0.180176,0.093140,0.426829,2.134146,-5.060976
1548456693016,-1.020752,0.177185,0.093567,0.182927,1.585366,-3.902439
1548456693023,-1.020935,0.175781,0.093079,0.060976,1.158537,-2.743902
1548456693031,-1.022095,0.172424,0.090698,-0.182927,0.487805,-1.646341
1548456693046,-1.022217,0.169006,0.087280,-0.670732,0.000000,-0.670732
1548456693053,-1.023438,0.163513,0.087341,-1.158537,-0.426829,0.304878
1548456693061,-1.022644,0.156799,0.088013,-1.402439,-0.853659,1.402439
1548456693076,-1.023987,0.150879,0.088196,-1.402439,-1.280488,2.317073
1548456693083,-1.025635,0.145081,0.083923,-1.646341,-1.768293,3.109756
1548456693091,-1.023193,0.140625,0.085022,-1.890244,-2.195122,3.841464
1548456693106,-1.022278,0.137756,0.080688,-2.256098,-2.621951,4.451220
1548456693113,-1.023499,0.137024,0.076111,-2.500000,-2.926829,5.000000
1548456693121,-1.023438,0.130676,0.073486,-2.987805,-3.170732,5.487805
1548456693136,-1.026245,0.126831,0.070312,-3.353659,-3.414634,5.975610
1548456693150,-1.031067,0.123901,0.068298,-3.292683,-3.536585,6.158537
1548456693151,-1.029663,0.122742,0.066956,-3.536585,-3.658537,6.219512
1548456693173,-1.029236,0.120056,0.061951,-3.475610,-3.597561,6.402439
1548456693174,-1.033142,0.115540,0.057983,-2.926829,-3.597561,6.402439
1548456693188,-1.034790,0.110840,0.058105,-2.560976,-3.597561,6.280488
1548456693196,-1.036011,0.106445,0.056335,-2.317073,-3.475610,6.097561
1548456693203,-1.035461,0.106567,0.055664,-2.012195,-3.353659,5.853659
1548456693218,-1.035889,0.104126,0.051941,-1.829268,-3.353659,5.426829
1548456693226,-1.034851,0.100769,0.048157,-1.951220,-3.170732,4.939024
1548456693233,-1.033325,0.100464,0.050537,-1.951220,-2.987805,4.512195
1548456693241,-1.030640,0.101685,0.049927,-1.890244,-2.804878,4.207317
1548456693256,-1.026245,0.101013,0.047363,-1.524390,-2.500000,3.658537
1548456693263,-1.026550,0.102539,0.044678,-1.158537,-2.195122,3.109756
1548456693271,-1.025452,0.102600,0.044739,-0.792683,-1.829268,2.682927
1548456693286,-1.027771,0.104492,0.044128,-0.365854,-1.524390,2.134146
1548456693293,-1.032410,0.104858,0.047119,-0.060976,-1.219512,1.341463
1548456693301,-1.032898,0.105286,0.048157,0.121951,-0.914634,0.853659
1548456693316,-1.033325,0.107361,0.047424,0.365854,-0.609756,0.182927
1548456693323,-1.031372,0.108643,0.046631,0.548781,-0.243902,-0.304878
1548456693331,-1.029724,0.110413,0.053955,0.670732,0.000000,-0.792683
1548456693346,-1.029724,0.112854,0.057617,0.670732,0.304878,-1.158537
1548456693353,-1.031494,0.114319,0.058044,0.792683,0.365854,-1.524390
1548456693361,-1.029785,0.115051,0.057251,0.914634,0.487805,-1.951220
1548456693376,-1.031250,0.120056,0.061707,0.975610,0.731707,-2.195122
1548456693383,-1.029053,0.122559,0.059998,1.036585,0.792683,-2.500000
1548456693391,-1.028137,0.125488,0.066284,1.158537,0.792683,-2.682927
1548456693406,-1.028381,0.128601,0.070740,1.280488,0.853659,-2.743902
1548456693413,-1.026367,0.129639,0.071777,1.341463,0.975610,-2.743902
1548456693428,-1.025085,0.131409,0.071472,1.341463,1.097561,-2.804878
1548456693436,-1.023132,0.133301,0.076721,1.341463,1.036585,-2.743902
1548456693451,-1.025940,0.137024,0.076843,1.341463,0.853659,-2.743902
1548456693451,-1.025146,0.138855,0.075806,1.158537,0.548781,-2.682927
1548456693473,-1.024780,0.141541,0.076477,1.158537,0.426829,-2.500000
1548456693474,-1.021240,0.142395,0.078979,0.914634,0.426829,-2.195122
1548456693481,-1.021667,0.141907,0.080627,0.792683,0.243902,-1.829268
1548456693496,-1.023376,0.140686,0.082642,0.792683,0.000000,-1.463415
1548456693503,-1.024536,0.145020,0.083435,1.036585,-0.304878,-1.158537
1548456693511,-1.026123,0.146118,0.084534,1.036585,-0.609756,-0.853659
1548456693526,-1.025879,0.144287,0.082275,1.036585,-0.792683,-0.548781
1548456693533,-1.023804,0.142883,0.083496,0.975610,-1.036585,-0.182927
1548456693541,-1.026245,0.142883,0.078735,0.670732,-1.219512,0.121951
1548456693556,-1.026672,0.141663,0.076416,0.365854,-1.158537,0.487805
1548456693563,-1.027161,0.138428,0.077942,0.121951,-1.341463,0.853659
1548456693571,-1.028625,0.136658,0.074646,0.121951,-1.646341,1.219512
1548456693586,-1.026367,0.135376,0.075012,0.121951,-1.890244,1.585366
1548456693593,-1.024536,0.133362,0.075256,-0.121951,-2.012195,1.768293
1548456693601,-1.023560,0.133118,0.071228,-0.182927,-2.195122,1.951220
1548456693616,-1.023254,0.131409,0.071045,-0.182927,-2.378049,2.195122
1548456693623,-1.023743,0.132324,0.071594,-0.365854,-2.439024,2.317073
1548456693631,-1.027588,0.133118,0.069214,-0.365854,-2.439024,2.560976
1548456693646,-1.029968,0.131042,0.065979,-0.243902,-2.500000,2.682927
1548456693653,-1.025574,0.130066,0.067688,-0.121951,-2.500000,2.743902
1548456693661,-1.024963,0.131470,0.065369,0.000000,-2.439024,2.804878
1548456693676,-1.025574,0.131836,0.062134,0.121951,-2.621951,2.682927
1548456693683,-1.027100,0.129089,0.061218,0.304878,-2.621951,2.743902
1548456693691,-1.028564,0.126404,0.065735,0.487805,-2.500000,2.743902
1548456693706,-1.029846,0.125122,0.065002,0.487805,-2.317073,2.865854
1548456693713,-1.028992,0.126099,0.063354,0.487805,-2.317073,2.682927
1548456693728,-1.031494,0.126038,0.062378,0.365854,-2.500000,2.560976
1548456693736,-1.033264,0.127258,0.067810,0.000000,-2.500000,2.500000
1548456693743,-1.029175,0.129639,0.066711,-0.121951,-2.439024,2.378049
1548456693751,-1.029419,0.136353,0.067322,-0.182927,-2.317073,2.500000
1548456693766,-1.027893,0.143433,0.067383,-0.487805,-2.256098,2.439024
1548456693773,-1.021729,0.144897,0.070435,-0.365854,-2.256098,2.500000
1548456693781,-1.020142,0.146057,0.072571,0.243902,-2.256098,2.621951
1548456693796,-1.020569,0.148743,0.077087,0.792683,-2.500000,2.804878
1548456693803,-1.016052,0.148621,0.078796,1.219512,-2.560976,2.865854
1548456693811,-1.015198,0.150696,0.082031,1.585366,-2.621951,3.170732
1548456693826,-1.021118,0.152466,0.084167,1.768293,-2.987805,3.414634
1548456693833,-1.026001,0.156067,0.084045,1.524390,-3.231707,3.780488
1548456693841,-1.028381,0.160095,0.086182,1.158537,-3.353659,4.207317
1548456693856,-1.029419,0.162903,0.088562,0.853659,-3.475610,4.695122
1548456693863,-1.029541,0.163147,0.087463,0.670732,-3.536585,5.182927
1548456693871,-1.026001,0.164001,0.087341,0.487805,-3.597561,5.548780
1548456693886,-1.023682,0.164368,0.088257,0.548781,-3.780488,5.975610
1548456693893,-1.022888,0.166382,0.090088,0.609756,-4.024390,6.341464
1548456693901,-1.020752,0.165894,0.092224,0.365854,-4.268293,6.890244
1548456693916,-1.018921,0.164307,0.096252,0.304878,-4.451220,7.439024
1548456693923,-1.019470,0.163391,0.094849,0.182927,-4.756098,7.743903
1548456693931,-1.017395,0.161560,0.091187,0.000000,-4.939024,8.109756
1548456693946,-1.018188,0.163940,0.089478,-0.487805,-5.182927,8.475610
1548456693953,-1.020264,0.166199,0.088501,-0.914634,-5.304878,8.780488
1548456693961,-1.020020,0.165283,0.088623,-1.219512,-5.365854,9.207317
1548456693976,-1.020569,0.165100,0.088684,-1.158537,-5.487805,9.695122
1548456693983,-1.019531,0.164001,0.090393,-1.036585,-5.609756,9.878049
1548456693991,-1.023376,0.162842,0.089172,-0.731707,-5.731708,10.121951
1548456694006,-1.025208,0.161438,0.086670,-0.548781,-5.853659,10.121951
1548456694013,-1.026917,0.160400,0.085022,-0.731707,-5.853659,10.243902
1548456694021,-1.026855,0.160095,0.083923,-0.914634,-5.731708,10.243902
1548456694036,-1.025208,0.157471,0.082458,-1.097561,-5.731708,10.304878
1548456694043,-1.023132,0.156799,0.085876,-1.280488,-5.548780,10.365854
1548456694051,-1.021851,0.153381,0.084656,-1.463415,-5.548780,10.304878
1548456694066,-1.023315,0.152527,0.084534,-1.524390,-5.548780,10.182927
1548456694073,-1.024719,0.151306,0.085632,-1.707317,-5.426829,9.878049
1548456694081,-1.023376,0.151245,0.085571,-1.951220,-5.426829,9.695122
1548456694096,-1.022095,0.152649,0.087524,-2.073171,-5.304878,9.512196
1548456694103,-1.020752,0.156799,0.083557,-2.134146,-5.060976,9.146341
1548456694111,-1.019897,0.157410,0.080688,-2.073171,-4.939024,8.780488
1548456694126,-1.019043,0.155640,0.085144,-2.195122,-4.634146,8.414635
1548456694133,-1.016907,0.157410,0.086670,-2.134146,-4.329268,8.048780
1548456694141,-1.016968,0.158875,0.087830,-1.646341,-4.207317,7.743903
1548456694156,-1.019043,0.161011,0.090515,-1.097561,-4.329268,7.195122
1548456694163,-1.017578,0.159058,0.093201,-0.304878,-4.268293,6.768293
1548456694171,-1.017517,0.159607,0.093506,0.304878,-4.024390,6.463415
1548456694186,-1.020569,0.164001,0.093567,0.731707,-3.902439,6.158537
1548456694193,-1.022461,0.164734,0.092041,1.036585,-3.719512,5.792683
1548456694201,-1.021606,0.168884,0.091736,0.792683,-3.475610,5.365854
1548456694216,-1.017822,0.175110,0.094299,0.731707,-3.292683,5.060976
1548456694223,-1.016479,0.179993,0.097534,1.036585,-3.292683,4.817073
1548456694231,-1.014893,0.186279,0.100891,1.280488,-3.353659,4.634146
1548456694246,-1.011169,0.192871,0.101562,1.646341,-3.170732,4.451220
1548456694253,-1.007812,0.196106,0.104919,2.073171,-3.109756,4.512195
1548456694261,-1.005615,0.201355,0.110962,2.621951,-3.414634,4.512195
1548456694276,-1.005066,0.206726,0.114197,2.926829,-3.597561,4.573171
1548456694283,-1.006836,0.211670,0.116821,3.048780,-3.841464,4.695122
1548456694291,-1.010681,0.213745,0.118958,3.231707,-3.963415,5.000000
1548456694306,-1.009155,0.218140,0.116577,3.109756,-4.024390,5.487805
1548456694313,-1.011169,0.226013,0.117493,2.865854,-4.024390,5.914634
1548456694321,-1.011169,0.230408,0.118652,2.560976,-4.207317,6.341464
1548456694336,-1.008911,0.236572,0.122742,2.378049,-4.451220,6.890244
1548456694343,-1.004761,0.237366,0.126465,2.317073,-4.756098,7.500000
1548456694351,-0.999207,0.236694,0.129578,2.256098,-5.121951,8.292683
1548456694366,-1.000671,0.237610,0.131348,2.012195,-5.426829,8.963415
1548456694373,-1.002258,0.239868,0.132385,1.829268,-5.792683,9.634147
1548456694381,-1.005310,0.244873,0.135437,1.280488,-6.158537,10.243902
1548456694396,-1.006531,0.247620,0.136230,0.487805,-6.524390,11.158537
1548456694403,-1.006165,0.252319,0.133667,-0.121951,-6.829268,11.951220
1548456694418,-1.005981,0.258850,0.137207,-0.731707,-7.134147,12.804878
1548456694426,-1.003235,0.258850,0.139038,-1.341463,-7.317073,13.597561
1548456694433,-0.999207,0.260681,0.140076,-1.463415,-7.682927,14.268293
1548456694441,-0.998474,0.260986,0.140930,-1.158537,-8.231708,14.939025
1548456694456,-0.995789,0.262390,0.139954,-1.036585,-8.658537,15.670732
1548456694463,-0.994324,0.266541,0.141663,-0.731707,-9.024390,16.402439
1548456694471,-0.996277,0.265991,0.145325,-0.426829,-9.390244,17.134148
1548456694486,-0.997681,0.268372,0.145569,-0.365854,-9.695122,17.865854
1548456694493,-0.997803,0.272644,0.144348,-0.487805,-9.939025,18.536585
1548456694501,-0.999634,0.276489,0.143677,-0.731707,-10.304878,19.146341
1548456694516,-0.997131,0.278748,0.143555,-0.792683,-10.731708,19.817074
1548456694523,-0.998291,0.278687,0.143372,-0.792683,-11.097561,20.487804
1548456694531,-0.997253,0.278748,0.146667,-0.853659,-11.219512,21.219513
1548456694546,-0.999207,0.278503,0.145630,-0.731707,-11.463415,21.829269
1548456694553,-0.998779,0.279541,0.147522,-0.670732,-11.646341,22.195122
1548456694561,-0.999451,0.275024,0.147888,-0.731707,-11.951220,22.500000
1548456694576,-0.998535,0.272644,0.151794,-0.853659,-12.134147,23.048780
1548456694583,-0.994751,0.273315,0.149414,-1.219512,-12.134147,23.536587
1548456694591,-0.994263,0.272156,0.147522,-1.646341,-12.134147,23.841463
1548456694606,-0.994995,0.272278,0.149902,-2.195122,-12.317074,24.085367
1548456694613,-0.994324,0.273621,0.149109,-2.560976,-12.439025,24.085367
1548456694621,-0.993042,0.276062,0.149475,-2.926829,-12.317074,24.085367
1548456694636,-0.989868,0.276489,0.148254,-3.353659,-12.134147,24.024391
1548456694643,-0.989380,0.277466,0.144775,-3.475610,-12.012196,24.024391
1548456694651,-0.989868,0.275818,0.148560,-3.536585,-11.707317,24.024391
1548456694666,-0.990173,0.276062,0.152039,-3.414634,-11.524390,23.658537
1548456694673,-0.987854,0.277832,0.151611,-2.804878,-11.402439,23.231709
1548456694681,-0.985474,0.276245,0.150452,-2.256098,-11.280488,22.865854
1548456694696,-0.984253,0.270447,0.152954,-1.829268,-11.158537,22.317074
1548456694703,-0.982666,0.273132,0.155029,-1.158537,-10.914635,21.768293
1548456694711,-0.981445,0.275330,0.153564,-0.914634,-10.731708,21.097561
1548456694726,-0.979675,0.280640,0.155151,-0.914634,-10.487805,20.243902
1548456694733,-0.976196,0.287598,0.156799,-0.792683,-10.182927,19.573172
1548456694741,-0.975708,0.288757,0.156006,-0.426829,-10.000000,18.963415
1548456694756,-0.977234,0.290649,0.153992,0.060976,-9.634147,18.292683
1548456694763,-0.972839,0.293579,0.155334,0.548781,-9.329268,17.560976
1548456694771,-0.970703,0.296570,0.158142,1.036585,-9.085366,16.890244
1548456694786,-0.967163,0.295715,0.163208,1.280488,-8.597561,16.280489
1548456694793,-0.962402,0.298523,0.165955,1.707317,-8.353659,15.853659
1548456694801,-0.964233,0.301941,0.165222,1.951220,-8.170732,15.121951
1548456694816,-0.962341,0.301514,0.169556,2.256098,-8.048780,14.390244
1548456694823,-0.962097,0.301636,0.175476,2.256098,-7.865854,13.780488
1548456694831,-0.963501,0.308777,0.177612,2.012195,-7.439024,13.170732
1548456694846,-0.959717,0.319153,0.179749,1.585366,-7.073171,12.621951
1548456694853,-0.957275,0.327026,0.178650,1.463415,-6.890244,12.378049
1548456694861,-0.955627,0.336304,0.180298,1.463415,-6.829268,11.890244
1548456694876,-0.953552,0.348755,0.184021,1.158537,-6.646342,11.402439
1548456694883,-0.949829,0.357727,0.185059,1.280488,-6.341464,11.219512
1548456694891,-0.946167,0.361816,0.188110,1.829268,-6.280488,11.280488
1548456694906,-0.947815,0.363586,0.193604,2.560976,-6.341464,11.097561
1548456694913,-0.947937,0.367676,0.199585,2.987805,-6.341464,11.036586
1548456694928,-0.944946,0.374023,0.203369,3.353659,-6.463415,11.036586
1548456694936,-0.943787,0.378235,0.206543,3.597561,-6.768293,10.975610
1548456694943,-0.943481,0.378357,0.206299,3.658537,-7.134147,11.158537
1548456694951,-0.942993,0.376099,0.205872,3.353659,-7.134147,11.341464
1548456694966,-0.943909,0.377563,0.208923,2.804878,-7.073171,11.524390
1548456694973,-0.946045,0.388123,0.213257,2.256098,-7.073171,11.829268
1548456694981,-0.942871,0.401367,0.215027,1.951220,-7.195122,12.134147
1548456694996,-0.936279,0.410339,0.217957,2.012195,-7.500000,12.560976
1548456695003,-0.931213,0.411743,0.223267,2.317073,-7.804878,13.170732
1548456695011,-0.926941,0.414307,0.222229,2.560976,-8.231708,13.780488
1548456695026,-0.925781,0.417725,0.224792,2.682927,-8.475610,14.146341
1548456695033,-0.925964,0.418945,0.225159,2.560976,-8.780488,14.634147
1548456695041,-0.930664,0.422852,0.225342,2.195122,-9.146341,15.304878
1548456695056,-0.930481,0.426758,0.224670,1.768293,-9.329268,15.914635
1548456695063,-0.929688,0.428589,0.224121,1.219512,-9.390244,16.646341
1548456695071,-0.929565,0.429626,0.227356,0.853659,-9.451220,17.317074
1548456695086,-0.928772,0.428101,0.229553,0.487805,-9.695122,17.804878
1548456695093,-0.928955,0.430359,0.231628,0.182927,-10.060976,18.170732
1548456695101,-0.928223,0.431763,0.233215,0.182927,-10.365854,18.597561
1548456695116,-0.923950,0.433472,0.236023,0.000000,-10.731708,19.085367
1548456695123,-0.920593,0.437988,0.236450,-0.243902,-10.853659,19.695122
1548456695131,-0.917664,0.440857,0.236206,-0.487805,-11.036586,20.304878
1548456695146,-0.915527,0.437378,0.234131,-0.670732,-11.341464,20.914635
1548456695153,-0.912903,0.434204,0.233459,-0.609756,-11.646341,21.524391
1548456695161,-0.914490,0.430237,0.230286,-0.731707,-11.768293,21.829269
1548456695176,-0.918518,0.428284,0.228333,-1.097561,-11.829268,21.951220
1548456695183,-0.918884,0.430664,0.230408,-1.280488,-11.768293,22.012196
1548456695191,-0.917725,0.436707,0.228821,-1.463415,-11.707317,22.256098
1548456695206,-0.918152,0.439758,0.226379,-1.219512,-11.707317,22.500000
1548456695213,-0.913025,0.443176,0.224304,-0.975610,-11.585366,22.317074
1548456695221,-0.907288,0.440979,0.224487,-0.792683,-11.402439,22.195122
1548456695236,-0.902466,0.439514,0.233337,-0.487805,-11.341464,22.134148
1548456695244,-0.903687,0.439087,0.239502,-0.121951,-11.463415,21.890244
1548456695251,-0.903748,0.440063,0.240295,0.243902,-11.463415,21.829269
1548456695266,-0.901123,0.441528,0.242249,0.548781,-11.463415,21.585367
1548456695273,-0.899231,0.444153,0.241638,0.853659,-11.341464,21.402439
1548456695281,-0.897461,0.447327,0.244202,1.280488,-11.402439,21.158537
1548456695296,-0.895630,0.444519,0.243591,1.646341,-11.585366,20.853659
1548456695303,-0.890930,0.441528,0.239014,1.829268,-11.524390,20.548780
1548456695311,-0.890137,0.445129,0.243164,1.585366,-11.280488,20.121952
1548456695326,-0.889954,0.449463,0.242493,1.524390,-10.975610,19.878050
1548456695333,-0.887939,0.452515,0.240173,1.646341,-10.853659,19.451220
1548456695341,-0.888977,0.455811,0.238281,1.585366,-10.731708,18.963415
1548456695356,-0.886414,0.455750,0.239075,1.463415,-10.365854,18.658537
1548456695363,-0.880127,0.455505,0.242615,1.402439,-9.817074,18.231709
1548456695371,-0.873657,0.456909,0.245422,1.219512,-9.512196,17.743902
1548456695386,-0.870422,0.456360,0.247009,0.853659,-9.207317,17.256098
1548456695393,-0.869629,0.454773,0.249634,0.792683,-8.963415,16.829269
1548456695401,-0.866943,0.452393,0.248901,0.792683,-8.719512,16.341463
1548456695416,-0.868103,0.454407,0.248840,0.792683,-8.414635,15.792684
1548456695423,-0.869751,0.455383,0.250061,0.487805,-8.109756,15.060976
1548456695431,-0.871277,0.460632,0.251465,0.304878,-7.926829,14.268293
1548456695446,-0.865967,0.467285,0.254883,0.243902,-7.560976,13.658537
1548456695453,-0.861572,0.477417,0.255615,0.182927,-7.134147,13.353659
1548456695461,-0.856567,0.480347,0.253479,0.365854,-6.707317,12.804878
1548456695476,-0.856628,0.478699,0.252258,0.731707,-6.585366,12.195122
1548456695484,-0.853638,0.482605,0.256958,1.219512,-6.463415,11.585366
1548456695491,-0.851318,0.489624,0.262878,1.646341,-6.402439,10.975610
1548456695506,-0.847168,0.500977,0.265625,2.073171,-6.158537,10.548780
1548456695513,-0.842529,0.507874,0.268616,2.804878,-6.097561,10.487805
1548456695521,-0.840088,0.511780,0.269714,3.353659,-6.219512,10.365854
1548456695536,-0.840820,0.515137,0.273010,3.719512,-6.402439,10.182927
1548456695543,-0.841553,0.519348,0.273315,3.780488,-6.341464,10.182927
1548456695551,-0.838562,0.528442,0.277710,3.536585,-6.219512,10.182927
1548456695566,-0.839539,0.541138,0.281799,3.170732,-6.158537,10.121951
1548456695573,-0.840210,0.548401,0.286865,3.292683,-6.463415,10.426829
1548456695581,-0.840698,0.547180,0.290283,3.658537,-6.707317,10.670732
1548456695596,-0.839783,0.546265,0.296753,3.902439,-6.951220,10.853659
1548456695603,-0.839661,0.542297,0.299988,3.963415,-7.134147,10.975610
1548456695611,-0.839294,0.535950,0.298889,3.658537,-7.317073,11.219512
1548456695626,-0.838806,0.535278,0.297546,3.109756,-7.378049,11.341464
1548456695633,-0.833313,0.541321,0.298340,2.256098,-7.621952,11.402439
1548456695641,-0.832397,0.548157,0.295105,1.646341,-7.621952,11.829268
1548456695656,-0.832825,0.545715,0.286072,1.036585,-7.439024,12.378049
1548456695663,-0.830383,0.548462,0.290771,0.304878,-7.256098,12.682927
1548456695671,-0.824158,0.559814,0.293091,-0.304878,-7.256098,12.804878
1548456695686,-0.815857,0.563110,0.290894,-0.731707,-7.378049,13.109756
1548456695693,-0.813477,0.559387,0.290710,-0.853659,-7.560976,13.597561
1548456695701,-0.812683,0.554932,0.292114,-0.731707,-7.743903,14.146341
1548456695716,-0.811646,0.552734,0.291870,-0.670732,-7.682927,14.512196
1548456695723,-0.816223,0.545715,0.291443,-0.670732,-7.560976,14.634147
1548456695731,-0.816284,0.547974,0.290771,-0.487805,-7.378049,14.573171
1548456695746,-0.815857,0.553345,0.289185,0.000000,-7.012195,14.207317
1548456695753,-0.817017,0.547974,0.289368,-0.365854,-7.378049,14.512196
1548456695761,-0.819153,0.543518,0.291931,0.243902,-7.804878,14.634147
1548456695776,-0.818970,0.541992,0.296204,1.036585,-7.804878,14.268293
1548456695783,-0.818542,0.536865,0.289673,1.280488,-7.500000,13.841464
1548456695791,-0.811096,0.542358,0.290833,1.219512,-7.317073,13.353659
1548456695806,-0.806030,0.548096,0.290100,1.463415,-6.768293,12.926829
1548456695813,-0.807556,0.543457,0.292114,1.097561,-6.951220,12.987805
1548456695821,-0.810913,0.538818,0.293518,1.524390,-7.012195,12.743903
1548456695836,-0.805664,0.550110,0.291565,2.256098,-6.951220,12.256098
1548456695851,-0.800293,0.550293,0.290710,2.621951,-6.097561,11.646341
1548456695852,-0.801697,0.542969,0.288940,1.646341,-6.219512,11.829268
1548456695866,-0.805786,0.540527,0.289001,1.951220,-6.463415,11.585366
1548456695873,-0.803040,0.545044,0.287537,2.439024,-6.097561,10.670732
1548456695881,-0.805176,0.544250,0.285889,1.402439,-5.609756,10.426829
1548456695896,-0.805908,0.543274,0.287903,0.975610,-5.426829,10.304878
1548456695903,-0.807373,0.543274,0.287048,1.036585,-5.304878,9.756098
1548456695911,-0.806885,0.535095,0.288879,0.975610,-5.121951,8.963415
1548456695926,-0.799805,0.544189,0.290649,1.158537,-4.756098,8.292683
1548456695933,-0.787231,0.567139,0.293152,1.463415,-3.902439,7.621952
1548456695941,-0.777588,0.569458,0.291565,0.426829,-3.536585,7.560976
1548456695956,-0.778931,0.566162,0.287964,0.000000,-3.536585,7.500000
1548456695963,-0.780273,0.570190,0.290588,0.548781,-3.963415,7.195122
1548456695971,-0.780029,0.570923,0.292847,1.341463,-3.658537,6.829268
1548456695986,-0.782532,0.574280,0.294128,1.890244,-3.170732,6.646342
1548456695993,-0.785217,0.576965,0.295776,2.134146,-3.048780,6.402439
1548456696001,-0.790222,0.573059,0.298340,2.317073,-3.048780,6.158537
1548456696016,-0.781921,0.584351,0.299683,2.804878,-2.804878,5.609756
1548456696023,-0.779358,0.576721,0.296265,2.560976,-2.195122,5.609756
1548456696031,-0.783081,0.569031,0.300049,1.890244,-2.317073,5.548780
1548456696046,-0.785645,0.572388,0.306824,2.317073,-2.743902,5.121951
1548456696053,-0.784851,0.576904,0.305359,2.378049,-2.621951,4.634146
1548456696061,-0.779541,0.580322,0.303284,2.134146,-2.378049,4.451220
1548456696076,-0.775574,0.582520,0.299438,1.768293,-2.134146,4.451220
1548456696083,-0.772522,0.585144,0.304016,1.341463,-2.073171,4.329268
1548456696091,-0.773438,0.581238,0.305237,0.853659,-2.012195,4.207317
1548456696106,-0.780457,0.574707,0.310486,0.609756,-1.951220,4.085366
1548456696113,-0.783325,0.572754,0.310547,0.548781,-1.951220,3.841464
1548456696121,-0.784241,0.573914,0.309998,0.304878,-1.707317,3.353659
1548456696136,-0.780762,0.578674,0.313171,-0.060976,-1.646341,3.109756
1548456696143,-0.775879,0.578857,0.315552,-0.121951,-1.707317,2.926829
1548456696151,-0.776489,0.569153,0.308655,0.060976,-1.768293,2.682927
1548456696166,-0.769775,0.578186,0.305786,0.426829,-1.463415,2.134146
1548456696173,-0.769104,0.573975,0.304199,-0.121951,-0.853659,1.951220
1548456696181,-0.774963,0.570557,0.305969,-0.487805,-1.036585,1.768293
1548456696196,-0.779114,0.569885,0.306091,0.182927,-1.463415,1.280488
1548456696203,-0.777649,0.568665,0.304932,0.304878,-1.524390,0.792683
1548456696211,-0.775940,0.564758,0.299927,0.243902,-1.036585,0.548781
1548456696226,-0.774597,0.564209,0.302246,0.182927,-0.487805,0.060976
1548456696233,-0.775696,0.567627,0.303528,0.182927,-0.365854,-0.426829
1548456696241,-0.773560,0.570496,0.300659,0.182927,-0.304878,-0.914634
1548456696256,-0.774353,0.576538,0.296387,0.304878,-0.182927,-1.280488
1548456696263,-0.772766,0.576660,0.295471,0.365854,0.060976,-1.463415
1548456696271,-0.775818,0.571472,0.296753,0.243902,0.304878,-1.707317
1548456696286,-0.777161,0.568848,0.297485,0.304878,0.426829,-2.195122
1548456696293,-0.781067,0.570923,0.303223,0.365854,0.609756,-2.682927
1548456696301,-0.782898,0.569336,0.304688,0.548781,0.670732,-2.987805
1548456696316,-0.785461,0.566406,0.303467,0.853659,0.914634,-3.231707
1548456696323,-0.786194,0.566895,0.298767,0.914634,1.036585,-3.658537
1548456696331,-0.787170,0.573486,0.298035,0.731707,1.036585,-4.085366
1548456696346,-0.786377,0.572021,0.297546,0.548781,1.158537,-4.573171
1548456696353,-0.787964,0.564453,0.289001,0.182927,1.524390,-5.000000
1548456696361,-0.787354,0.561218,0.288940,-0.121951,2.073171,-5.426829
1548456696376,-0.787659,0.559692,0.287170,-0.487805,2.682927,-5.914634
1548456696383,-0.786987,0.560852,0.288147,-0.853659,2.926829,-6.402439
1548456696391,-0.786194,0.555603,0.286499,-0.975610,3.109756,-6.707317
1548456696406,-0.785217,0.551147,0.290100,-0.975610,3.536585,-7.134147
1548456696413,-0.786438,0.552734,0.289551,-1.097561,3.902439,-7.682927
1548456696421,-0.783508,0.555969,0.286560,-1.097561,4.024390,-8.109756
1548456696436,-0.786377,0.559448,0.287231,-1.097561,4.268293,-8.475610
1548456696444,-0.788818,0.569641,0.285950,-1.280488,4.329268,-8.658537
1548456696451,-0.789429,0.586914,0.291321,-1.158537,4.512195,-8.780488
1548456696466,-0.786072,0.603943,0.295227,-0.609756,4.695122,-8.902439
1548456696474,-0.782715,0.618469,0.298950,0.609756,4.573171,-8.841464
1548456696481,-0.780579,0.624084,0.298950,2.012195,4.329268,-8.536586
1548456696496,-0.782776,0.622681,0.303833,3.658537,4.024390,-8.109756
1548456696503,-0.788330,0.615479,0.310425,5.060976,3.780488,-7.621952
1548456696511,-0.796570,0.615479,0.318726,6.036585,3.414634,-7.256098
1548456696526,-0.803955,0.617004,0.318420,6.463415,2.926829,-6.768293
1548456696533,-0.806885,0.618286,0.322327,6.158537,2.378049,-6.036585
1548456696541,-0.804199,0.619324,0.321777,5.365854,2.073171,-5.426829
1548456696556,-0.794250,0.618774,0.325317,4.451220,2.012195,-4.634146
1548456696563,-0.786377,0.615784,0.325684,3.475610,1.768293,-3.963415
1548456696571,-0.787170,0.608582,0.317749,2.195122,1.341463,-3.292683
1548456696586,-0.790405,0.611267,0.318970,0.487805,0.792683,-2.439024
1548456696593,-0.789429,0.627380,0.319641,-2.012195,0.365854,-1.097561
1548456696608,-0.789734,0.634766,0.312256,-3.719512,0.487805,0.182927
1548456696616,-0.787964,0.624390,0.306458,-4.451220,0.792683,0.975610
1548456696623,-0.791504,0.608765,0.308472,-4.268293,0.670732,1.524390
1548456696631,-0.801208,0.588989,0.308472,-3.292683,0.243902,2.256098
1548456696646,-0.805542,0.573792,0.309509,-2.865854,-0.121951,3.170732
1548456696653,-0.803284,0.572083,0.308655,-3.414634,-0.365854,3.353659
1548456696661,-0.805542,0.576965,0.309387,-4.207317,-0.487805,2.987805
1548456696676,-0.805542,0.571228,0.307617,-4.146341,-0.853659,2.743902
1548456696683,-0.804810,0.559937,0.301941,-3.109756,-1.341463,2.743902
1548456696691,-0.802002,0.555908,0.299561,-1.768293,-1.463415,2.560976
1548456696706,-0.797852,0.554016,0.296387,-0.975610,-1.463415,2.256098
1548456696713,-0.797546,0.551636,0.291382,-0.426829,-1.585366,2.073171
1548456696721,-0.799866,0.547485,0.288757,-0.060976,-1.707317,2.012195
1548456696736,-0.803101,0.543762,0.289185,0.304878,-1.646341,1.585366
1548456696751,-0.803467,0.537842,0.293823,0.731707,-1.524390,1.097561
1548456696751,-0.802917,0.537537,0.292175,1.158537,-1.158537,0.548781
1548456696766,-0.799438,0.535583,0.291321,1.951220,-0.609756,-0.182927
1548456696773,-0.796326,0.528259,0.286072,3.292683,0.000000,-1.219512
1548456696781,-0.805664,0.517151,0.276367,4.207317,-0.060976,-2.195122
1548456696796,-0.817017,0.509583,0.275269,3.353659,-0.487805,-2.682927
1548456696803,-0.811462,0.517700,0.279297,1.036585,-0.182927,-2.378049
1548456696811,-0.795837,0.532776,0.276489,-1.097561,0.792683,-2.560976
1548456696826,-0.793396,0.547913,0.277466,-2.317073,1.219512,-3.475610
1548456696833,-0.800598,0.558105,0.280579,-2.621951,0.792683,-4.268293
1548456696841,-0.797729,0.568848,0.279236,-1.829268,0.792683,-4.512195
1548456696856,-0.789917,0.573792,0.279053,-0.365854,1.829268,-4.390244
1548456696871,-0.789673,0.572510,0.278870,1.036585,2.500000,-4.451220
1548456696871,-0.797302,0.566895,0.280518,1.951220,2.378049,-4.695122
1548456696886,-0.806702,0.567078,0.286682,2.439024,2.012195,-4.939024
1548456696893,-0.811157,0.571350,0.291199,2.621951,2.012195,-5.121951
1548456696901,-0.810425,0.577637,0.292114,2.682927,2.073171,-5.060976
1548456696916,-0.811096,0.579224,0.292847,2.804878,1.829268,-4.939024
1548456696923,-0.810547,0.583374,0.289917,2.682927,1.341463,-4.878049
1548456696931,-0.807617,0.583862,0.289490,2.378049,1.280488,-4.756098
1548456696946,-0.800049,0.580444,0.287842,1.890244,1.585366,-4.756098
1548456696953,-0.796631,0.577026,0.289368,1.463415,1.829268,-4.817073
1548456696961,-0.804565,0.568604,0.290466,1.097561,1.829268,-4.573171
1548456696976,-0.808899,0.563354,0.290405,0.304878,1.646341,-3.841464
1548456696983,-0.809509,0.560730,0.287842,-0.792683,1.829268,-3.109756
1548456696991,-0.808655,0.557678,0.287659,-2.073171,2.012195,-2.743902
1548456697006,-0.806763,0.563171,0.291138,-3.536585,1.829268,-2.865854
1548456697013,-0.810120,0.562500,0.288879,-4.085366,1.829268,-2.926829
1548456697021,-0.814758,0.554688,0.284729,-3.414634,2.134146,-2.987805
1548456697036,-0.816101,0.544678,0.283936,-2.256098,2.560976,-3.109756
1548456697043,-0.814514,0.536743,0.284485,-1.341463,2.743902,-3.292683
1548456697051,-0.814697,0.531677,0.287720,-0.792683,2.743902,-3.658537
1548456697066,-0.814575,0.530884,0.285278,-0.792683,2.500000,-4.207317
1548456697073,-0.816772,0.528259,0.286133,-0.853659,2.439024,-4.756098
1548456697081,-0.818054,0.523682,0.284363,-0.487805,2.560976,-5.000000
1548456697096,-0.820312,0.510620,0.279602,0.487805,2.865854,-5.426829
1548456697103,-0.827148,0.492249,0.276245,1.524390,3.048780,-6.036585
1548456697111,-0.835938,0.480042,0.276184,1.890244,2.987805,-6.951220
1548456697126,-0.839722,0.472107,0.272339,1.768293,3.170732,-7.804878
1548456697133,-0.839111,0.463684,0.266479,1.158537,3.597561,-8.841464
1548456697141,-0.841614,0.458740,0.260986,0.000000,4.268293,-9.939025
1548456697156,-0.843384,0.453857,0.258789,-1.097561,4.939024,-11.158537
1548456697163,-0.843079,0.462280,0.257629,-2.073171,5.609756,-12.256098
1548456697171,-0.839294,0.477234,0.254944,-2.804878,6.341464,-13.414635
1548456697193,-0.837891,0.488770,0.252014,-3.353659,7.012195,-14.390244
1548456697194,-0.834595,0.495789,0.249390,-3.170732,7.500000,-15.121951
1548456697201,-0.832214,0.508728,0.250854,-2.560976,7.987805,-15.853659
1548456697216,-0.826782,0.521240,0.253174,-1.707317,8.292683,-16.585365
1548456697223,-0.828247,0.527466,0.254822,-0.487805,8.414635,-17.073172
1548456697231,-0.834839,0.529297,0.257324,1.280488,8.414635,-17.378050
1548456697246,-0.842773,0.529053,0.256409,3.109756,8.353659,-17.682928
1548456697253,-0.850098,0.527588,0.259155,4.695122,8.414635,-17.926830
1548456697261,-0.855408,0.530945,0.263977,5.670732,8.414635,-18.231709
1548456697284,-0.860718,0.535278,0.262268,6.463415,8.170732,-18.658537
1548456697284,-0.862610,0.536621,0.259399,7.195122,7.865854,-18.841463
1548456697291,-0.862000,0.534424,0.259949,7.134147,7.804878,-18.841463
1548456697306,-0.858948,0.532349,0.257812,6.463415,7.987805,-18.597561
1548456697314,-0.860352,0.533325,0.258240,5.914634,8.231708,-18.475611
1548456697321,-0.859680,0.532532,0.255371,5.060976,8.231708,-18.048780
1548456697336,-0.861328,0.524658,0.252625,3.719512,8.475610,-17.500000
1548456697343,-0.858521,0.518494,0.252869,2.012195,8.658537,-17.012196
1548456697351,-0.858337,0.515320,0.254089,0.243902,8.780488,-16.463415
1548456697366,-0.870667,0.493774,0.254272,-1.768293,8.292683,-15.304878
1548456697373,-0.874634,0.495850,0.252136,-2.317073,8.170732,-15.121951
1548456697381,-0.874390,0.485962,0.247620,-3.292683,8.719512,-15.365854
1548456697396,-0.874390,0.481873,0.249573,-5.182927,9.390244,-15.243903
1548456697403,-0.876709,0.483704,0.245605,-6.097561,9.329268,-14.939025
1548456697411,-0.878052,0.482849,0.241211,-6.402439,9.024390,-14.939025
1548456697426,-0.876160,0.479065,0.239563,-6.402439,9.207317,-14.817074
1548456697433,-0.877808,0.468689,0.237976,-5.853659,9.390244,-14.695123
1548456697441,-0.879883,0.458801,0.239319,-4.817073,9.451220,-14.878049
1548456697456,-0.880127,0.452881,0.239197,-3.597561,9.207317,-15.304878
1548456697463,-0.893005,0.430725,0.239746,-2.682927,8.658537,-15.365854
1548456697471,-0.900330,0.428772,0.241760,-1.463415,7.987805,-15.670732
1548456697486,-0.900452,0.434326,0.237671,-0.365854,8.597561,-17.012196
1548456697493,-0.895081,0.441650,0.237122,-0.182927,8.841464,-17.621952
1548456697501,-0.892822,0.444946,0.236511,0.243902,8.841464,-17.500000
1548456697516,-0.892029,0.439514,0.235107,1.036585,8.658537,-17.682928
1548456697523,-0.901917,0.423950,0.235962,1.524390,8.292683,-17.865854
1548456697531,-0.904419,0.421082,0.239380,2.500000,8.597561,-18.963415
1548456697546,-0.904480,0.421021,0.234436,2.804878,9.085366,-19.939024
1548456697553,-0.910828,0.417053,0.228760,2.317073,9.207317,-20.304878
1548456697561,-0.917236,0.417542,0.231018,1.890244,8.719512,-20.304878
1548456697576,-0.916138,0.423401,0.226440,1.951220,9.207317,-21.036587
1548456697583,-0.910950,0.421814,0.221497,1.341463,9.634147,-21.463415
1548456697591,-0.912170,0.420349,0.222656,0.670732,10.060976,-21.585367
1548456697606,-0.915771,0.416199,0.219177,0.304878,10.121951,-21.707317
1548456697613,-0.918091,0.408752,0.216919,0.243902,10.060976,-22.256098
1548456697621,-0.921936,0.409363,0.216553,0.121951,10.121951,-22.682928
1548456697636,-0.925964,0.414185,0.212952,0.121951,10.365854,-22.682928
1548456697643,-0.928284,0.419922,0.207642,0.060976,10.365854,-22.560976
1548456697651,-0.927979,0.420959,0.211548,-0.182927,10.487805,-22.560976
1548456697666,-0.924683,0.428467,0.208801,-0.121951,10.548780,-22.500000
1548456697673,-0.925049,0.428406,0.205505,0.121951,10.304878,-22.439024
1548456697681,-0.927124,0.419250,0.207581,0.548781,10.121951,-22.134148
1548456697696,-0.929932,0.411377,0.208252,1.280488,9.939025,-21.951220
1548456697703,-0.934448,0.413208,0.210571,1.707317,9.695122,-22.012196
1548456697711,-0.937012,0.419250,0.209045,1.890244,9.512196,-22.012196
1548456697726,-0.938843,0.417664,0.201843,2.134146,9.268292,-21.524391
1548456697733,-0.940552,0.413452,0.199585,2.073171,8.658537,-20.548780
1548456697741,-0.937805,0.414124,0.197571,2.134146,8.780488,-20.487804
1548456697756,-0.933716,0.412781,0.192322,1.829268,9.024390,-20.426830
1548456697763,-0.934875,0.417419,0.192810,1.463415,8.963415,-19.756098
1548456697771,-0.938965,0.416931,0.192200,1.280488,8.658537,-19.024391
1548456697786,-0.940247,0.405151,0.190796,1.280488,8.536586,-18.353659
1548456697793,-0.941956,0.391235,0.186646,1.158537,8.414635,-17.682928
1548456697801,-0.946838,0.379700,0.187012,0.670732,8.414635,-17.317074
1548456697816,-0.952026,0.373291,0.191162,0.365854,8.231708,-16.951220
1548456697823,-0.951294,0.374573,0.190918,-0.243902,8.048780,-16.585365
1548456697831,-0.959290,0.365723,0.190430,-0.975610,7.560976,-15.975610
1548456697846,-0.961853,0.357971,0.187195,-1.402439,7.073171,-15.426829
1548456697853,-0.959839,0.348633,0.181580,-1.463415,7.621952,-15.487805
1548456697861,-0.955505,0.343384,0.180847,-2.256098,8.048780,-15.487805
1548456697876,-0.959534,0.336792,0.176758,-3.048780,8.109756,-15.243903
1548456697883,-0.967834,0.329346,0.175476,-3.292683,7.926829,-15.060976
1548456697891,-0.968506,0.317444,0.171631,-3.109756,8.048780,-15.182927
1548456697906,-0.971436,0.304138,0.165161,-3.109756,8.170732,-15.731708
1548456697913,-0.974182,0.298584,0.161682,-2.743902,8.109756,-16.463415
1548456697921,-0.974854,0.296387,0.160889,-2.317073,8.109756,-17.134148
1548456697936,-0.980347,0.286255,0.160095,-1.951220,7.865854,-17.987804
1548456697943,-0.981628,0.282593,0.157043,-1.402439,7.926829,-18.902439
1548456697951,-0.980896,0.277588,0.153198,-1.219512,8.292683,-19.573172
1548456697966,-0.978516,0.276428,0.150574,-1.341463,8.719512,-20.426830
1548456697973,-0.977844,0.282898,0.149963,-0.914634,9.024390,-21.097561
1548456697981,-0.976868,0.284424,0.147644,-0.182927,9.268292,-21.585367
1548456698033,-0.977844,0.282410,0.146790,0.365854,9.512196,-22.378050
1548456698034,-0.976685,0.284729,0.144226,1.219512,9.695122,-22.987806
1548456698034,-0.978210,0.286072,0.138977,1.951220,9.878049,-23.475611
1548456698034,-0.982117,0.286621,0.138916,2.500000,10.121951,-23.841463
1548456698034,-0.988953,0.286438,0.142273,3.353659,10.243902,-24.085367
1548456698042,-0.991211,0.290771,0.139893,4.329268,10.121951,-24.451220
1548456698056,-0.992615,0.290710,0.140686,4.756098,10.182927,-24.573172
1548456698064,-0.994324,0.292969,0.143860,4.939024,10.304878,-24.329269
1548456698072,-0.999268,0.299561,0.142334,5.060976,10.243902,-24.268293
1548456698086,-1.004517,0.303894,0.138611,5.182927,10.182927,-24.390244
1548456698093,-1.006165,0.303162,0.139343,5.365854,10.121951,-24.268293
1548456698102,-1.000549,0.300781,0.139343,5.609756,9.878049,-23.658537
1548456698116,-0.993713,0.296326,0.141235,5.365854,9.695122,-22.682928
1548456698123,-0.990234,0.295532,0.143433,4.695122,9.573171,-21.829269
1548456698131,-0.986877,0.302124,0.147766,3.536585,9.268292,-21.219513
1548456698146,-0.987976,0.304993,0.149536,2.560976,8.963415,-20.487804
1548456698153,-0.987976,0.306030,0.150330,2.073171,8.536586,-19.573172
1548456698161,-0.984070,0.303223,0.148438,1.707317,8.170732,-18.353659
1548456698176,-0.986450,0.301208,0.149902,1.158537,7.804878,-17.317074
1548456698183,-0.986633,0.296509,0.147156,0.792683,7.378049,-16.341463
1548456698191,-0.989014,0.289551,0.145569,0.365854,7.317073,-15.304878
1548456698206,-0.990051,0.286255,0.145813,-0.487805,7.073171,-14.329268
1548456698213,-0.992981,0.286255,0.149841,-1.280488,6.524390,-13.292684
1548456698221,-0.996094,0.286865,0.149231,-1.707317,6.158537,-12.317074
1548456698237,-0.998047,0.281494,0.148315,-1.768293,5.670732,-11.402439
1548456698244,-0.996033,0.273010,0.148560,-1.768293,5.487805,-10.426829
1548456698253,-0.995422,0.267639,0.144714,-1.707317,5.121951,-9.329268
1548456698266,-0.995605,0.263733,0.145020,-1.646341,4.695122,-8.414635
1548456698274,-0.994873,0.257019,0.146912,-1.768293,3.902439,-7.682927
1548456698285,-0.998474,0.252319,0.144897,-1.890244,3.231707,-7.012195
1548456698296,-1.000305,0.249512,0.142517,-1.951220,2.804878,-6.402439
1548456698303,-1.000000,0.242432,0.135315,-1.890244,2.500000,-5.731708
1548456698326,-1.001465,0.234253,0.132446,-1.768293,2.256098,-5.121951
1548456698326,-1.003906,0.226562,0.126282,-1.829268,2.012195,-4.756098
1548456698333,-1.004700,0.222961,0.120239,-2.073171,1.646341,-4.573171
1548456698341,-1.007507,0.219360,0.118408,-2.073171,1.524390,-4.268293
1548456698356,-1.007874,0.215332,0.115479,-2.195122,1.402439,-4.146341
1548456698363,-1.006836,0.210510,0.114197,-2.073171,1.280488,-3.963415
1548456698371,-1.006348,0.206238,0.110413,-1.646341,1.341463,-3.902439
1548456698386,-1.006653,0.203552,0.104858,-1.341463,1.219512,-3.902439
1548456698394,-1.010437,0.201355,0.104370,-1.219512,1.341463,-3.963415
1548456698401,-1.010986,0.198059,0.103027,-1.158537,1.646341,-4.146341
1548456698416,-1.010925,0.196899,0.100647,-1.097561,1.707317,-4.268293
1548456698423,-1.009338,0.194214,0.098694,-1.219512,1.829268,-4.390244
1548456698431,-1.010620,0.192810,0.095703,-0.975610,1.707317,-4.878049
1548456698446,-1.010315,0.191345,0.091064,-0.975610,1.829268,-5.304878
1548456698454,-1.012085,0.191162,0.090698,-1.036585,2.012195,-5.487805
1548456698461,-1.015442,0.193237,0.086731,-1.036585,2.256098,-5.609756
1548456698476,-1.013794,0.196350,0.086731,-0.914634,2.378049,-5.914634
1548456698484,-1.013245,0.197754,0.085938,-0.670732,2.560976,-6.280488
1548456698491,-1.011841,0.196228,0.087097,-0.182927,2.621951,-6.402439
1548456698513,-1.011353,0.192017,0.089417,0.365854,2.743902,-6.524390
1548456698514,-1.011963,0.191284,0.086975,0.731707,2.865854,-6.707317
1548456698521,-1.013550,0.191711,0.087769,0.914634,2.987805,-6.890244
1548456698536,-1.018066,0.194580,0.088501,0.914634,3.109756,-7.073171
1548456698544,-1.014893,0.197021,0.089661,0.853659,3.109756,-7.195122
1548456698552,-1.014282,0.197083,0.091248,0.975610,3.292683,-7.195122
1548456698567,-1.014832,0.194031,0.091492,1.036585,3.536585,-7.195122
1548456698574,-1.015564,0.196716,0.095337,1.158537,3.597561,-7.134147
1548456698581,-1.014587,0.196533,0.095276,1.219512,3.475610,-7.134147
1548456698597,-1.012878,0.195190,0.095032,1.219512,3.475610,-7.256098
1548456698604,-1.010010,0.194214,0.098633,1.036585,3.292683,-7.256098
1548456698612,-1.011597,0.197632,0.102417,0.792683,3.170732,-7.317073
1548456698626,-1.012207,0.198181,0.098572,0.670732,3.109756,-7.256098
1548456698634,-1.013672,0.199097,0.098328,0.487805,3.048780,-7.073171
1548456698641,-1.013123,0.201416,0.099426,0.182927,2.987805,-6.951220
1548456698656,-1.011536,0.202637,0.101562,0.060976,3.048780,-6.707317
1548456698664,-1.012878,0.204041,0.102600,0.060976,2.865854,-6.219512
1548456698671,-1.012024,0.202026,0.108032,0.243902,2.743902,-5.853659
1548456698686,-1.014404,0.200195,0.106750,0.426829,2.500000,-5.487805
1548456698693,-1.014954,0.196167,0.109619,0.609756,2.378049,-5.121951
1548456698701,-1.014038,0.198608,0.115051,0.548781,2.195122,-4.634146
1548456698716,-1.015198,0.200195,0.117432,0.609756,1.829268,-4.146341
1548456698723,-1.013916,0.199402,0.114685,0.609756,1.280488,-3.780488
1548456698731,-1.014221,0.196838,0.114807,0.487805,0.975610,-3.292683
1548456698747,-1.011841,0.197693,0.113770,0.243902,0.914634,-2.621951
1548456698754,-1.011292,0.198364,0.108887,0.060976,0.792683,-2.134146
1548456698761,-1.011475,0.196716,0.110718,0.000000,0.365854,-1.829268
1548456698776,-1.011230,0.192505,0.108215,-0.060976,-0.060976,-1.524390
1548456698784,-1.013306,0.191040,0.106689,0.060976,-0.182927,-1.097561
1548456698791,-1.012024,0.189575,0.103638,0.000000,-0.365854,-0.731707
1548456698806,-1.013733,0.188843,0.105286,-0.243902,-0.609756,-0.365854
1548456698814,-1.015808,0.186523,0.102722,-0.365854,-0.914634,0.060976
1548456698821,-1.015564,0.185669,0.101013,-0.365854,-1.036585,0.304878
1548456698836,-1.016113,0.185852,0.099365,-0.365854,-1.097561,0.487805
1548456698844,-1.015564,0.183105,0.095581,-0.304878,-1.158537,0.792683
1548456698851,-1.018005,0.181335,0.093445,-0.182927,-1.219512,0.975610
1548456698867,-1.015564,0.179626,0.092163,-0.487805,-1.280488,1.097561
1548456698874,-1.016296,0.180115,0.092407,-0.548781,-1.341463,1.402439
1548456698881,-1.018066,0.180481,0.090576,-0.609756,-1.524390,1.463415
1548456698896,-1.016785,0.179382,0.086670,-0.548781,-1.646341,1.463415
1548456698904,-1.016418,0.177429,0.084717,-0.365854,-1.707317,1.768293
1548456698912,-1.013977,0.176086,0.085205,-0.060976,-1.585366,1.829268
1548456698926,-1.011597,0.176514,0.085632,0.060976,-1.646341,1.768293
1548456698934,-1.015076,0.174927,0.086670,0.121951,-1.585366,1.951220
1548456698941,-1.018799,0.174316,0.082031,0.060976,-1.707317,2.073171
1548456698957,-1.021057,0.174622,0.080139,0.000000,-1.707317,2.073171
1548456698964,-1.019226,0.173767,0.079529,-0.243902,-1.585366,2.012195
1548456698972,-1.019775,0.174500,0.081543,-0.426829,-1.463415,2.134146
1548456699005,-1.018616,0.172485,0.082886,-0.548781,-1.280488,2.134146
1548456699006,-1.016724,0.173706,0.087158,-0.487805,-1.158537,2.012195
1548456699007,-1.015747,0.176819,0.085632,-0.487805,-1.158537,1.951220
1548456699026,-1.016907,0.176697,0.085205,-0.426829,-1.097561,1.768293
1548456699027,-1.016968,0.174500,0.091370,-0.365854,-1.158537,1.646341
1548456699032,-1.016724,0.175415,0.091858,-0.182927,-1.097561,1.524390
1548456699048,-1.016602,0.175293,0.091614,0.060976,-1.097561,1.280488
1548456699053,-1.019043,0.172607,0.091980,0.060976,-0.975610,1.036585
1548456699061,-1.018372,0.171570,0.091309,0.121951,-0.914634,0.975610
1548456699076,-1.017029,0.174988,0.092651,-0.060976,-0.914634,1.036585
1548456699087,-1.016602,0.172791,0.095398,-0.121951,-0.975610,0.914634
1548456699091,-1.015564,0.171387,0.095093,0.000000,-1.036585,0.670732
1548456699106,-1.017334,0.173645,0.094971,0.000000,-1.036585,0.670732
1548456699113,-1.018066,0.177856,0.097107,0.000000,-0.975610,0.609756
1548456699121,-1.020203,0.178162,0.097595,0.060976,-0.914634,0.670732
1548456699136,-1.019043,0.178101,0.098206,0.365854,-1.036585,0.548781
1548456699143,-1.019043,0.181030,0.097290,0.487805,-0.975610,0.365854
1548456699151,-1.015015,0.180725,0.098206,0.365854,-0.975610,0.182927
1548456699166,-1.015503,0.181946,0.101013,0.243902,-1.158537,0.365854
1548456699173,-1.017273,0.179871,0.099548,0.304878,-1.280488,0.304878
1548456699181,-1.015015,0.182434,0.098328,0.243902,-1.341463,0.304878
1548456699196,-1.013489,0.185486,0.098083,0.182927,-1.280488,0.365854
1548456699203,-1.014038,0.185181,0.099304,0.182927,-1.402439,0.365854
1548456699211,-1.013794,0.185547,0.098572,0.365854,-1.463415,0.548781
1548456699226,-1.013611,0.184814,0.097961,0.426829,-1.402439,0.731707
1548456699233,-1.012634,0.187195,0.096436,0.426829,-1.219512,0.853659
1548456699241,-1.012024,0.189209,0.096375,0.426829,-1.341463,1.036585
1548456699256,-1.015442,0.188416,0.096802,0.548781,-1.463415,1.158537
1548456699263,-1.014771,0.186646,0.097168,0.670732,-1.463415,1.219512
1548456699271,-1.017456,0.185242,0.097351,0.853659,-1.341463,1.341463
1548456699286,-1.017761,0.186951,0.098022,0.792683,-1.341463,1.524390
1548456699293,-1.018555,0.190063,0.094360,0.731707,-1.463415,1.585366
1548456699301,-1.020325,0.192078,0.093079,0.609756,-1.524390,1.768293
1548456699316,-1.018005,0.192017,0.093201,0.182927,-1.524390,1.768293
1548456699323,-1.017029,0.191223,0.096252,0.121951,-1.646341,2.012195
1548456699331,-1.013123,0.190186,0.097595,0.182927,-1.646341,2.134146
1548456699347,-1.012817,0.191101,0.095764,0.182927,-1.707317,2.134146
1548456699354,-1.011047,0.192078,0.095459,0.426829,-1.829268,2.256098
1548456699362,-1.010986,0.188660,0.098877,0.548781,-1.890244,2.378049
1548456699376,-1.011108,0.187073,0.097595,0.548781,-2.073171,2.378049
1548456699384,-1.012146,0.186768,0.097595,0.548781,-2.134146,2.500000
1548456699392,-1.013000,0.188171,0.096802,0.487805,-1.951220,2.621951
1548456699407,-1.014343,0.188904,0.096252,0.243902,-1.890244,2.621951
1548456699414,-1.016357,0.187622,0.095154,0.060976,-1.768293,2.804878
1548456699421,-1.016052,0.187988,0.096680,0.060976,-1.768293,2.865854
1548456699437,-1.014648,0.187988,0.095642,0.000000,-1.768293,2.987805
1548456699444,-1.013611,0.185730,0.096741,0.121951,-1.646341,2.987805
1548456699451,-1.015686,0.184021,0.098877,0.182927,-1.646341,2.926829
1548456699466,-1.015320,0.185486,0.099792,0.243902,-1.707317,2.865854
1548456699474,-1.014587,0.186584,0.097717,0.182927,-1.646341,2.804878
1548456699482,-1.012634,0.182739,0.097229,0.060976,-1.585366,2.865854
1548456699496,-1.014771,0.181763,0.098633,0.060976,-1.646341,2.743902
1548456699505,-1.014526,0.185242,0.096863,0.000000,-1.646341,2.560976
1548456699511,-1.015747,0.186462,0.098267,-0.121951,-1.646341,2.317073
1548456699527,-1.016724,0.188416,0.100403,0.060976,-1.768293,2.134146
1548456699534,-1.015991,0.185303,0.098206,0.304878,-1.707317,2.073171
1548456699541,-1.014099,0.183594,0.096130,0.426829,-1.768293,1.951220
1548456699557,-1.014038,0.182251,0.096924,0.609756,-1.646341,1.829268
1548456699564,-1.013916,0.182068,0.097656,0.670732,-1.585366,1.646341
1548456699571,-1.014465,0.181091,0.100342,0.487805,-1.585366,1.585366
1548456699586,-1.016418,0.182678,0.098572,0.487805,-1.646341,1.524390
1548456699594,-1.017883,0.182007,0.097412,0.548781,-1.585366,1.341463
1548456699601,-1.013672,0.184814,0.096985,0.365854,-1.402439,1.036585
1548456699616,-1.011230,0.187561,0.096619,0.304878,-1.402439,0.975610
1548456699624,-1.010742,0.189880,0.095886,0.426829,-1.341463,0.914634
1548456699632,-1.009644,0.189819,0.094055,0.426829,-1.341463,0.670732
1548456699646,-1.011658,0.190613,0.093567,0.609756,-1.219512,0.548781
1548456699654,-1.012268,0.190430,0.097168,0.731707,-0.914634,0.487805
1548456699661,-1.012207,0.191772,0.098328,0.853659,-0.792683,0.487805
1548456699676,-1.013123,0.192200,0.099792,1.097561,-0.792683,0.487805
1548456699684,-1.015930,0.191406,0.098694,1.219512,-0.792683,0.487805
1548456699692,-1.015991,0.190186,0.100464,1.097561,-0.792683,0.548781
1548456699706,-1.015808,0.191711,0.098938,0.975610,-0.792683,0.609756
1548456699714,-1.014648,0.194885,0.097961,0.853659,-0.792683,0.609756
1548456699721,-1.014893,0.197449,0.099976,0.426829,-0.731707,0.609756
1548456699737,-1.014038,0.196899,0.100403,0.365854,-0.792683,0.731707
1548456699744,-1.011841,0.198608,0.099915,0.487805,-0.792683,0.792683
1548456699751,-1.010803,0.199402,0.099854,0.426829,-0.853659,0.792683
1548456699766,-1.009827,0.198242,0.103394,0.365854,-0.853659,0.792683
1548456699774,-1.009827,0.199524,0.105774,0.731707,-0.975610,1.036585
1548456699782,-1.013184,0.201782,0.106018,0.853659,-0.914634,1.097561
1548456699796,-1.012451,0.205200,0.103210,0.731707,-0.914634,1.219512
1548456699804,-1.010010,0.202820,0.106934,0.914634,-0.975610,1.341463
1548456699812,-1.009888,0.199646,0.112366,1.097561,-1.158537,1.463415
1548456699826,-1.006775,0.200012,0.110352,1.097561,-1.219512,1.585366
1548456699835,-1.006958,0.203308,0.109985,1.097561,-1.219512,1.707317
1548456699841,-1.008850,0.205566,0.108948,1.097561,-1.463415,1.829268
1548456699856,-1.011719,0.208069,0.114258,0.975610,-1.585366,1.951220
1548456699864,-1.012634,0.209961,0.110107,0.914634,-1.646341,2.134146
1548456699879,-1.012695,0.212219,0.106384,0.609756,-1.524390,2.256098
1548456699886,-1.011230,0.212402,0.107117,0.548781,-1.402439,2.500000
1548456699901,-1.008057,0.215332,0.108093,0.548781,-1.585366,2.804878
1548456699902,-1.007385,0.213745,0.107300,0.853659,-1.829268,2.926829
1548456699916,-1.007385,0.212891,0.110107,0.914634,-1.951220,3.109756
1548456699924,-1.008057,0.213379,0.111694,0.975610,-2.012195,3.536585
1548456699931,-1.012329,0.210388,0.109924,0.914634,-2.195122,3.841464
1548456699947,-1.013306,0.211548,0.110535,0.487805,-2.439024,4.085366
1548456699954,-1.012207,0.214722,0.108337,0.243902,-2.500000,4.329268
1548456699962,-1.012024,0.215210,0.106995,0.060976,-2.560976,4.573171
1548456699976,-1.011169,0.215942,0.109192,-0.121951,-2.621951,4.695122
1548456699984,-1.010925,0.214050,0.106018,-0.060976,-2.804878,4.939024
1548456699991,-1.009216,0.214478,0.104675,0.060976,-2.987805,5.060976
1548456700006,-1.009460,0.214233,0.103638,0.060976,-2.926829,5.243903
1548456700014,-1.009094,0.210510,0.104919,0.060976,-2.865854,5.426829
1548456700021,-1.009888,0.207458,0.108032,0.243902,-2.865854,5.731708
1548456700036,-1.010681,0.206604,0.108215,0.304878,-2.926829,5.792683
1548456700044,-1.011230,0.205139,0.108948,0.243902,-2.987805,5.731708
1548456700051,-1.009033,0.208252,0.107483,0.060976,-3.170732,5.670732
1548456700066,-1.005127,0.208008,0.105469,-0.121951,-3.048780,5.731708
1548456700074,-1.005798,0.207703,0.106506,-0.487805,-3.048780,5.731708
1548456700089,-1.007874,0.207092,0.107666,-0.487805,-3.109756,5.792683
1548456700097,-1.010315,0.208130,0.105286,-0.426829,-3.048780,5.670732
1548456700104,-1.009460,0.206848,0.100586,-0.365854,-2.926829,5.426829
1548456700111,-1.007629,0.204163,0.102478,-0.426829,-2.743902,5.304878
1548456700127,-1.006409,0.203186,0.103943,-0.121951,-2.682927,5.121951
1548456700134,-1.009094,0.203613,0.105408,0.060976,-2.560976,4.817073
1548456700142,-1.009888,0.203430,0.104492,-0.121951,-2.378049,4.573171
1548456700157,-1.008728,0.204834,0.104492,-0.304878,-2.134146,4.390244
1548456700164,-1.007751,0.207275,0.102417,-0.487805,-1.890244,4.329268
1548456700172,-1.007751,0.211182,0.103638,-0.609756,-1.768293,4.146341
1548456700187,-1.007019,0.211426,0.106506,-0.548781,-1.646341,4.024390
1548456700194,-1.008667,0.214233,0.108704,-0.121951,-1.585366,3.902439
1548456700201,-1.004883,0.217896,0.110107,0.426829,-1.524390,3.719512
1548456700216,-1.003479,0.217712,0.113708,0.792683,-1.585366,3.536585
1548456700224,-1.003540,0.219055,0.114441,1.280488,-1.585366,3.414634
1548456700231,-1.006348,0.220337,0.117432,1.524390,-1.646341,3.109756
1548456700254,-1.008057,0.223267,0.120117,1.402439,-1.829268,3.109756
1548456700254,-1.005310,0.224670,0.119019,1.524390,-1.829268,3.109756
1548456700261,-1.004150,0.227051,0.119812,1.646341,-1.890244,3.170732
1548456700277,-1.003845,0.232056,0.122437,1.524390,-1.951220,3.170732
1548456700284,-1.003113,0.235779,0.121338,1.402439,-2.012195,3.292683
1548456700291,-1.001343,0.236572,0.123230,1.402439,-2.134146,3.597561
1548456700307,-1.001587,0.237549,0.124634,1.341463,-2.256098,3.719512
1548456700314,-1.001587,0.241394,0.126831,1.402439,-2.500000,3.841464
1548456700321,-1.004333,0.245911,0.129272,1.463415,-2.682927,4.024390
1548456700336,-1.004211,0.247925,0.128052,1.158537,-2.743902,4.207317
1548456700346,-1.000427,0.247437,0.125916,0.914634,-2.926829,4.512195
1548456700351,-0.999634,0.248962,0.125366,0.792683,-3.109756,4.817073
1548456700375,-0.996704,0.250488,0.126343,0.853659,-3.353659,5.182927
1548456700375,-0.995178,0.248291,0.129700,0.792683,-3.536585,5.487805
1548456700381,-0.995239,0.250427,0.126587,0.853659,-3.597561,5.670732
1548456700397,-0.998108,0.251831,0.126831,0.670732,-3.780488,6.097561
1548456700404,-0.997864,0.253052,0.126343,0.365854,-3.902439,6.524390
1548456700411,-0.996521,0.256348,0.129211,0.060976,-4.024390,6.951220
1548456700427,-0.996521,0.258789,0.128845,-0.121951,-4.207317,7.317073
1548456700434,-0.995239,0.258789,0.126465,-0.182927,-4.573171,7.682927
1548456700441,-0.997314,0.258545,0.127625,-0.060976,-4.573171,7.987805
1548456700456,-0.995911,0.258850,0.129272,0.000000,-4.634146,8.170732
1548456700464,-0.995239,0.262756,0.131104,0.000000,-4.817073,8.475610
1548456700472,-0.996948,0.263916,0.131409,0.121951,-5.121951,8.780488
1548456700486,-0.995483,0.260803,0.132141,0.243902,-5.304878,9.024390
1548456700494,-0.994202,0.262756,0.133728,0.060976,-5.243903,9.329268
1548456700501,-0.994324,0.267456,0.133606,-0.060976,-5.304878,9.756098
1548456700516,-0.992065,0.271667,0.134216,-0.060976,-5.365854,10.000000
1548456700524,-0.990356,0.273743,0.135559,0.060976,-5.670732,10.243902
1548456700533,-0.989990,0.280884,0.138306,0.182927,-5.853659,10.609756
1548456700546,-0.988403,0.282410,0.139771,0.304878,-6.036585,10.914635
1548456700554,-0.987122,0.282959,0.141357,0.548781,-6.158537,11.402439
1548456700562,-0.988525,0.283386,0.144958,0.914634,-6.341464,11.951220
1548456700576,-0.992310,0.284668,0.146118,1.280488,-6.646342,12.256098
1548456700585,-0.992126,0.285278,0.146606,1.280488,-6.890244,12.500000
1548456700591,-0.990723,0.286499,0.147400,0.975610,-7.195122,12.682927
1548456700607,-0.987549,0.288940,0.146667,0.731707,-7.439024,13.109756
1548456700614,-0.987122,0.294861,0.148987,0.243902,-7.500000,13.658537
1548456700621,-0.986572,0.300415,0.149109,-0.182927,-7.621952,14.207317
1548456700636,-0.985962,0.302124,0.150085,-0.365854,-7.743903,14.756098
1548456700644,-0.986206,0.306152,0.151550,-0.365854,-8.048780,15.182927
1548456700651,-0.986694,0.310181,0.154236,-0.304878,-8.170732,15.487805
1548456700666,-0.984558,0.310303,0.155701,0.060976,-8.414635,15.914635
1548456700674,-0.983643,0.309021,0.157532,0.426829,-8.719512,16.402439
1548456700681,-0.981934,0.305908,0.157227,0.426829,-8.841464,16.829269
1548456700696,-0.982422,0.307007,0.159912,0.121951,-8.841464,17.195122
1548456700704,-0.982910,0.310913,0.162659,-0.426829,-9.085366,17.560976
1548456700712,-0.982605,0.316650,0.162354,-0.792683,-9.451220,17.804878
1548456700726,-0.985352,0.319214,0.163391,-0.975610,-9.695122,18.231709
1548456700734,-0.980164,0.318970,0.165222,-1.097561,-9.756098,18.536585
1548456700741,-0.977600,0.323425,0.166199,-1.158537,-9.756098,18.902439
1548456700757,-0.977844,0.326599,0.162720,-1.097561,-10.000000,19.146341
1548456700764,-0.973267,0.323975,0.163940,-0.914634,-10.060976,19.329269
1548456700772,-0.973206,0.324463,0.165649,-0.853659,-10.121951,19.573172
1548456700786,-0.972656,0.323242,0.166321,-0.670732,-10.304878,19.756098
1548456700794,-0.970459,0.322632,0.167297,-0.670732,-10.487805,19.695122
1548456700801,-0.970642,0.325256,0.169006,-0.975610,-10.548780,19.878050
1548456700817,-0.969727,0.325378,0.166016,-1.219512,-10.609756,19.939024
1548456700824,-0.970581,0.328064,0.164795,-1.524390,-10.365854,20.000000
1548456700832,-0.970642,0.330933,0.163391,-1.951220,-10.365854,19.756098
1548456700847,-0.965759,0.334717,0.165588,-2.134146,-10.121951,19.573172
1548456700854,-0.963867,0.333435,0.167053,-2.073171,-9.878049,19.451220
1548456700869,-0.961914,0.329895,0.166016,-1.646341,-9.756098,19.329269
1548456700878,-0.962708,0.327942,0.168335,-1.463415,-9.634147,19.146341
1548456700884,-0.960815,0.325012,0.169128,-1.280488,-9.390244,18.902439
1548456700891,-0.960022,0.322266,0.171082,-1.158537,-9.146341,18.536585
1548456700908,-0.959839,0.325562,0.173035,-1.219512,-9.085366,18.170732
1548456700914,-0.960327,0.335205,0.173218,-1.341463,-8.963415,17.621952
1548456700922,-0.958191,0.340271,0.175049,-1.341463,-8.902439,17.012196
1548456700937,-0.953369,0.339844,0.175537,-1.097561,-8.536586,16.585365
1548456700944,-0.950989,0.342407,0.177429,-0.365854,-8.292683,16.341463
1548456700951,-0.951172,0.350769,0.178040,0.487805,-8.109756,15.670732
1548456700966,-0.949036,0.354858,0.178955,1.280488,-8.109756,15.000000
1548456700975,-0.946106,0.357727,0.182129,1.890244,-7.926829,14.695123
1548456700981,-0.944824,0.361267,0.181763,2.682927,-7.682927,14.451220
1548456700997,-0.945679,0.361877,0.186584,3.353659,-7.682927,14.024390
1548456701004,-0.944946,0.362000,0.190735,3.658537,-7.743903,13.658537
1548456701011,-0.941711,0.370544,0.192871,3.963415,-7.804878,13.353659
1548456701026,-0.938110,0.377930,0.196838,3.902439,-7.621952,13.048780
1548456701034,-0.935913,0.385437,0.201904,3.597561,-7.560976,12.865854
1548456701073,-0.934326,0.392639,0.201538,3.292683,-7.500000,12.987805
1548456701073,-0.929199,0.405640,0.204041,3.109756,-7.500000,13.170732
1548456701075,-0.926514,0.417786,0.206177,2.987805,-7.500000,13.292684
1548456701075,-0.925232,0.425049,0.211243,2.682927,-7.682927,13.536586
1548456701087,-0.924377,0.431702,0.214050,2.682927,-7.926829,13.902439
1548456701094,-0.922424,0.437195,0.216980,2.743902,-8.170732,14.512196
1548456701101,-0.922791,0.440002,0.222656,3.048780,-8.292683,15.182927
1548456701116,-0.920532,0.447937,0.228455,3.048780,-8.719512,15.670732
1548456701123,-0.919067,0.453247,0.230530,2.987805,-9.085366,16.219513
1548456701131,-0.920044,0.456116,0.235291,2.926829,-9.512196,16.890244
1548456701146,-0.919312,0.459167,0.237671,2.621951,-9.878049,17.621952
1548456701153,-0.919922,0.455627,0.246826,2.317073,-10.060976,18.292683
1548456701161,-0.919678,0.455872,0.245605,1.768293,-10.182927,19.085367
1548456701176,-0.917419,0.466003,0.240906,1.341463,-10.243902,19.695122
1548456701183,-0.913452,0.471375,0.239136,0.975610,-10.609756,20.243902
1548456701191,-0.909119,0.470093,0.241089,0.853659,-11.036586,20.914635
1548456701206,-0.905212,0.468262,0.245178,0.792683,-11.524390,21.585367
1548456701213,-0.906921,0.461365,0.247742,0.548781,-12.134147,22.500000
1548456701221,-0.908081,0.460815,0.245483,-0.060976,-12.560976,23.231709
1548456701236,-0.908630,0.465637,0.240356,-0.670732,-12.865854,23.597561
1548456701243,-0.907593,0.464905,0.239624,-1.341463,-13.109756,23.902439
1548456701251,-0.908813,0.464111,0.240356,-1.890244,-13.292684,24.512196
1548456701266,-0.905640,0.462524,0.238159,-2.073171,-13.475610,24.939026
1548456701274,-0.902527,0.462708,0.234558,-2.195122,-13.414635,25.182928
1548456701282,-0.898926,0.454346,0.232117,-2.560976,-13.109756,25.304878
1548456701297,-0.897766,0.446777,0.234619,-2.743902,-13.048780,25.304878
1548456701304,-0.897339,0.448853,0.235046,-2.682927,-12.926829,25.182928
1548456701311,-0.893494,0.452759,0.234131,-2.682927,-12.804878,24.878050
1548456701326,-0.888916,0.452637,0.233276,-2.500000,-12.743903,24.512196
1548456701334,-0.885559,0.448059,0.232727,-1.951220,-12.682927,24.207317
1548456701342,-0.883850,0.447693,0.234070,-1.463415,-12.804878,23.780489
1548456701356,-0.881104,0.453308,0.236755,-0.914634,-12.743903,23.170732
1548456701364,-0.878052,0.460144,0.238464,-0.243902,-12.621951,22.560976
1548456701372,-0.875244,0.462463,0.236450,0.548781,-12.439025,21.890244
1548456701386,-0.876831,0.460449,0.234558,1.341463,-12.317074,21.219513
1548456701394,-0.877686,0.460754,0.235352,1.890244,-12.012196,20.792683
1548456701401,-0.876526,0.464233,0.237305,2.378049,-11.463415,20.243902
1548456701416,-0.872925,0.471313,0.240295,2.804878,-11.097561,19.634148
1548456701424,-0.873108,0.471863,0.242920,3.475610,-10.914635,19.085367
1548456701432,-0.869141,0.470886,0.243896,3.841464,-10.853659,18.353659
1548456701446,-0.864441,0.469116,0.247192,3.963415,-10.792684,17.621952
1548456701454,-0.861572,0.471558,0.245911,3.780488,-10.670732,16.951220
1548456701461,-0.858215,0.473694,0.246582,3.231707,-10.182927,16.646341
1548456701476,-0.855042,0.479919,0.246704,2.621951,-9.512196,16.280489
1548456701485,-0.853577,0.491028,0.249146,2.073171,-8.963415,15.731708
1548456701491,-0.849915,0.505859,0.251099,1.463415,-8.719512,15.121951
1548456701507,-0.844727,0.518494,0.252380,1.280488,-8.475610,14.756098
1548456701514,-0.837708,0.527100,0.252014,1.219512,-8.048780,14.634147
1548456701522,-0.832458,0.531921,0.257446,1.280488,-7.804878,14.451220
1548456701537,-0.831787,0.530396,0.262329,1.585366,-7.621952,14.329268
1548456701544,-0.834656,0.528015,0.262817,1.890244,-7.439024,14.207317
1548456701552,-0.836182,0.525696,0.266479,2.073171,-7.195122,13.963415
1548456701566,-0.837830,0.527222,0.269104,2.256098,-6.951220,13.780488
1548456701574,-0.839111,0.527649,0.272888,2.500000,-6.707317,13.658537
1548456701582,-0.838562,0.529114,0.274109,2.682927,-6.707317,13.414635
1548456701596,-0.834900,0.529846,0.276733,2.743902,-6.585366,13.048780
1548456701604,-0.829407,0.531616,0.280090,2.682927,-6.646342,12.804878
1548456701612,-0.827271,0.532776,0.278931,2.682927,-6.707317,12.621951
1548456701627,-0.823914,0.534119,0.278259,2.317073,-6.707317,12.439025
1548456701635,-0.822571,0.536377,0.281006,1.829268,-6.646342,12.378049
1548456701641,-0.821777,0.541565,0.283875,1.219512,-6.463415,12.378049
1548456701657,-0.821167,0.539307,0.284607,0.731707,-6.280488,12.256098
1548456701664,-0.820068,0.543213,0.286133,0.487805,-6.219512,12.134147
1548456701671,-0.813354,0.545288,0.289795,0.731707,-5.853659,11.829268
1548456701686,-0.813110,0.542114,0.292603,0.243902,-6.097561,11.951220
1548456701694,-0.818604,0.533936,0.293701,0.609756,-6.524390,11.829268
1548456701701,-0.813232,0.534668,0.296021,1.097561,-6.646342,11.280488
1548456701716,-0.810730,0.531738,0.294006,1.097561,-5.853659,10.731708
1548456701724,-0.815430,0.526001,0.289368,0.487805,-5.975610,10.792684
1548456701731,-0.817810,0.530396,0.290283,0.426829,-6.158537,10.487805
1548456701746,-0.816528,0.540344,0.291870,0.060976,-6.219512,9.634147
1548456701754,-0.813782,0.541504,0.286072,0.000000,-6.036585,9.207317
1548456701762,-0.801636,0.556641,0.283386,0.426829,-5.426829,8.780488
1548456701776,-0.793091,0.550110,0.279480,-0.304878,-4.695122,8.780488
1548456701785,-0.797852,0.542419,0.286987,-0.914634,-4.817073,8.597561
1548456701791,-0.801636,0.543701,0.287598,0.304878,-5.426829,8.109756
1548456701807,-0.799805,0.550903,0.285706,1.036585,-5.426829,7.682927
1548456701814,-0.799133,0.557068,0.284607,1.402439,-5.121951,7.378049
1548456701821,-0.790039,0.569336,0.281860,1.951220,-4.695122,7.134147
1548456701837,-0.791138,0.569336,0.282898,1.829268,-4.390244,7.256098
1548456701845,-0.797974,0.575989,0.286621,1.524390,-4.878049,7.439024
1548456701851,-0.797302,0.579834,0.285095,2.378049,-5.060976,7.134147
1548456701866,-0.797852,0.571411,0.286011,2.804878,-4.756098,6.707317
1548456701874,-0.796570,0.563904,0.287048,3.231707,-4.207317,6.646342
1548456701882,-0.797546,0.565796,0.295532,3.719512,-3.902439,6.646342
1548456701897,-0.798584,0.568848,0.291870,3.963415,-4.268293,6.402439
1548456701904,-0.799988,0.567322,0.288818,3.597561,-4.573171,6.036585
1548456701911,-0.799866,0.568909,0.284912,2.865854,-4.573171,5.975610
1548456701927,-0.798767,0.569580,0.282837,2.012195,-4.146341,5.975610
1548456701934,-0.799133,0.569336,0.282898,1.036585,-3.536585,5.853659
1548456701941,-0.797668,0.574768,0.283264,0.304878,-3.109756,5.487805
1548456701956,-0.783264,0.591919,0.284973,0.426829,-2.256098,5.060976
1548456701965,-0.778564,0.580566,0.284119,-0.487805,-2.012195,5.426829
1548456701971,-0.783081,0.579834,0.289734,-0.792683,-2.439024,5.487805
1548456701987,-0.785950,0.587830,0.294006,0.182927,-3.170732,5.182927
1548456701994,-0.781738,0.592468,0.290039,0.426829,-3.048780,5.182927
1548456702002,-0.779846,0.592407,0.288330,0.548781,-2.560976,5.487805
1548456702016,-0.782654,0.587158,0.290283,0.853659,-2.378049,5.609756
1548456702024,-0.788025,0.580261,0.290344,1.158537,-2.378049,5.609756
1548456702032,-0.795532,0.573975,0.291504,1.341463,-2.560976,5.426829
1548456702046,-0.796448,0.570312,0.293396,1.219512,-2.743902,5.365854
1548456702054,-0.793274,0.572021,0.296753,1.097561,-2.682927,5.304878
1548456702061,-0.792969,0.571045,0.299744,0.792683,-2.682927,5.000000
1548456702076,-0.793945,0.570557,0.299866,0.487805,-2.865854,4.573171
1548456702084,-0.781250,0.593506,0.304138,0.609756,-2.195122,4.024390
1548456702091,-0.769714,0.592590,0.299194,-0.243902,-1.158537,4.085366
1548456702106,-0.774902,0.574768,0.296021,-0.548781,-1.219512,4.268293
1548456702114,-0.782043,0.573120,0.300415,0.609756,-1.768293,3.658537
1548456702121,-0.780823,0.576477,0.303589,1.158537,-1.890244,3.048780
1548456702136,-0.774780,0.578308,0.306946,0.975610,-1.524390,3.170732
1548456702144,-0.775452,0.575867,0.303955,0.853659,-1.463415,3.414634
1548456702151,-0.781189,0.567322,0.304321,0.487805,-1.646341,2.987805
1548456702167,-0.785034,0.566895,0.304749,0.182927,-1.951220,2.682927
1548456702174,-0.785522,0.574219,0.304077,0.304878,-1.951220,2.134146
1548456702181,-0.784180,0.578552,0.304688,0.670732,-1.585366,1.707317
1548456702196,-0.780945,0.585938,0.299072,1.158537,-1.402439,1.402439
1548456702205,-0.773071,0.596985,0.291626,1.341463,-1.097561,1.158537
1548456702212,-0.763123,0.596375,0.291626,1.036585,-0.853659,0.975610
1548456702226,-0.761841,0.586365,0.294128,0.853659,-0.548781,1.097561
1548456702234,-0.771423,0.580383,0.295898,1.097561,-0.609756,0.914634
1548456702242,-0.777893,0.592163,0.297668,1.097561,-0.731707,0.731707
1548456702257,-0.774841,0.601746,0.299866,0.853659,-0.670732,0.792683
1548456702264,-0.775330,0.604492,0.297852,0.914634,-0.670732,0.914634
1548456702271,-0.777466,0.603638,0.297913,1.341463,-0.975610,0.914634
1548456702287,-0.775818,0.606140,0.298828,1.402439,-1.097561,0.853659
1548456702303,-0.774170,0.605957,0.296265,1.402439,-0.853659,0.914634
1548456702303,-0.777710,0.602844,0.293579,1.402439,-0.670732,0.914634
1548456702316,-0.777405,0.602966,0.293579,1.219512,-0.731707,1.036585
1548456702323,-0.774658,0.600708,0.295471,0.975610,-0.731707,1.219512
1548456702331,-0.774597,0.598389,0.296326,0.853659,-0.731707,1.280488
1548456702347,-0.773499,0.596252,0.296936,0.853659,-0.853659,1.341463
1548456702354,-0.771729,0.598694,0.299561,0.670732,-0.792683,1.280488
1548456702361,-0.769043,0.598694,0.298035,0.792683,-0.792683,1.158537
1548456702377,-0.768982,0.596069,0.296326,0.792683,-0.792683,1.219512
1548456702383,-0.769836,0.591614,0.295898,0.365854,-0.609756,1.524390
1548456702391,-0.773254,0.592041,0.295349,-0.060976,-0.426829,1.768293
1548456702406,-0.776001,0.597473,0.297974,-0.487805,-0.304878,1.524390
1548456702414,-0.776794,0.599854,0.299744,-0.548781,-0.426829,1.219512
1548456702421,-0.778320,0.597412,0.299561,-0.243902,-0.487805,1.280488
1548456702436,-0.775696,0.596130,0.298279,0.487805,-0.426829,1.158537
1548456702443,-0.772766,0.597534,0.301270,1.097561,-0.487805,1.036585
1548456702451,-0.773315,0.591064,0.302734,1.646341,-0.609756,0.975610
1548456702466,-0.775879,0.587036,0.302734,1.768293,-0.792683,0.914634
1548456702473,-0.775269,0.587219,0.305481,1.646341,-0.670732,0.792683
1548456702481,-0.776123,0.592712,0.308105,1.341463,-0.731707,0.670732
1548456702496,-0.777344,0.595215,0.307617,0.792683,-0.731707,0.609756
1548456702504,-0.774536,0.595825,0.303528,0.731707,-0.731707,0.609756
1548456702511,-0.773071,0.593567,0.301392,0.975610,-0.670732,0.426829
1548456702526,-0.773254,0.593445,0.302734,0.975610,-0.548781,0.243902
1548456702533,-0.775757,0.593201,0.306396,0.914634,-0.731707,0.243902
1548456702541,-0.775452,0.592834,0.303223,0.548781,-0.609756,0.060976
1548456702556,-0.776306,0.590393,0.299500,0.182927,-0.426829,0.060976
1548456702563,-0.775330,0.591492,0.304138,-0.121951,-0.304878,0.121951
1548456702571,-0.776184,0.595276,0.304077,-0.121951,-0.487805,-0.182927
1548456702586,-0.775024,0.597168,0.298218,0.000000,-0.609756,-0.365854
1548456702594,-0.770752,0.597778,0.300232,0.060976,-0.731707,-0.304878
1548456702601,-0.769775,0.608215,0.300232,0.000000,-0.487805,-0.304878
1548456702616,-0.770081,0.617432,0.298767,-0.060976,-0.548781,-0.304878
1548456702623,-0.767822,0.612366,0.300781,0.060976,-0.609756,-0.182927
1548456702631,-0.773560,0.603577,0.296753,0.304878,-0.609756,-0.060976
1548456702646,-0.778259,0.602295,0.301392,0.609756,-0.609756,-0.060976
1548456702654,-0.775574,0.612915,0.301270,0.792683,-0.609756,0.000000
1548456702661,-0.773438,0.613647,0.297485,0.975610,-0.609756,0.182927
1548456702676,-0.774902,0.608093,0.294556,1.280488,-0.914634,0.426829
1548456702684,-0.775696,0.603271,0.294434,1.524390,-0.914634,0.426829
1548456702691,-0.777466,0.602966,0.291443,1.707317,-0.670732,0.365854
1548456702707,-0.776978,0.601990,0.290710,1.036585,-0.365854,0.487805
1548456702714,-0.773987,0.601196,0.291443,0.000000,-0.304878,0.792683
1548456702722,-0.771484,0.601318,0.290771,-0.243902,-0.182927,0.914634
1548456702737,-0.772949,0.595398,0.293518,-0.426829,-0.243902,0.670732
1548456702744,-0.776184,0.592285,0.294800,-0.609756,-0.426829,0.609756
1548456702752,-0.779236,0.589600,0.293457,-0.670732,-0.304878,0.670732
1548456702766,-0.777710,0.594482,0.297302,-0.609756,-0.121951,0.731707
1548456702774,-0.775085,0.598816,0.299805,-0.426829,-0.121951,0.609756
1548456702782,-0.770996,0.597412,0.295227,-0.060976,-0.182927,0.304878
1548456702796,-0.770874,0.595581,0.292603,0.609756,-0.304878,0.000000
1548456702804,-0.771057,0.598145,0.298889,0.914634,-0.487805,-0.060976
1548456702811,-0.767761,0.599426,0.297791,0.975610,-0.304878,0.121951
1548456702826,-0.768982,0.598022,0.297424,1.219512,-0.060976,0.304878
1548456702834,-0.772217,0.592346,0.299561,1.219512,-0.121951,0.182927
1548456702841,-0.779053,0.592651,0.299866,1.158537,-0.304878,0.060976
1548456702856,-0.783447,0.595337,0.303589,1.219512,-0.426829,0.060976
1548456702864,-0.781982,0.592896,0.305359,1.097561,-0.426829,0.243902
1548456702871,-0.780151,0.594666,0.302063,1.280488,-0.365854,0.121951
1548456702886,-0.777039,0.595459,0.302246,0.914634,-0.243902,-0.243902
1548456702894,-0.771973,0.592529,0.303589,0.243902,-0.060976,-0.426829
1548456702901,-0.771729,0.591003,0.300110,0.000000,0.243902,-0.548781
1548456702916,-0.772461,0.591003,0.303223,0.365854,0.365854,-0.731707
1548456702924,-0.769104,0.594421,0.303345,0.792683,0.243902,-1.158537
1548456702931,-0.770508,0.597717,0.301147,1.158537,0.060976,-1.341463
1548456702946,-0.770447,0.587646,0.292664,1.402439,-0.182927,-1.097561
1548456702954,-0.771301,0.579224,0.289490,0.731707,-0.121951,-0.792683
1548456702962,-0.774658,0.582703,0.292419,-0.182927,-0.060976,-0.914634
1548456702976,-0.780762,0.588135,0.295410,-0.975610,0.060976,-1.158537
1548456702984,-0.787842,0.587769,0.291321,-0.670732,0.182927,-1.463415
1548456702991,-0.787598,0.587219,0.290405,0.060976,0.182927,-1.585366
1548456703006,-0.781555,0.588440,0.294617,0.731707,0.243902,-1.585366
1548456703014,-0.778381,0.584900,0.291443,1.158537,0.609756,-1.890244
1548456703022,-0.775024,0.579346,0.289978,1.219512,0.853659,-2.256098
1548456703036,-0.776855,0.575134,0.293091,1.036585,0.731707,-2.560976
1548456703044,-0.780396,0.574402,0.292480,1.036585,0.792683,-2.926829
1548456703051,-0.785889,0.573120,0.289856,0.853659,0.914634,-3.109756
1548456703066,-0.787231,0.569275,0.288208,0.853659,1.097561,-3.353659
1548456703074,-0.784851,0.568054,0.286560,0.548781,1.097561,-3.719512
1548456703081,-0.785461,0.571045,0.284180,0.060976,1.219512,-4.024390
1548456703096,-0.784973,0.576721,0.283813,-0.304878,1.402439,-4.512195
1548456703104,-0.779663,0.583252,0.280396,-0.548781,1.768293,-4.878049
1548456703111,-0.777466,0.582153,0.281006,-0.243902,2.134146,-4.817073
1548456703126,-0.780640,0.584045,0.287170,0.548781,2.134146,-4.878049
1548456703134,-0.780273,0.586060,0.289795,1.036585,2.073171,-5.121951
1548456703141,-0.777344,0.584595,0.291870,1.585366,1.768293,-5.426829
1548456703157,-0.782043,0.582520,0.290405,2.012195,1.585366,-5.365854
1548456703164,-0.786194,0.582886,0.289246,1.707317,1.463415,-5.243903
1548456703171,-0.792053,0.586853,0.289001,0.975610,1.341463,-5.243903
1548456703186,-0.792969,0.589539,0.287354,0.365854,1.524390,-5.304878
1548456703194,-0.794312,0.597534,0.288940,0.182927,1.890244,-5.609756
1548456703201,-0.789551,0.597534,0.291565,0.487805,2.073171,-5.548780
1548456703216,-0.788574,0.595642,0.289917,0.975610,1.951220,-5.426829
1548456703224,-0.786377,0.592896,0.290527,1.158537,2.012195,-5.487805
1548456703231,-0.786194,0.595703,0.291809,0.914634,2.134146,-5.304878
1548456703246,-0.784180,0.600647,0.294678,0.487805,2.195122,-5.060976
1548456703254,-0.783203,0.606750,0.294739,0.000000,2.012195,-4.817073
1548456703262,-0.782837,0.612427,0.296326,-0.060976,1.707317,-4.268293
1548456703276,-0.783020,0.604492,0.294067,0.060976,1.524390,-3.719512
1548456703284,-0.786926,0.593689,0.295715,0.304878,1.524390,-3.292683
1548456703291,-0.793091,0.587341,0.295715,0.548781,1.341463,-3.109756
1548456703306,-0.798096,0.585938,0.298950,0.609756,1.158537,-2.865854
1548456703314,-0.803711,0.579773,0.295227,0.487805,0.914634,-2.621951
1548456703321,-0.803223,0.576843,0.292053,0.304878,0.792683,-2.500000
1548456703336,-0.801453,0.583313,0.291016,-0.243902,0.609756,-2.560976
1548456703344,-0.800354,0.583801,0.286865,-0.792683,0.609756,-2.560976
1548456703351,-0.797546,0.584656,0.287048,-1.280488,0.792683,-2.560976
1548456703366,-0.793274,0.583923,0.285828,-1.463415,0.975610,-2.500000
1548456703374,-0.791626,0.572205,0.287048,-0.914634,1.036585,-2.439024
1548456703382,-0.796875,0.561768,0.290039,-0.365854,1.036585,-2.500000
1548456703396,-0.800720,0.553772,0.289490,-0.121951,0.975610,-2.682927
1548456703404,-0.805786,0.550354,0.288147,0.000000,0.914634,-2.743902
1548456703411,-0.808289,0.552673,0.285400,-0.487805,0.792683,-2.743902
1548456703426,-0.808777,0.555725,0.282349,-1.036585,0.670732,-2.987805
1548456703434,-0.805176,0.559448,0.278137,-1.463415,0.731707,-3.353659
1548456703441,-0.800781,0.558289,0.271912,-1.646341,1.036585,-3.658537
1548456703456,-0.802612,0.555176,0.271667,-1.463415,1.280488,-3.902439
1548456703464,-0.801086,0.554077,0.270813,-0.975610,1.646341,-4.146341
1548456703471,-0.800720,0.550598,0.272339,-0.487805,2.012195,-4.573171
1548456703486,-0.804749,0.548401,0.274109,-0.121951,2.195122,-4.878049
1548456703494,-0.804321,0.551147,0.274963,0.060976,2.256098,-5.121951
1548456703501,-0.804932,0.549866,0.272095,0.000000,2.195122,-5.365854
1548456703516,-0.807190,0.547241,0.271118,0.060976,2.317073,-5.609756
1548456703531,-0.811340,0.548584,0.269836,0.060976,2.500000,-5.914634
1548456703532,-0.812073,0.553101,0.268921,0.000000,2.743902,-6.341464
1548456703546,-0.809082,0.556030,0.270447,0.000000,2.987805,-6.585366
1548456703554,-0.810364,0.552429,0.269226,0.304878,3.170732,-6.707317
1548456703561,-0.812012,0.543640,0.267517,0.853659,3.353659,-6.951220
1548456703576,-0.816162,0.541809,0.271545,0.975610,3.536585,-7.439024
1548456703584,-0.817017,0.544861,0.271301,0.914634,3.719512,-7.926829
1548456703591,-0.815979,0.547485,0.270325,0.975610,3.658537,-8.170732
1548456703606,-0.816162,0.543762,0.267029,0.731707,3.658537,-8.292683
1548456703614,-0.819214,0.537720,0.265808,0.365854,3.902439,-8.414635
1548456703621,-0.818237,0.538452,0.264160,-0.182927,4.146341,-8.719512
1548456703636,-0.821106,0.537170,0.266113,-0.609756,4.451220,-9.207317
1548456703644,-0.821594,0.529907,0.265442,-0.792683,4.756098,-9.390244
1548456703651,-0.820923,0.531311,0.263733,-0.731707,5.000000,-9.573171
1548456703666,-0.820679,0.534729,0.266174,-0.670732,5.060976,-9.878049
1548456703674,-0.821960,0.531372,0.261841,-0.487805,5.182927,-10.060976
1548456703681,-0.820679,0.532715,0.263489,-0.304878,5.426829,-10.243902
1548456703696,-0.821655,0.536743,0.264160,-0.426829,5.426829,-10.792684
1548456703704,-0.822876,0.538025,0.257690,-0.487805,5.487805,-10.853659
1548456703711,-0.827881,0.532043,0.260193,-0.426829,5.548780,-10.914635
1548456703726,-0.832336,0.530701,0.263977,-0.304878,5.792683,-11.097561
1548456703734,-0.834106,0.533813,0.264221,-0.060976,5.975610,-11.402439
1548456703741,-0.837036,0.528564,0.266418,0.548781,5.914634,-11.524390
1548456703756,-0.839600,0.519653,0.268860,1.036585,5.853659,-11.646341
1548456703764,-0.840515,0.515686,0.265686,1.585366,5.792683,-11.890244
1548456703771,-0.841431,0.508545,0.264832,1.585366,5.609756,-12.317074
1548456703786,-0.844543,0.504456,0.264282,1.463415,5.731708,-12.682927
1548456703794,-0.849548,0.496887,0.257812,0.914634,6.036585,-13.048780
1548456703801,-0.849365,0.493469,0.258484,0.182927,6.280488,-13.475610
1548456703816,-0.850830,0.499939,0.255615,-0.426829,6.463415,-13.963415
1548456703824,-0.849915,0.506165,0.252075,-0.731707,6.646342,-14.390244
1548456703831,-0.849243,0.504333,0.253357,-0.975610,6.890244,-14.817074
1548456703846,-0.848755,0.493286,0.248779,-1.097561,7.195122,-15.060976
1548456703854,-0.851929,0.483582,0.245667,-1.158537,7.560976,-15.182927
1548456703861,-0.858276,0.475708,0.249634,-1.158537,7.804878,-15.731708
1548456703876,-0.863525,0.479431,0.249512,-1.219512,7.865854,-16.402439
1548456703884,-0.864685,0.487976,0.248291,-1.158537,7.804878,-16.951220
1548456703891,-0.867676,0.484802,0.242371,-1.158537,7.743903,-17.012196
1548456703906,-0.866760,0.487549,0.239929,-1.036585,7.560976,-17.134148
1548456703914,-0.866333,0.487244,0.237732,-0.304878,8.109756,-17.682928
1548456703922,-0.866821,0.484436,0.239563,-0.304878,8.536586,-18.109756
1548456703936,-0.868774,0.484070,0.237366,-0.243902,8.780488,-18.414635
1548456703944,-0.878418,0.480530,0.235474,0.487805,8.475610,-18.719513
1548456703951,-0.880310,0.473267,0.238098,1.158537,8.353659,-19.146341
1548456703966,-0.891235,0.453064,0.236938,1.463415,8.475610,-19.329269
1548456703974,-0.898315,0.448669,0.240723,1.341463,8.048780,-19.390244
1548456703981,-0.896790,0.468628,0.241394,1.768293,8.475610,-20.243902
1548456703996,-0.891907,0.479858,0.233948,1.219512,8.841464,-20.914635
1548456704004,-0.888123,0.475952,0.231323,0.731707,8.841464,-20.853659
1548456704011,-0.885498,0.476685,0.229858,0.426829,8.719512,-20.548780
1548456704026,-0.884216,0.488342,0.231506,0.365854,8.902439,-20.487804
1548456704034,-0.884094,0.496338,0.230164,0.243902,8.963415,-20.365854
1548456704041,-0.884155,0.492126,0.230103,0.914634,8.841464,-19.878050
1548456704056,-0.888123,0.488220,0.234497,1.646341,8.658537,-19.451220
1548456704064,-0.891541,0.487671,0.236023,2.317073,8.353659,-19.390244
1548456704072,-0.893127,0.487244,0.235046,2.682927,8.109756,-19.024391
