timestamp, accel_x, accel_y, accel_z, gyro_x, gyro_y, gyro_z
1548456044952,-1.014343,0.226624,0.176575,-140.121948,-2.073171,-45.000000
1548456044967,-1.103333,0.289307,0.185608,-141.524399,-17.987804,-47.621952
1548456044974,-1.134827,0.298645,0.142883,-126.768295,-18.841463,-49.634148
1548456044982,-1.094421,0.261292,0.112549,-97.865852,-7.195122,-53.048782
1548456044997,-1.019592,0.205078,0.115417,-66.280487,7.134147,-58.719513
1548456045004,-0.993896,0.116394,0.067322,-44.817074,12.195122,-65.609756
1548456045012,-1.004272,0.027710,0.040405,-37.926830,10.670732,-69.573174
1548456045027,-1.016174,-0.001404,0.107483,-40.304878,3.292683,-68.048782
1548456045035,-1.042847,0.020874,0.173401,-48.719513,-8.963415,-65.426834
1548456045042,-1.100037,0.053162,0.174561,-58.902439,-20.609756,-63.231709
1548456045057,-1.150513,0.071533,0.223694,-62.134148,-29.878050,-61.707317
1548456045072,-1.182190,0.069824,0.258179,-56.829269,-33.109756,-61.707317
1548456045072,-1.169678,0.029968,0.179993,-51.707317,-17.560976,-61.768295
1548456045087,-1.124268,0.001709,0.072266,-47.743904,5.975610,-62.743904
1548456045094,-1.060974,-0.044495,0.107849,-43.231709,10.914635,-64.756096
1548456045102,-1.046631,-0.040283,0.150085,-42.621952,-4.695122,-67.134148
1548456045117,-1.103760,0.003052,0.159607,-46.829269,-16.890244,-64.878052
1548456045124,-1.178162,0.023010,0.189941,-47.621952,-30.731709,-60.548782
1548456045132,-1.220764,0.005981,0.258911,-38.353661,-43.109756,-58.292683
1548456045147,-1.205139,-0.036011,0.167725,-25.609756,-34.329269,-55.914635
1548456045154,-1.148315,-0.116699,0.085815,-15.426829,-10.487805,-55.304878
1548456045162,-1.091797,-0.207092,0.084473,-9.085366,-7.500000,-56.402439
1548456045177,-1.065613,-0.262085,0.080750,-10.548780,-17.134148,-56.036587
1548456045184,-1.073486,-0.248840,0.117554,-19.878050,-22.804878,-52.621952
1548456045192,-1.125732,-0.210022,0.153320,-31.280489,-29.756098,-47.560978
1548456045207,-1.188171,-0.174561,0.197998,-37.743904,-35.853661,-42.682926
1548456045214,-1.226562,-0.130127,0.178284,-35.365856,-34.024391,-36.341465
1548456045222,-1.216675,-0.126465,0.155334,-24.695122,-23.414635,-29.756098
1548456045237,-1.179077,-0.171997,0.128723,-8.597561,-15.304878,-27.256098
1548456045244,-1.144592,-0.240051,0.096313,6.219512,-9.451220,-27.500000
1548456045252,-1.109680,-0.295410,0.085632,14.268293,-6.707317,-28.475611
1548456045267,-1.080688,-0.325256,0.073792,13.475610,-8.841464,-28.353659
1548456045274,-1.048401,-0.334656,0.066528,6.341464,-10.609756,-27.682928
1548456045282,-1.013855,-0.330750,0.062927,-2.804878,-11.402439,-27.134148
1548456045297,-0.962280,-0.318176,0.079773,-11.158537,-10.609756,-27.073172
1548456045304,-0.928406,-0.282715,0.104919,-18.658537,-9.939025,-27.134148
1548456045312,-0.928772,-0.242859,0.116882,-23.780489,-11.341464,-25.914635
1548456045327,-0.968018,-0.215088,0.108826,-25.792683,-13.048780,-22.439024
1548456045334,-1.018188,-0.194275,0.125061,-22.926830,-13.048780,-17.621952
1548456045342,-1.070312,-0.187988,0.141174,-15.548780,-12.560976,-12.682927
1548456045357,-1.102661,-0.189941,0.155701,-6.829268,-12.378049,-8.719512
1548456045364,-1.099060,-0.183411,0.156067,1.341463,-14.329268,-6.341464
1548456045372,-1.045349,-0.169678,0.151001,7.073171,-20.060976,-6.219512
1548456045387,-0.969177,-0.162842,0.143433,9.268292,-29.817074,-9.024390
1548456045394,-0.906494,-0.176880,0.155884,8.658537,-42.195122,-14.573171
1548456045402,-0.887512,-0.201782,0.182068,5.975610,-54.634148,-20.548780
1548456045417,-0.905396,-0.225281,0.206970,1.951220,-64.695122,-23.658537
1548456045424,-0.937073,-0.234680,0.235718,-2.865854,-68.475609,-22.804878
1548456045432,-0.967224,-0.231018,0.244385,-7.987805,-67.804878,-20.670732
1548456045447,-0.975159,-0.218506,0.243530,-12.439025,-63.719513,-20.000000
1548456045454,-0.966736,-0.208191,0.230713,-14.878049,-59.939026,-22.073172
1548456045462,-0.944763,-0.202148,0.214294,-14.390244,-59.268295,-26.280489
1548456045477,-0.924683,-0.215210,0.211060,-11.036586,-62.256100,-31.280489
1548456045485,-0.919556,-0.237122,0.221741,-6.219512,-69.146339,-36.463417
1548456045492,-0.919067,-0.253174,0.240051,-1.280488,-77.621956,-41.158539
1548456045507,-0.916931,-0.272522,0.254822,2.073171,-85.060974,-44.878048
1548456045514,-0.908020,-0.296631,0.264526,3.597561,-90.365852,-47.500000
1548456045522,-0.895508,-0.331360,0.267273,3.353659,-93.963417,-49.573174
1548456045537,-0.880066,-0.360535,0.279724,1.585366,-97.012199,-52.195122
1548456045544,-0.868286,-0.386963,0.293884,-1.219512,-99.817078,-55.121952
1548456045552,-0.860413,-0.395935,0.307617,-4.756098,-103.048782,-57.926830
1548456045567,-0.856201,-0.399475,0.324890,-8.292683,-106.280487,-60.792683
1548456045574,-0.846436,-0.408264,0.345154,-10.853659,-108.902443,-63.841465
1548456045582,-0.841370,-0.417297,0.376953,-11.280488,-111.036591,-67.317078
1548456045597,-0.827698,-0.422852,0.415222,-10.060976,-112.439026,-70.426834
1548456045604,-0.828979,-0.440063,0.458435,-9.390244,-114.207321,-71.646339
1548456045612,-0.836731,-0.457031,0.496765,-10.060976,-116.829269,-70.609756
1548456045627,-0.831909,-0.461487,0.529785,-11.036586,-117.439026,-69.207321
1548456045634,-0.818298,-0.458740,0.548279,-11.402439,-114.451225,-68.841469
1548456045642,-0.773254,-0.457458,0.561951,-10.121951,-107.560982,-69.573174
1548456045649,-0.731201,-0.463989,0.564636,-8.475610,-98.353661,-69.878052
1548456045664,-0.701416,-0.473328,0.552368,-8.292683,-91.951225,-70.426834
1548456045672,-0.680420,-0.493958,0.553162,-10.487805,-88.902443,-72.012199
1548456045679,-0.664917,-0.526428,0.562805,-15.487805,-88.597565,-74.817078
1548456045694,-0.656494,-0.548767,0.579346,-22.073172,-89.817078,-78.780487
1548456045702,-0.659424,-0.557800,0.603027,-28.841465,-90.731712,-82.256096
1548456045709,-0.663818,-0.570190,0.632019,-35.426830,-89.268295,-84.390244
1548456045724,-0.660339,-0.579041,0.643616,-41.402439,-85.365852,-85.243904
1548456045732,-0.654175,-0.579956,0.644348,-45.548782,-79.634148,-85.182930
1548456045739,-0.648193,-0.611023,0.674988,-45.792683,-80.853661,-85.792686
1548456045754,-0.639893,-0.610474,0.633667,-48.048782,-69.817078,-84.512199
1548456045762,-0.612610,-0.621704,0.628845,-49.085365,-58.414635,-82.926834
1548456045777,-0.588684,-0.629028,0.617615,-46.463417,-56.280491,-81.768295
1548456045784,-0.573059,-0.631226,0.611084,-43.902439,-54.573174,-80.548782
1548456045792,-0.560120,-0.646729,0.613342,-40.914635,-53.902439,-79.146347
1548456045799,-0.543945,-0.675903,0.615417,-38.292683,-53.719513,-77.560974
1548456045814,-0.526550,-0.710266,0.618164,-37.621952,-52.378052,-75.487808
1548456045822,-0.514648,-0.746582,0.620605,-39.695122,-50.304878,-72.865852
1548456045829,-0.516602,-0.777161,0.633179,-44.085365,-47.926830,-70.792686
1548456045844,-0.550659,-0.803833,0.666565,-48.902439,-45.792683,-69.268295
1548456045852,-0.608704,-0.828735,0.698303,-51.585365,-43.536587,-66.341461
1548456045859,-0.599182,-0.790955,0.678528,-51.890244,-38.292683,-61.402439
1548456045874,-0.487854,-0.727905,0.586243,-49.085365,-27.256098,-54.756100
1548456045882,-0.394165,-0.762512,0.525574,-44.329269,-22.073172,-47.012196
1548456045889,-0.403259,-0.786438,0.563721,-35.121952,-25.792683,-42.195122
1548456045904,-0.429993,-0.770264,0.577148,-25.121952,-36.036587,-39.024391
1548456045912,-0.448303,-0.776550,0.578979,-19.695122,-41.524391,-34.756100
1548456045919,-0.442932,-0.772827,0.580688,-16.463415,-43.536587,-30.975611
1548456045934,-0.406250,-0.772949,0.578857,-12.987805,-40.853661,-27.317074
1548456045942,-0.406494,-0.784180,0.582397,-10.548780,-39.207317,-25.365854
1548456045949,-0.395752,-0.775696,0.580017,-9.390244,-39.024391,-22.865854
1548456045964,-0.387939,-0.781250,0.569092,-9.024390,-37.560978,-19.451220
1548456045972,-0.390991,-0.780212,0.571167,-7.500000,-38.292683,-16.036585
1548456045979,-0.386475,-0.769409,0.577698,-5.304878,-37.865856,-13.902439
1548456045994,-0.406433,-0.767212,0.579834,-3.536585,-38.475609,-13.414635
1548456046002,-0.381775,-0.767700,0.581787,-1.280488,-36.707317,-12.439025
1548456046009,-0.375549,-0.768127,0.589233,1.585366,-32.987804,-12.804878
1548456046024,-0.382446,-0.767639,0.593628,3.780488,-31.707317,-13.048780
1548456046032,-0.362061,-0.772461,0.595764,5.182927,-29.939026,-12.682927
1548456046039,-0.366272,-0.769531,0.603638,6.707317,-27.560976,-12.682927
1548456046054,-0.372070,-0.768738,0.608276,7.804878,-25.426830,-12.134147
1548456046062,-0.347595,-0.770264,0.611450,8.719512,-21.280489,-11.463415
1548456046069,-0.325562,-0.776733,0.616882,9.817074,-16.646341,-11.402439
1548456046084,-0.354309,-0.772034,0.619202,9.512196,-15.548780,-10.670732
1548456046092,-0.352478,-0.762207,0.615906,7.560976,-14.695123,-8.414635
1548456046099,-0.336609,-0.765869,0.616089,6.829268,-11.097561,-7.439024
1548456046114,-0.333496,-0.770691,0.617859,6.463415,-9.207317,-7.865854
1548456046122,-0.332031,-0.767883,0.615662,5.426829,-8.048780,-7.195122
1548456046129,-0.330872,-0.767761,0.611938,4.451220,-6.768293,-5.670732
1548456046144,-0.329956,-0.766724,0.610901,3.963415,-5.853659,-4.451220
1548456046152,-0.300964,-0.762939,0.604492,3.658537,-5.670732,-4.024390
1548456046159,-0.315918,-0.776062,0.613220,3.597561,-6.280488,-3.780488
1548456046174,-0.362244,-0.750366,0.605103,2.256098,-11.219512,-2.743902
1548456046182,-0.325500,-0.758484,0.602661,1.829268,-10.365854,-0.670732
1548456046189,-0.341919,-0.752319,0.606262,3.841464,-10.304878,-3.109756
1548456046204,-0.313110,-0.763367,0.609375,5.670732,-10.914635,-4.268293
1548456046212,-0.320923,-0.760193,0.609009,7.195122,-11.951220,-5.914634
1548456046219,-0.333008,-0.759827,0.618164,7.621952,-13.719513,-5.914634
1548456046234,-0.317688,-0.749878,0.609070,7.682927,-15.182927,-6.341464
1548456046242,-0.330933,-0.757507,0.618042,8.353659,-15.304878,-7.317073
1548456046249,-0.326050,-0.751465,0.613831,9.085366,-17.500000,-8.963415
1548456046264,-0.291443,-0.754639,0.616394,10.792684,-16.463415,-9.939025
1548456046272,-0.292053,-0.765564,0.625427,12.865854,-17.621952,-11.890244
1548456046279,-0.328796,-0.750488,0.626099,12.804878,-21.341463,-12.378049
1548456046294,-0.298401,-0.747742,0.630493,13.048780,-21.768293,-11.341464
1548456046302,-0.296448,-0.755127,0.634949,14.939025,-20.975611,-13.048780
1548456046309,-0.304504,-0.746033,0.633179,15.426829,-22.500000,-14.634147
1548456046324,-0.269043,-0.754639,0.635193,16.097561,-22.134148,-15.487805
1548456046332,-0.282166,-0.752747,0.642273,17.804878,-23.170732,-17.134148
1548456046339,-0.280823,-0.744690,0.649414,18.048780,-25.121952,-16.768293
1548456046354,-0.280823,-0.741577,0.656616,19.146341,-24.634148,-16.585365
1548456046362,-0.274414,-0.744751,0.664856,20.365854,-24.573172,-18.231709
1548456046369,-0.259644,-0.744507,0.672119,21.524391,-23.841463,-19.878050
1548456046384,-0.249146,-0.744995,0.675598,21.036587,-23.414635,-20.731709
1548456046392,-0.244690,-0.746033,0.685425,19.817074,-23.048780,-20.609756
1548456046399,-0.240173,-0.748291,0.692871,18.231709,-22.256098,-20.060976
1548456046414,-0.231018,-0.747620,0.697937,16.280489,-21.036587,-19.390244
1548456046429,-0.227844,-0.751770,0.700195,13.963415,-19.329269,-18.353659
1548456046430,-0.219299,-0.752136,0.698059,11.036586,-17.195122,-16.158537
1548456046444,-0.218872,-0.748962,0.700134,7.804878,-14.878049,-13.536586
1548456046452,-0.219055,-0.749023,0.700378,5.487805,-12.621951,-10.975610
1548456046459,-0.218933,-0.748535,0.697571,3.475610,-10.670732,-9.207317
1548456046474,-0.216980,-0.745911,0.690735,1.646341,-8.841464,-7.682927
1548456046482,-0.212769,-0.744995,0.689270,0.060976,-7.317073,-6.402439
1548456046489,-0.211243,-0.744934,0.688110,-1.036585,-6.097561,-4.939024
1548456046504,-0.214905,-0.744812,0.684387,-1.707317,-4.878049,-3.597561
1548456046512,-0.213440,-0.746704,0.685059,-1.829268,-3.658537,-2.621951
1548456046519,-0.213013,-0.746521,0.683960,-1.585366,-2.804878,-1.707317
1548456046534,-0.214966,-0.745667,0.686035,-1.402439,-2.073171,-0.853659
1548456046542,-0.214783,-0.745789,0.684509,-1.097561,-1.280488,0.000000
1548456046549,-0.217285,-0.744324,0.683899,-1.280488,-0.548781,0.731707
1548456046564,-0.217712,-0.741638,0.680603,-1.280488,-0.182927,1.036585
1548456046572,-0.221191,-0.742615,0.677246,-1.524390,0.121951,1.158537
1548456046579,-0.221252,-0.740906,0.678406,-1.463415,0.121951,0.975610
1548456046594,-0.220520,-0.742249,0.673645,-0.975610,-0.060976,0.487805
1548456046602,-0.219055,-0.743896,0.672729,-0.243902,-0.548781,-0.121951
1548456046609,-0.218811,-0.742554,0.674194,0.792683,-1.158537,-0.670732
1548456046624,-0.218994,-0.742371,0.679016,2.073171,-1.768293,-0.975610
1548456046632,-0.216675,-0.742615,0.679321,3.170732,-2.317073,-1.402439
1548456046639,-0.214966,-0.742493,0.678284,3.902439,-2.865854,-1.829268
1548456046655,-0.216125,-0.742676,0.678589,4.329268,-3.292683,-2.134146
1548456046662,-0.218079,-0.741455,0.678772,4.695122,-3.536585,-2.195122
1548456046669,-0.213806,-0.738953,0.677124,5.304878,-3.963415,-2.500000
1548456046684,-0.210388,-0.738892,0.677734,6.585366,-4.817073,-3.231707
1548456046692,-0.211670,-0.737854,0.677490,7.621952,-5.243903,-3.414634
1548456046707,-0.213806,-0.740356,0.679626,8.475610,-5.426829,-3.353659
1548456046714,-0.207886,-0.737183,0.691833,10.000000,-6.036585,-3.780488
1548456046722,-0.206421,-0.739807,0.696838,11.463415,-6.646342,-4.390244
1548456046729,-0.207214,-0.740662,0.705139,10.853659,-6.463415,-4.085366
1548456046744,-0.202881,-0.736267,0.705322,9.939025,-6.036585,-3.475610
1548456046752,-0.202759,-0.734070,0.706238,8.292683,-5.365854,-3.048780
1548456046759,-0.203430,-0.733215,0.705200,6.097561,-4.695122,-2.439024
1548456046774,-0.204468,-0.734497,0.702637,4.512195,-4.146341,-2.134146
1548456046782,-0.204041,-0.735352,0.699646,3.292683,-3.658537,-2.012195
1548456046789,-0.203735,-0.733582,0.697388,2.621951,-3.353659,-2.012195
1548456046804,-0.200989,-0.735535,0.698364,2.317073,-2.987805,-2.012195
1548456046812,-0.200867,-0.735352,0.698303,2.195122,-2.865854,-2.073171
1548456046819,-0.200256,-0.733337,0.702332,2.256098,-2.621951,-1.951220
1548456046834,-0.197571,-0.734253,0.701965,2.012195,-2.439024,-1.768293
1548456046849,-0.198364,-0.735046,0.702332,1.524390,-2.073171,-1.341463
1548456046850,-0.196838,-0.734375,0.705017,0.975610,-1.585366,-0.975610
1548456046864,-0.197693,-0.735901,0.704224,0.487805,-0.975610,-0.304878
1548456046872,-0.198730,-0.735901,0.704590,-0.487805,-0.182927,0.426829
1548456046879,-0.198669,-0.734802,0.701477,-1.158537,0.548781,0.975610
1548456046894,-0.198303,-0.734924,0.703064,-1.707317,1.341463,1.524390
1548456046902,-0.200256,-0.734863,0.697998,-1.707317,2.073171,1.951220
1548456046909,-0.199280,-0.737244,0.699707,-1.707317,2.743902,2.317073
1548456046924,-0.200073,-0.737427,0.702637,-1.829268,3.292683,2.865854
1548456046932,-0.200928,-0.737427,0.702881,-1.951220,4.024390,3.719512
1548456046947,-0.203735,-0.738647,0.700867,-2.560976,4.878049,4.451220
1548456046954,-0.206665,-0.738647,0.702393,-2.987805,5.853659,5.243903
1548456046962,-0.207520,-0.740479,0.704590,-3.353659,6.890244,6.158537
1548456046969,-0.209045,-0.741699,0.703857,-3.963415,7.926829,7.073171
1548456046984,-0.213196,-0.742432,0.701294,-4.634146,9.268292,8.170732
1548456046992,-0.212402,-0.743347,0.696106,-5.121951,10.792684,9.268292
1548456046999,-0.217834,-0.742859,0.696106,-5.426829,12.195122,10.121951
1548456047014,-0.224976,-0.742249,0.698181,-5.426829,13.353659,11.341464
1548456047022,-0.225769,-0.743713,0.696533,-5.000000,14.512196,12.378049
1548456047029,-0.231873,-0.742615,0.692566,-4.817073,15.975610,13.170732
1548456047044,-0.239075,-0.739807,0.695557,-4.329268,17.560976,13.963415
1548456047052,-0.242188,-0.743774,0.691833,-3.536585,19.146341,14.939025
1548456047059,-0.242188,-0.746399,0.687012,-3.414634,20.609756,15.121951
1548456047082,-0.251465,-0.740723,0.679565,-2.682927,22.560976,16.158537
1548456047082,-0.249756,-0.739258,0.669861,-0.975610,24.024391,17.621952
1548456047097,-0.251587,-0.737183,0.654480,1.341463,24.695122,18.170732
1548456047104,-0.244934,-0.737366,0.652161,3.963415,23.963415,19.207317
1548456047112,-0.254822,-0.753174,0.673706,7.195122,22.195122,20.853659
1548456047119,-0.288208,-0.743225,0.697754,10.243902,19.085367,23.170732
1548456047134,-0.294739,-0.732544,0.706848,13.048780,18.597561,26.280489
1548456047142,-0.307861,-0.737488,0.713928,15.975610,21.158537,28.231709
1548456047150,-0.323547,-0.728821,0.727905,18.475611,24.817074,29.207317
1548456047165,-0.359497,-0.723267,0.746399,21.890244,30.000000,30.914635
1548456047179,-0.390930,-0.709839,0.767578,26.341463,35.853661,34.451221
1548456047180,-0.395264,-0.698425,0.771484,32.621952,42.804878,40.121952
1548456047194,-0.403442,-0.708069,0.754517,41.280487,50.060978,46.524391
1548456047202,-0.412415,-0.709290,0.750549,48.536587,57.621952,51.158539
1548456047209,-0.372925,-0.727539,0.743408,53.902439,64.207321,55.060978
1548456047232,-0.326477,-0.747803,0.735107,57.256100,69.817078,56.951221
1548456047232,-0.324524,-0.747375,0.728577,57.926830,68.170731,56.219513
1548456047247,-0.358459,-0.736267,0.725403,54.756100,61.402439,54.512196
1548456047254,-0.408630,-0.713806,0.726318,48.658539,54.573174,53.719513
1548456047262,-0.450073,-0.692871,0.731079,41.768295,50.670734,54.451221
1548456047269,-0.470764,-0.672607,0.740173,34.756100,52.500000,56.097561
1548456047284,-0.474243,-0.652710,0.747131,29.207317,58.170734,58.536587
1548456047307,-0.475037,-0.635010,0.747314,25.670732,65.182930,60.853661
1548456047307,-0.475037,-0.618347,0.746765,24.268293,71.280487,63.170734
1548456047322,-0.481567,-0.611206,0.742981,24.573172,75.365852,65.609756
1548456047344,-0.497803,-0.604858,0.738647,26.158537,77.439026,68.231712
1548456047345,-0.518372,-0.598877,0.730774,28.719513,78.292686,71.280487
1548456047346,-0.542053,-0.589783,0.714233,31.097561,79.024391,74.268295
1548456047352,-0.566895,-0.580811,0.702515,32.804878,80.792686,76.768295
1548456047360,-0.585876,-0.575623,0.690186,33.902439,83.597565,78.719513
1548456047374,-0.604736,-0.568787,0.677856,34.207317,87.743904,80.853661
1548456047382,-0.619385,-0.560852,0.671143,33.292683,92.987808,83.414635
1548456047389,-0.629822,-0.552917,0.662720,31.158537,98.292686,85.853661
1548456047404,-0.639465,-0.537537,0.658813,28.780489,103.292686,88.353661
1548456047412,-0.650269,-0.515320,0.644470,26.524391,107.012199,90.731712
1548456047419,-0.667175,-0.486023,0.629639,24.634148,109.573174,92.865852
1548456047434,-0.687134,-0.464050,0.616699,23.414635,112.134148,94.939026
1548456047442,-0.709839,-0.460022,0.608521,23.414635,114.695122,96.768295
1548456047457,-0.727417,-0.452820,0.597412,25.182928,117.256104,98.170731
1548456047464,-0.737366,-0.430542,0.577637,26.402439,120.182930,98.963417
1548456047472,-0.737976,-0.407776,0.557190,26.707317,122.560982,99.451225
1548456047479,-0.731079,-0.394531,0.535522,27.256098,123.414635,99.878052
1548456047494,-0.742065,-0.371216,0.522461,27.926830,122.987808,99.695122
1548456047502,-0.777771,-0.349487,0.502136,28.780489,121.036591,99.085365
1548456047509,-0.811707,-0.340515,0.474304,29.451220,119.817078,97.804878
1548456047524,-0.838867,-0.330261,0.446960,30.060976,119.268295,95.853661
1548456047554,-0.857788,-0.318054,0.423828,30.304878,118.536591,93.597565
1548456047554,-0.871155,-0.304321,0.404175,29.756098,117.621956,91.463417
1548456047555,-0.894470,-0.286804,0.382141,28.963415,116.036591,89.085365
1548456047562,-0.916077,-0.262268,0.358765,27.926830,113.597565,86.768295
1548456047569,-0.924377,-0.241211,0.334595,26.890245,111.036591,84.756096
1548456047584,-0.919922,-0.216919,0.311951,25.670732,107.987808,82.560974
1548456047592,-0.909119,-0.195312,0.288025,24.146341,104.085365,79.695122
1548456047599,-0.907288,-0.177795,0.270630,22.073172,99.451225,76.585365
1548456047614,-0.918518,-0.161926,0.259766,20.060976,94.512199,73.536591
1548456047622,-0.939636,-0.148315,0.249573,18.719513,89.756096,71.402443
1548456047629,-0.955444,-0.129822,0.235901,17.560976,85.487808,69.939026
1548456047644,-0.965820,-0.115112,0.227722,16.402439,82.439026,68.475609
1548456047652,-0.973999,-0.089966,0.214844,15.365854,79.146347,66.707321
1548456047659,-0.980896,-0.082092,0.198853,14.817074,75.914635,65.182930
1548456047674,-0.988770,-0.077209,0.187317,14.939025,72.621956,62.865856
1548456047682,-0.992737,-0.070068,0.183533,15.060976,69.024391,61.829269
1548456047689,-1.004089,-0.069031,0.178955,14.268293,65.365852,61.280491
1548456047704,-1.012939,-0.061707,0.180359,13.048780,61.463417,60.914635
1548456047712,-1.008118,-0.055542,0.180054,11.280488,58.536587,61.219513
1548456047719,-1.003235,-0.056396,0.181335,8.231708,56.890244,62.317074
1548456047734,-1.012146,-0.050964,0.182678,5.060976,55.914635,63.475613
1548456047742,-1.026489,-0.037964,0.188110,2.439024,55.731709,65.487808
1548456047749,-1.028259,-0.019653,0.189819,-0.426829,56.341465,67.682930
1548456047764,-1.016907,0.000000,0.179260,-4.024390,57.865856,69.207321
1548456047772,-1.004944,0.016479,0.168457,-6.036585,60.243904,70.000000
1548456047779,-1.002808,0.031433,0.157837,-4.329268,62.865856,69.939026
1548456047794,-1.004761,0.036377,0.140808,0.365854,66.036591,70.121956
1548456047802,-1.022461,0.025879,0.141846,5.853659,69.512199,70.975609
1548456047809,-1.047119,0.028320,0.117859,9.695122,72.134148,72.195122
1548456047824,-1.055115,0.013733,0.087830,10.121951,75.304878,74.573174
1548456047832,-1.071899,0.022339,0.089539,8.292683,75.000000,74.451218
1548456047839,-1.060852,0.036499,0.090088,6.585366,71.707321,74.146339
1548456047854,-1.038269,0.054810,0.088928,6.097561,71.585365,73.475609
1548456047862,-1.016602,0.077820,0.061340,5.975610,76.280487,73.963417
1548456047869,-1.008545,0.097290,0.035095,7.439024,84.024391,75.304878
1548456047884,-1.008972,0.116638,0.014954,10.426829,89.329269,76.402443
1548456047892,-1.009033,0.132263,-0.016602,13.780488,92.439026,77.378052
1548456047899,-1.012634,0.139038,-0.047424,16.280489,94.329269,77.439026
1548456047914,-1.030334,0.147278,-0.058838,17.804878,94.146347,76.402443
1548456047922,-1.040222,0.168030,-0.087341,18.536585,92.134148,75.243904
1548456047929,-1.055786,0.158752,-0.121338,18.170732,91.036591,73.292686
1548456047944,-1.064941,0.159241,-0.097595,16.951220,90.060974,70.731712
1548456047952,-1.036804,0.185730,-0.106323,16.402439,87.134148,69.817078
1548456047959,-1.000183,0.200256,-0.136963,13.109756,87.987808,70.670731
1548456047974,-0.965393,0.216980,-0.156006,9.451220,88.231712,71.524391
1548456047982,-0.946289,0.244751,-0.187439,6.890244,85.426834,72.439026
1548456047989,-0.938110,0.263611,-0.206726,4.207317,82.378052,73.231712
1548456048004,-0.907959,0.289490,-0.234497,2.134146,78.353661,72.987808
1548456048012,-0.906250,0.293579,-0.263733,0.487805,74.756096,72.621956
1548456048019,-0.881531,0.315430,-0.283752,-1.402439,70.365852,71.036591
1548456048034,-0.856506,0.335510,-0.320618,-4.512195,65.792686,68.780487
1548456048042,-0.839966,0.354492,-0.329956,-8.719512,59.939026,66.158539
1548456048049,-0.852295,0.381958,-0.319092,-11.036586,51.829269,63.109756
1548456048064,-0.871277,0.403931,-0.299744,-12.987805,42.621952,59.695122
1548456048072,-0.856018,0.431824,-0.299805,-13.109756,37.073170,56.097561
1548456048079,-0.862793,0.449402,-0.314758,-11.280488,35.060978,53.414635
1548456048094,-0.850037,0.463013,-0.327637,-7.804878,33.231709,51.402439
1548456048102,-0.848389,0.485535,-0.360107,-4.085366,31.463415,50.000000
1548456048109,-0.853882,0.485291,-0.415100,-0.792683,29.329269,49.390244
1548456048124,-0.819275,0.470093,-0.457092,0.914634,24.817074,44.939026
1548456048132,-0.775574,0.449890,-0.478516,2.378049,16.768293,37.256100
1548456048140,-0.764465,0.439575,-0.474854,-0.121951,5.426829,29.268293
1548456048154,-0.759827,0.459717,-0.440735,-9.817074,-10.060976,23.902439
1548456048162,-0.785400,0.508789,-0.379944,-22.256098,-25.000000,18.963415
1548456048169,-0.812073,0.542542,-0.327454,-30.670732,-35.365856,14.207317
1548456048184,-0.829407,0.576233,-0.270935,-30.975611,-38.475609,10.060976
1548456048192,-0.860168,0.577942,-0.243225,-24.207317,-35.670734,5.975610
1548456048199,-0.865845,0.556091,-0.216919,-13.780488,-30.182928,1.219512
1548456048214,-0.865601,0.537048,-0.208252,-4.146341,-23.414635,-2.378049
1548456048222,-0.869446,0.523010,-0.197571,1.707317,-17.621952,-4.939024
1548456048229,-0.890320,0.505127,-0.191650,4.573171,-13.170732,-6.463415
1548456048244,-0.912476,0.506470,-0.161865,5.548780,-9.939025,-7.621952
1548456048252,-0.929504,0.480957,-0.180908,5.609756,-7.682927,-8.597561
1548456048259,-0.918091,0.468689,-0.186218,4.756098,-5.609756,-10.548780
1548456048274,-0.950073,0.460632,-0.157471,4.695122,-4.512195,-11.585366
1548456048282,-0.970947,0.422058,-0.164490,6.097561,-4.573171,-12.743903
1548456048289,-0.947266,0.403259,-0.181152,8.170732,-1.585366,-13.841464
1548456048304,-0.953125,0.412415,-0.174072,7.743903,2.621951,-13.780488
1548456048312,-0.957520,0.397949,-0.191650,8.475610,5.121951,-13.597561
1548456048319,-0.957703,0.398926,-0.197693,12.317074,9.451220,-13.536586
1548456048334,-0.963928,0.373108,-0.220947,15.975610,12.865854,-13.109756
1548456048342,-0.957214,0.367065,-0.232605,18.109756,14.756098,-13.658537
1548456048349,-0.938232,0.365906,-0.248840,18.597561,16.158537,-13.170732
1548456048364,-0.920288,0.362305,-0.267700,18.597561,17.743902,-11.707317
1548456048372,-0.907654,0.356384,-0.281433,18.902439,18.597561,-9.939025
1548456048379,-0.918762,0.350525,-0.294678,19.085367,18.109756,-9.390244
1548456048394,-0.923401,0.346069,-0.308105,18.902439,16.524391,-9.634147
1548456048402,-0.907166,0.344299,-0.322144,18.780489,15.243903,-9.939025
1548456048409,-0.893005,0.344299,-0.324646,17.682928,14.024390,-9.146341
1548456048424,-0.889587,0.341553,-0.337219,16.097561,12.560976,-7.926829
1548456048439,-0.879639,0.348022,-0.349304,14.817074,11.402439,-6.951220
1548456048440,-0.866821,0.358826,-0.354614,13.597561,9.695122,-6.280488
1548456048454,-0.862122,0.364502,-0.360046,12.317074,7.317073,-5.853659
1548456048462,-0.868164,0.371216,-0.358582,10.792684,4.695122,-5.609756
1548456048469,-0.870239,0.385742,-0.348083,8.719512,1.097561,-5.731708
1548456048484,-0.871704,0.407410,-0.340698,7.134147,-1.646341,-5.853659
1548456048492,-0.875061,0.428467,-0.333374,6.585366,-3.231707,-6.219512
1548456048499,-0.886841,0.439514,-0.325073,7.378049,-4.390244,-7.073171
1548456048514,-0.886414,0.445679,-0.321411,8.841464,-4.390244,-8.536586
1548456048522,-0.887329,0.455017,-0.308411,10.060976,-4.024390,-10.487805
1548456048529,-0.886230,0.449951,-0.299011,11.158537,-5.487805,-12.256098
1548456048552,-0.885864,0.444336,-0.290588,12.500000,-5.914634,-13.719513
1548456048559,-0.884338,0.446838,-0.289673,13.353659,-6.280488,-14.817074
1548456048560,-0.879395,0.448608,-0.302063,13.841464,-6.158537,-15.914635
1548456048574,-0.893921,0.450317,-0.306580,14.634147,-6.524390,-18.170732
1548456048582,-0.908691,0.443604,-0.308472,15.426829,-7.987805,-20.914635
1548456048589,-0.903748,0.419739,-0.324585,16.829269,-6.951220,-23.109756
1548456048604,-0.895752,0.398804,-0.338867,17.378050,-6.219512,-25.304878
1548456048612,-0.896057,0.378784,-0.349854,16.463415,-8.902439,-28.048780
1548456048619,-0.897278,0.363647,-0.362366,14.451220,-12.317074,-30.670732
1548456048634,-0.903809,0.349243,-0.367310,12.378049,-15.487805,-33.353661
1548456048642,-0.913879,0.336731,-0.378357,10.304878,-18.658537,-36.158539
1548456048649,-0.922546,0.322632,-0.383362,8.597561,-22.134148,-40.182926
1548456048664,-0.919861,0.307922,-0.377319,7.012195,-25.609756,-45.000000
1548456048672,-0.910583,0.285889,-0.371765,5.792683,-29.024391,-49.634148
1548456048679,-0.898560,0.259155,-0.367493,3.780488,-32.500000,-54.451221
1548456048695,-0.898071,0.233154,-0.365417,0.670732,-37.317074,-59.878052
1548456048702,-0.909424,0.213379,-0.356506,-2.865854,-42.682926,-65.304878
1548456048709,-0.920959,0.198059,-0.351074,-6.280488,-47.012196,-70.060974
1548456048724,-0.927429,0.187195,-0.344177,-9.268292,-50.914635,-74.512199
1548456048739,-0.929016,0.176636,-0.336121,-11.585366,-55.670734,-79.146347
1548456048740,-0.925659,0.166260,-0.316345,-13.841464,-61.097561,-84.329269
1548456048754,-0.934387,0.153931,-0.296997,-15.304878,-69.390244,-89.451225
1548456048762,-0.932434,0.147827,-0.285400,-15.975610,-77.926834,-94.268295
1548456048769,-0.924377,0.102722,-0.240356,-14.268293,-86.585365,-99.085365
1548456048785,-0.925964,0.097107,-0.187744,-12.134147,-95.670731,-102.987808
1548456048792,-0.950928,0.092529,-0.159790,-9.878049,-100.975609,-101.402443
1548456048799,-0.973694,0.077209,-0.130310,-10.304878,-102.926834,-101.341469
1548456048814,-0.987549,0.068970,-0.090515,-11.219512,-103.170731,-102.500000
1548456048822,-0.984497,0.064392,-0.066467,-11.402439,-103.414635,-104.268295
1548456048829,-0.973389,0.057068,-0.049561,-10.792684,-103.048782,-106.097565
1548456048844,-0.964661,0.039185,-0.024414,-8.475610,-104.146347,-108.475609
1548456048852,-0.958008,0.017212,0.016113,-5.731708,-106.768295,-111.097565
1548456048859,-0.970642,-0.006653,0.041504,-3.841464,-110.609756,-112.804878
1548456048874,-0.981018,-0.029053,0.073303,-2.926829,-112.743904,-112.195122
1548456048882,-0.976807,-0.046753,0.098816,-2.743902,-113.841469,-109.817078
1548456048889,-0.948547,-0.063171,0.110901,-2.500000,-113.231712,-105.243904
1548456048904,-0.948486,-0.081848,0.122559,-2.073171,-112.926834,-99.878052
1548456048912,-0.964050,-0.104675,0.142761,-1.890244,-114.878052,-94.695122
1548456048919,-0.966919,-0.116272,0.167419,-1.646341,-116.646347,-90.609756
1548456048934,-0.974365,-0.130981,0.189636,-1.158537,-117.682930,-87.317078
1548456048942,-0.978149,-0.151428,0.207275,-0.304878,-118.414635,-85.060974
1548456048949,-0.985474,-0.177002,0.212830,0.000000,-119.085365,-83.231712
1548456048964,-0.981079,-0.199829,0.223450,-0.853659,-120.304878,-82.439026
1548456048972,-0.957947,-0.237305,0.277527,-1.402439,-124.695122,-83.231712
1548456048979,-0.943604,-0.247620,0.261047,-4.634146,-126.158539,-83.597565
1548456048994,-0.938171,-0.274109,0.274536,-10.304878,-122.682930,-82.256096
1548456049002,-0.934509,-0.289490,0.303589,-14.817074,-126.707321,-82.865852
1548456049009,-0.934814,-0.305603,0.322876,-19.451220,-130.000000,-83.170731
1548456049024,-0.925842,-0.311035,0.340942,-24.024391,-131.585373,-82.987808
1548456049032,-0.903625,-0.310974,0.359497,-27.012196,-132.073181,-83.414635
1548456049039,-0.890442,-0.316467,0.376282,-28.963415,-132.134155,-84.695122
1548456049054,-0.872559,-0.331482,0.387573,-30.000000,-133.170731,-86.585365
1548456049062,-0.870422,-0.346191,0.383850,-30.000000,-134.329269,-88.902443
1548456049069,-0.849854,-0.369629,0.440369,-29.207317,-136.280487,-91.402443
1548456049084,-0.833313,-0.394592,0.472046,-26.463415,-143.719513,-94.634148
1548456049092,-0.833130,-0.409058,0.465820,-28.475611,-138.902435,-94.756104
1548456049099,-0.831543,-0.427795,0.491028,-31.341465,-135.792679,-95.365852
1548456049122,-0.822083,-0.441223,0.513672,-32.926830,-136.646347,-96.890244
1548456049122,-0.786865,-0.453796,0.534973,-34.756100,-135.060974,-96.951225
1548456049129,-0.754944,-0.466553,0.563477,-35.792683,-131.585373,-95.426834
1548456049144,-0.734680,-0.480469,0.581360,-36.463417,-128.353668,-92.804878
1548456049152,-0.722656,-0.507568,0.596985,-37.378048,-124.024391,-89.146347
1548456049159,-0.714600,-0.528625,0.625977,-37.256100,-118.414635,-85.182930
1548456049174,-0.719177,-0.545288,0.660095,-35.731709,-112.804878,-80.304878
1548456049182,-0.733582,-0.573303,0.692688,-34.207317,-107.195122,-74.695122
1548456049189,-0.745056,-0.605530,0.722351,-32.256100,-99.634148,-68.658539
1548456049204,-0.749634,-0.626343,0.738770,-29.634148,-89.024391,-62.804878
1548456049212,-0.720764,-0.628418,0.743958,-25.975611,-76.524391,-56.524391
1548456049220,-0.660583,-0.615967,0.743042,-20.609756,-61.951221,-48.963417
1548456049234,-0.599243,-0.596680,0.723694,-13.963415,-48.231709,-41.646343
1548456049242,-0.559998,-0.591736,0.694275,-7.926829,-39.024391,-36.097561
1548456049250,-0.547791,-0.601990,0.671021,-3.475610,-34.451221,-32.926830
1548456049264,-0.553833,-0.615173,0.659790,-0.975610,-33.048782,-30.914635
1548456049272,-0.556213,-0.618103,0.663025,-0.243902,-32.865856,-28.841465
1548456049279,-0.558533,-0.609131,0.667542,0.000000,-32.317074,-26.097561
1548456049294,-0.565308,-0.595825,0.664856,0.792683,-31.585367,-23.475611
1548456049302,-0.567993,-0.587219,0.654846,0.792683,-30.670732,-21.890244
1548456049309,-0.567627,-0.581238,0.641541,0.243902,-29.634148,-21.097561
1548456049332,-0.565796,-0.579407,0.634033,-0.060976,-28.841465,-20.121952
1548456049332,-0.567810,-0.574707,0.635681,-0.243902,-28.902439,-19.146341
1548456049339,-0.564880,-0.571228,0.632996,-0.182927,-29.573172,-18.414635
1548456049355,-0.560303,-0.571594,0.627502,0.182927,-30.853659,-18.475611
1548456049362,-0.554871,-0.568359,0.615112,0.609756,-32.500000,-19.512196
1548456049392,-0.551086,-0.558838,0.612488,0.060976,-34.390244,-21.097561
1548456049407,-0.551331,-0.550110,0.619446,-3.170732,-36.463417,-22.926830
1548456049407,-0.550598,-0.547913,0.633484,-7.012195,-38.597561,-24.817074
1548456049408,-0.547913,-0.546997,0.641846,-7.560976,-40.975609,-26.402439
1548456049422,-0.539734,-0.554260,0.638489,-6.585366,-43.475613,-27.926830
1548456049422,-0.530212,-0.562744,0.633362,-6.768293,-45.853661,-29.878050
1548456049444,-0.516907,-0.573608,0.633972,-7.317073,-48.048782,-32.317074
1548456049445,-0.499207,-0.582031,0.643188,-8.231708,-49.756100,-34.390244
1548456049459,-0.485413,-0.591187,0.661194,-9.085366,-50.914635,-35.548782
1548456049460,-0.482422,-0.606628,0.683289,-10.365854,-52.134148,-35.670734
1548456049475,-0.483337,-0.625000,0.707886,-11.951220,-53.353661,-36.158539
1548456049482,-0.471802,-0.633362,0.723328,-13.841464,-53.475613,-37.012196
1548456049489,-0.450928,-0.628662,0.724609,-15.121951,-52.865856,-36.768295
1548456049504,-0.426208,-0.617920,0.717102,-15.243903,-52.195122,-35.548782
1548456049512,-0.400513,-0.619263,0.702698,-14.390244,-51.463417,-34.878048
1548456049519,-0.382080,-0.648010,0.706177,-13.597561,-51.707317,-35.243904
1548456049534,-0.425720,-0.711365,0.778503,-12.378049,-53.475613,-35.731709
1548456049542,-0.528625,-0.778748,0.881348,-10.182927,-58.963417,-35.548782
1548456049549,-0.505859,-0.719543,0.879761,-6.402439,-60.243904,-33.597561
1548456049564,-0.362427,-0.633911,0.746521,-3.597561,-50.914635,-28.902439
1548456049572,-0.332153,-0.648743,0.677551,-4.207317,-41.219513,-24.451220
1548456049579,-0.359802,-0.666565,0.722717,-4.390244,-39.024391,-24.024391
1548456049602,-0.357971,-0.674377,0.747131,-3.963415,-40.853661,-23.353659
1548456049602,-0.347717,-0.664673,0.739441,-5.243903,-40.975609,-22.256098
1548456049610,-0.340637,-0.660400,0.741150,-5.975610,-39.878048,-21.036587
1548456049625,-0.306030,-0.657104,0.692261,-4.512195,-38.109756,-20.487804
1548456049632,-0.324829,-0.674683,0.713440,-3.658537,-35.243904,-20.000000
1548456049639,-0.329468,-0.673889,0.746338,-4.939024,-36.524391,-19.512196
1548456049654,-0.292725,-0.685974,0.710693,-4.939024,-38.292683,-17.560976
1548456049662,-0.313538,-0.668762,0.735779,-4.573171,-38.902439,-17.012196
1548456049677,-0.324463,-0.649048,0.754333,-5.304878,-42.012196,-17.865854
1548456049684,-0.306396,-0.666321,0.749084,-3.414634,-42.804878,-18.048780
1548456049692,-0.284485,-0.664307,0.754333,-0.182927,-41.646343,-18.658537
1548456049707,-0.277161,-0.666809,0.756165,0.121951,-40.548782,-19.817074
1548456049714,-0.294983,-0.642883,0.759949,-1.097561,-38.475609,-23.902439
1548456049729,-0.257019,-0.673523,0.750305,-0.121951,-35.487804,-24.512196
1548456049730,-0.261963,-0.663086,0.759949,0.975610,-33.048782,-28.475611
1548456049744,-0.254700,-0.669250,0.765259,0.243902,-30.365854,-30.914635
1548456049752,-0.235352,-0.680359,0.766724,0.243902,-27.317074,-31.951220
1548456049767,-0.223145,-0.690857,0.773987,-0.121951,-24.390244,-30.000000
1548456049782,-0.225708,-0.685425,0.776978,-2.865854,-21.402439,-28.597561
1548456049782,-0.217041,-0.693542,0.773132,-6.402439,-17.926830,-27.439026
1548456049789,-0.209961,-0.692566,0.769043,-8.475610,-14.878049,-24.756098
1548456049804,-0.211853,-0.694275,0.759277,-11.036586,-11.890244,-22.621952
1548456049819,-0.207947,-0.695801,0.752075,-13.170732,-9.939025,-19.207317
1548456049820,-0.208313,-0.697327,0.746033,-13.902439,-8.841464,-16.585365
1548456049835,-0.202820,-0.695251,0.740295,-14.756098,-7.865854,-14.939025
1548456049849,-0.203125,-0.699768,0.735168,-15.060976,-7.134147,-14.390244
1548456049850,-0.200867,-0.701721,0.734741,-14.207317,-7.073171,-12.987805
1548456049872,-0.197693,-0.703369,0.731018,-12.926829,-7.073171,-11.829268
1548456049872,-0.198792,-0.703552,0.728821,-11.890244,-6.768293,-11.402439
1548456049887,-0.194275,-0.705505,0.730103,-10.182927,-6.707317,-10.609756
1548456049902,-0.192810,-0.706055,0.728088,-8.414635,-6.951220,-9.878049
1548456049910,-0.192688,-0.705688,0.728333,-7.134147,-6.951220,-8.780488
1548456049910,-0.188599,-0.705811,0.727051,-5.548780,-6.646342,-7.865854
1548456049924,-0.187134,-0.708801,0.725586,-4.146341,-6.402439,-7.073171
1548456049939,-0.186340,-0.709167,0.725098,-2.560976,-5.853659,-6.219512
1548456049940,-0.185669,-0.707825,0.729370,-0.914634,-5.243903,-5.182927
1548456049955,-0.183777,-0.705322,0.729675,0.182927,-4.634146,-4.268293
1548456049962,-0.181152,-0.705505,0.734070,1.158537,-4.268293,-3.597561
1548456049969,-0.185303,-0.706299,0.731628,1.829268,-3.902439,-3.048780
1548456049992,-0.183655,-0.706055,0.731873,2.012195,-3.292683,-2.317073
1548456049992,-0.182190,-0.704651,0.732544,2.256098,-2.926829,-1.768293
1548456050007,-0.184570,-0.705444,0.733643,2.743902,-2.621951,-1.402439
1548456050014,-0.184937,-0.702515,0.734558,3.170732,-2.378049,-1.036585
1548456050022,-0.184143,-0.701782,0.734070,3.170732,-2.256098,-0.914634
1548456050029,-0.185852,-0.700989,0.735107,2.987805,-2.073171,-0.670732
1548456050044,-0.183533,-0.701294,0.731934,2.987805,-1.768293,-0.426829
1548456050052,-0.183289,-0.699036,0.732239,3.109756,-1.707317,-0.426829
1548456050059,-0.183411,-0.700806,0.735474,3.048780,-1.585366,-0.548781
1548456050074,-0.181519,-0.698181,0.736389,2.804878,-1.646341,-0.609756
1548456050082,-0.182251,-0.698181,0.737244,2.621951,-1.646341,-0.487805
1548456050097,-0.180481,-0.698608,0.738403,2.378049,-1.524390,-0.426829
1548456050104,-0.181763,-0.698730,0.741760,2.073171,-1.341463,-0.548781
1548456050112,-0.181152,-0.700684,0.741943,1.402439,-1.219512,-0.487805
1548456050127,-0.182556,-0.699463,0.739014,0.548781,-1.036585,-0.487805
1548456050134,-0.182129,-0.700195,0.736572,-0.426829,-0.853659,-0.182927
1548456050149,-0.182556,-0.700867,0.736694,-1.097561,-0.731707,-0.060976
1548456050150,-0.181763,-0.701599,0.737610,-1.280488,-0.670732,0.060976
1548456050164,-0.182556,-0.700562,0.733337,-1.646341,-0.609756,0.060976
1548456050172,-0.181824,-0.700317,0.731750,-2.134146,-0.609756,0.000000
1548456050179,-0.181152,-0.700745,0.729980,-2.256098,-0.609756,0.000000
1548456050194,-0.182861,-0.700623,0.728455,-2.012195,-0.792683,0.000000
1548456050202,-0.180542,-0.700562,0.733337,-1.280488,-0.914634,0.000000
1548456050232,-0.182129,-0.701782,0.735657,-0.365854,-0.975610,-0.243902
1548456050239,-0.180847,-0.703247,0.732178,0.121951,-1.097561,-0.304878
1548456050240,-0.180542,-0.703186,0.734802,0.365854,-1.036585,-0.304878
1548456050240,-0.179199,-0.701172,0.736145,0.792683,-0.914634,-0.060976
1548456050254,-0.180786,-0.701965,0.734314,0.853659,-0.670732,0.182927
1548456050269,-0.182861,-0.701843,0.733276,0.792683,-0.548781,0.243902
1548456050270,-0.179199,-0.701477,0.735107,0.670732,-0.426829,0.487805
1548456050285,-0.179932,-0.701721,0.734009,0.731707,-0.182927,0.731707
1548456050292,-0.182251,-0.702576,0.730225,0.670732,-0.060976,0.792683
1548456050322,-0.181213,-0.703064,0.732544,0.975610,0.000000,0.975610
1548456050322,-0.180481,-0.701538,0.733948,1.524390,0.182927,1.097561
1548456050323,-0.181702,-0.700867,0.732300,1.829268,0.182927,1.097561
1548456050337,-0.182800,-0.702271,0.732422,2.134146,0.121951,1.219512
1548456050359,-0.180847,-0.701904,0.736206,2.621951,0.060976,1.158537
1548456050360,-0.182861,-0.701965,0.741577,3.170732,0.121951,1.341463
1548456050361,-0.182983,-0.702271,0.741760,3.170732,0.365854,1.707317
1548456050375,-0.183105,-0.703308,0.740479,2.682927,0.853659,2.073171
1548456050389,-0.185059,-0.701904,0.737244,2.317073,1.341463,2.378049
1548456050390,-0.185730,-0.702820,0.737915,2.256098,1.646341,2.804878
1548456050404,-0.184937,-0.700867,0.737305,2.682927,2.012195,3.231707
1548456050412,-0.184265,-0.701782,0.738037,3.536585,2.256098,3.719512
1548456050442,-0.186035,-0.701416,0.740784,4.512195,2.682927,4.268293
1548456050457,-0.187500,-0.702454,0.742249,5.731708,3.231707,4.756098
1548456050457,-0.185425,-0.701416,0.742615,6.768293,3.902439,5.365854
1548456050458,-0.188538,-0.699951,0.742859,8.231708,4.878049,6.158537
1548456050464,-0.190430,-0.698425,0.745117,9.817074,6.219512,7.317073
1548456050472,-0.194946,-0.698120,0.743896,11.768293,7.621952,8.292683
1548456050480,-0.196838,-0.696472,0.738708,14.756098,8.841464,9.451220
1548456050495,-0.197083,-0.698181,0.735901,18.414635,10.000000,10.426829
1548456050509,-0.195740,-0.698486,0.736877,22.865854,10.487805,11.707317
1548456050510,-0.203430,-0.696594,0.741150,27.865854,10.426829,13.536586
1548456050524,-0.205994,-0.696106,0.749939,33.231709,10.121951,16.158537
1548456050532,-0.211365,-0.690308,0.763184,38.841465,10.000000,19.390244
1548456050547,-0.215454,-0.681580,0.778870,43.963417,10.000000,23.231709
1548456050562,-0.220459,-0.678162,0.788147,48.353661,10.975610,27.500000
1548456050562,-0.242188,-0.665771,0.807068,51.463417,13.231708,31.768293
1548456050569,-0.258484,-0.649109,0.824402,53.841465,16.402439,36.524391
1548456050584,-0.290222,-0.637390,0.851929,57.621952,21.524391,41.463417
1548456050599,-0.375488,-0.629822,0.897644,61.646343,29.024391,46.036587
1548456050600,-0.418213,-0.637512,0.921448,64.695122,40.914635,51.890244
1548456050615,-0.428101,-0.664001,0.922913,67.439026,61.158539,58.963417
1548456050637,-0.470642,-0.675049,0.907410,68.231712,81.524391,65.426834
1548456050637,-0.400085,-0.692078,0.881592,65.670731,103.841469,72.378052
1548456050659,-0.282715,-0.693054,0.876343,61.463417,122.987808,76.707321
1548456050674,-0.211975,-0.668091,0.859985,56.280491,125.000000,77.378052
1548456050675,-0.220398,-0.629700,0.822144,49.085365,111.341469,74.817078
1548456050676,-0.294495,-0.588196,0.808350,40.731709,89.024391,72.195122
1548456050689,-0.385925,-0.552917,0.823914,33.719513,67.987808,71.463417
1548456050690,-0.454773,-0.545105,0.841248,27.743902,58.048782,73.475609
1548456050704,-0.487000,-0.540588,0.857666,22.621952,60.853661,76.463417
1548456050712,-0.484131,-0.526611,0.865662,19.329269,72.439026,79.085365
1548456050719,-0.465454,-0.509583,0.856445,17.804878,86.707321,81.646347
1548456050734,-0.454224,-0.482605,0.828369,17.865854,97.500000,83.719513
1548456050742,-0.456360,-0.464478,0.796021,18.719513,102.195122,85.243904
1548456050749,-0.481506,-0.457153,0.764587,18.597561,101.951225,85.853661
1548456050764,-0.531067,-0.450317,0.744080,18.536585,99.634148,86.097565
1548456050772,-0.578369,-0.452942,0.738037,18.292683,98.536591,86.280487
1548456050779,-0.606689,-0.449585,0.737183,15.853659,100.548782,86.341469
1548456050794,-0.619324,-0.428650,0.737000,12.682927,105.000000,85.914635
1548456050802,-0.626282,-0.404724,0.731567,11.036586,109.146347,85.914635
1548456050809,-0.639404,-0.386719,0.718018,10.853659,112.743904,86.219513
1548456050832,-0.662964,-0.371826,0.703247,11.280488,114.817078,86.280487
1548456050832,-0.693848,-0.362061,0.682312,12.073171,116.036591,86.036591
1548456050839,-0.714294,-0.351562,0.661621,12.987805,118.292686,85.548782
1548456050854,-0.729553,-0.340393,0.647583,13.658537,121.036591,84.512199
1548456050862,-0.751953,-0.326355,0.629944,13.414635,123.353661,83.353661
1548456050869,-0.778137,-0.319824,0.608093,13.292684,125.365860,82.439026
1548456050884,-0.797424,-0.315674,0.584717,14.146341,127.439026,81.463417
1548456050892,-0.810242,-0.307861,0.562561,14.878049,129.695129,80.426834
1548456050899,-0.822083,-0.297546,0.538208,14.390244,131.463425,79.085365
1548456050914,-0.829346,-0.281311,0.517334,12.682927,132.743912,77.256096
1548456050937,-0.842102,-0.264709,0.497498,10.975610,133.231705,75.060974
1548456050945,-0.852905,-0.245544,0.476074,9.695122,132.804886,72.865852
1548456050945,-0.862610,-0.230530,0.457642,8.780488,132.073181,70.914635
1548456050959,-0.867188,-0.211975,0.436157,8.231708,130.792679,69.085365
1548456050960,-0.877380,-0.198181,0.419128,8.109756,128.658539,67.195122
1548456050974,-0.885376,-0.177246,0.405762,8.170732,126.341469,65.182930
1548456050989,-0.896790,-0.161316,0.387329,8.658537,124.085365,62.865856
1548456050990,-0.909546,-0.143372,0.376221,9.451220,122.378052,60.853661
1548456051004,-0.918579,-0.126160,0.362122,10.426829,120.853661,59.024391
1548456051012,-0.934387,-0.115051,0.346375,11.768293,119.329269,57.500000
1548456051019,-0.946472,-0.103699,0.326355,13.109756,117.621956,56.280491
1548456051034,-0.960632,-0.096741,0.305176,14.573171,116.097565,54.939026
1548456051042,-0.966919,-0.091003,0.283264,15.670732,114.817078,53.414635
1548456051049,-0.961426,-0.077148,0.258911,16.280489,113.902443,51.707317
1548456051064,-0.970703,-0.075439,0.233704,16.585365,113.048782,50.121952
1548456051072,-0.978210,-0.074158,0.207336,16.585365,111.280487,48.536587
1548456051079,-0.981323,-0.074463,0.181580,16.402439,109.329269,47.317074
1548456051094,-0.992065,-0.075806,0.157532,15.792684,107.012199,46.646343
1548456051102,-1.000183,-0.075500,0.136780,14.329268,104.573174,46.097561
1548456051110,-1.003601,-0.075073,0.124146,12.012196,102.500000,45.487804
1548456051124,-1.004822,-0.066956,0.103760,9.268292,100.365852,45.182926
1548456051132,-1.008240,-0.066956,0.096741,6.829268,99.634148,45.121952
1548456051139,-1.018066,-0.061707,0.049438,3.963415,101.219513,45.304878
1548456051154,-1.020935,-0.051208,0.030151,0.304878,106.951225,46.402439
1548456051162,-1.027893,-0.045227,0.022583,-2.012195,103.719513,46.341465
1548456051169,-1.025513,-0.044189,0.011780,-2.500000,97.378052,45.060978
1548456051184,-1.014038,-0.038330,-0.003784,-3.414634,94.268295,44.146343
1548456051199,-1.005737,-0.030945,-0.025574,-4.817073,91.768295,43.414635
1548456051200,-1.002319,-0.023193,-0.048096,-5.914634,87.926834,42.865856
1548456051215,-1.006836,-0.017761,-0.055420,-6.951220,83.536591,42.560978
1548456051222,-1.011780,-0.007690,-0.071533,-7.682927,79.146347,42.256100
1548456051229,-1.018860,-0.000305,-0.082458,-7.987805,75.792686,42.012196
1548456051244,-1.019104,0.009888,-0.092651,-7.804878,73.231712,41.585365
1548456051252,-1.026001,0.015930,-0.103271,-7.439024,71.036591,41.097561
1548456051259,-1.020630,0.023621,-0.118347,-6.768293,69.146339,40.731709
1548456051274,-1.016968,0.038086,-0.132141,-6.158537,67.865852,40.243904
1548456051282,-1.022705,0.047607,-0.147095,-5.914634,66.524391,39.817074
1548456051289,-1.028320,0.054382,-0.149780,-5.548780,64.512199,39.512196
1548456051304,-1.003113,0.075500,-0.160400,-3.780488,62.195122,39.207317
1548456051312,-0.978699,0.094604,-0.176147,-1.036585,60.365856,38.658539
1548456051319,-0.998901,0.092285,-0.181091,1.402439,57.865856,37.256100
1548456051334,-1.012878,0.098694,-0.180786,3.719512,54.451221,35.060978
1548456051342,-1.011780,0.108887,-0.184509,5.853659,53.292683,33.597561
1548456051349,-0.998230,0.120850,-0.199463,6.646342,54.085365,32.560978
1548456051364,-0.990967,0.126892,-0.216980,6.707317,54.573174,31.463415
1548456051372,-0.996887,0.130432,-0.236572,6.951220,53.536587,30.304878
1548456051379,-0.994263,0.126892,-0.245911,7.804878,51.158539,28.780489
1548456051394,-0.990356,0.132385,-0.241943,9.329268,48.231709,27.500000
1548456051402,-0.985168,0.137329,-0.245789,10.426829,45.060978,26.890245
1548456051409,-0.972900,0.139465,-0.258240,10.548780,43.109756,26.524391
1548456051424,-0.983154,0.133545,-0.263062,10.121951,41.341465,25.853659
1548456051432,-0.981812,0.136597,-0.261902,9.512196,38.780487,24.939026
1548456051439,-0.966064,0.149719,-0.279785,8.902439,37.682926,24.695122
1548456051454,-0.961914,0.156860,-0.286865,8.475610,37.256100,24.329269
1548456051462,-0.971436,0.158508,-0.288879,8.597561,35.243904,23.536587
1548456051469,-0.987122,0.156189,-0.292603,9.146341,33.170731,22.500000
1548456051484,-0.979309,0.162231,-0.297302,10.304878,32.560978,21.951220
1548456051492,-0.962219,0.167480,-0.306519,11.402439,32.621952,21.524391
1548456051499,-0.973816,0.162964,-0.314575,12.317074,31.951220,20.853659
1548456051515,-0.973877,0.160828,-0.308411,13.170732,30.060976,19.817074
1548456051522,-0.962463,0.162781,-0.319519,14.024390,29.512196,19.207317
1548456051529,-0.954346,0.167236,-0.325806,14.878049,30.060976,18.841463
1548456051544,-0.957092,0.170776,-0.333435,15.548780,30.304878,17.926830
1548456051552,-0.968689,0.171936,-0.332703,16.036585,29.878050,16.768293
1548456051559,-0.967834,0.172852,-0.338318,16.768293,29.512196,15.792684
1548456051574,-0.950562,0.177795,-0.351685,17.500000,30.000000,15.182927
1548456051582,-0.959106,0.176514,-0.358582,18.597561,30.365854,14.268293
1548456051589,-0.960815,0.175781,-0.356506,19.390244,29.329269,13.292684
1548456051604,-0.953369,0.175659,-0.360107,19.939024,28.780489,12.317074
1548456051612,-0.954407,0.171143,-0.367554,20.121952,28.719513,11.585366
1548456051619,-0.949402,0.176941,-0.373169,19.817074,28.841465,10.975610
1548456051634,-0.951294,0.182434,-0.379578,19.268293,28.780489,10.304878
1548456051642,-0.939758,0.185303,-0.385132,18.719513,28.597561,9.512196
1548456051649,-0.920166,0.189941,-0.400757,18.658537,28.292683,8.536586
1548456051664,-0.928162,0.182434,-0.413208,19.024391,27.804878,7.256098
1548456051672,-0.946838,0.172974,-0.411377,19.085367,25.670732,5.731708
1548456051679,-0.949341,0.166992,-0.421448,19.451220,23.475611,4.756098
1548456051694,-0.943726,0.162598,-0.430359,19.634148,22.560976,3.597561
1548456051702,-0.925537,0.158386,-0.435303,18.963415,20.975611,2.865854
1548456051709,-0.922546,0.167175,-0.432312,17.378050,19.268293,2.256098
1548456051724,-0.950195,0.155396,-0.437561,15.304878,16.097561,0.792683
1548456051732,-0.943542,0.134644,-0.453918,12.439025,12.134147,-1.036585
1548456051739,-0.946533,0.115051,-0.457764,9.512196,9.329268,-4.878049
1548456051754,-0.931763,0.126648,-0.439575,4.695122,4.268293,-7.621952
1548456051762,-0.906799,0.186279,-0.404602,-1.585366,-0.426829,-6.219512
1548456051769,-0.931946,0.229736,-0.371704,-5.243903,-2.012195,-2.012195
1548456051784,-0.923218,0.239685,-0.374878,-2.134146,0.609756,1.280488
1548456051792,-0.902344,0.222778,-0.404053,7.195122,8.597561,0.975610
1548456051799,-0.943604,0.183472,-0.422852,16.219513,15.121951,-1.402439
1548456051814,-0.942200,0.146729,-0.449036,21.768293,16.219513,-2.987805
1548456051822,-0.923828,0.139404,-0.453857,23.353659,15.975610,-2.865854
1548456051829,-0.916138,0.152832,-0.438477,21.158537,13.963415,-0.548781
1548456051844,-0.918457,0.145691,-0.452576,17.378050,11.707317,1.768293
1548456051852,-0.905701,0.143799,-0.455811,15.609756,11.402439,1.463415
1548456051859,-0.901855,0.133179,-0.477417,15.304878,10.548780,0.000000
1548456051874,-0.904175,0.141968,-0.462891,14.695123,8.597561,-1.402439
1548456051882,-0.904053,0.139404,-0.470337,14.634147,6.463415,-1.036585
1548456051889,-0.877136,0.128784,-0.484009,14.878049,6.646342,-0.975610
1548456051904,-0.882996,0.123840,-0.474609,15.000000,6.829268,-0.670732
1548456051912,-0.893005,0.113708,-0.489624,13.658537,5.060976,-0.670732
1548456051919,-0.894836,0.118042,-0.492615,10.731708,3.963415,-1.463415
1548456051934,-0.907593,0.125000,-0.479370,7.865854,1.890244,-2.073171
1548456051942,-0.895691,0.128601,-0.478333,5.609756,-0.121951,-3.048780
1548456051949,-0.901001,0.132446,-0.467590,4.024390,-0.487805,-3.231707
1548456051964,-0.912659,0.127625,-0.457764,3.048780,-1.585366,-2.926829
1548456051979,-0.912415,0.133728,-0.458069,2.682927,-2.256098,-2.804878
1548456051980,-0.907593,0.139954,-0.460144,2.195122,-2.317073,-2.195122
1548456051994,-0.909241,0.139648,-0.446045,1.951220,-2.500000,-0.914634
1548456052002,-0.918823,0.133179,-0.448975,1.951220,-2.743902,0.365854
1548456052009,-0.922791,0.127930,-0.456421,1.768293,-2.317073,0.792683
1548456052024,-0.931458,0.136230,-0.446472,1.097561,-2.743902,0.670732
1548456052032,-0.934570,0.136353,-0.444458,0.609756,-3.597561,0.914634
1548456052039,-0.921753,0.135498,-0.441833,0.975610,-3.170732,1.646341
1548456052054,-0.923035,0.124817,-0.443726,1.524390,-2.378049,2.439024
1548456052062,-0.929077,0.122559,-0.448608,1.524390,-2.073171,2.317073
1548456052069,-0.926636,0.126404,-0.453613,1.341463,-2.134146,2.439024
1548456052084,-0.919373,0.130127,-0.450195,0.975610,-2.134146,2.987805
1548456052092,-0.916382,0.128540,-0.449036,0.670732,-2.256098,3.780488
1548456052099,-0.918030,0.132690,-0.447144,0.243902,-2.378049,4.207317
1548456052114,-0.919922,0.132629,-0.453430,-1.036585,-2.560976,4.085366
1548456052122,-0.919556,0.141846,-0.450623,-1.951220,-2.317073,3.414634
1548456052129,-0.922607,0.148010,-0.437744,-1.402439,-2.134146,2.865854
1548456052144,-0.925781,0.149292,-0.442078,-1.463415,-1.951220,2.621951
1548456052152,-0.919617,0.153381,-0.451172,-1.890244,-1.219512,2.256098
1548456052160,-0.923096,0.160767,-0.444153,-2.195122,-0.670732,1.768293
1548456052174,-0.924133,0.167969,-0.432434,-2.256098,-0.975610,1.158537
1548456052189,-0.921265,0.167664,-0.444946,-1.707317,-0.487805,0.609756
1548456052190,-0.918274,0.169678,-0.451050,-0.670732,0.914634,-0.182927
1548456052204,-0.919128,0.166748,-0.446350,0.365854,1.280488,-0.914634
1548456052212,-0.923218,0.169312,-0.445251,1.463415,1.280488,-1.463415
1548456052219,-0.923584,0.161987,-0.451538,2.743902,1.646341,-1.890244
1548456052234,-0.920715,0.151855,-0.451965,3.841464,1.829268,-2.500000
1548456052242,-0.916504,0.146423,-0.452637,4.756098,1.890244,-2.987805
1548456052249,-0.912415,0.135864,-0.455566,4.512195,1.585366,-3.536585
1548456052264,-0.914246,0.132935,-0.459412,3.109756,0.731707,-3.780488
1548456052272,-0.918579,0.134338,-0.452026,2.682927,-0.060976,-3.292683
1548456052279,-0.920532,0.129822,-0.455017,3.170732,-0.548781,-2.743902
1548456052294,-0.918884,0.123474,-0.453979,3.597561,-0.304878,-2.378049
1548456052302,-0.914185,0.116333,-0.455627,4.207317,0.060976,-1.951220
1548456052309,-0.915039,0.114746,-0.459167,3.963415,0.121951,-1.402439
1548456052324,-0.914246,0.113281,-0.458984,2.621951,0.000000,-0.670732
1548456052332,-0.911011,0.119568,-0.466675,1.280488,0.304878,0.060976
1548456052339,-0.911743,0.127075,-0.466858,1.036585,0.914634,0.975610
1548456052354,-0.919128,0.130127,-0.468018,2.073171,0.975610,1.158537
1548456052362,-0.929382,0.130432,-0.473938,3.170732,1.402439,0.853659
1548456052369,-0.919006,0.134338,-0.474182,3.719512,2.439024,0.487805
1548456052384,-0.913147,0.133850,-0.472107,3.170732,1.524390,0.000000
1548456052399,-0.914368,0.124512,-0.472412,2.378049,-0.182927,-0.365854
1548456052400,-0.916443,0.120728,-0.473511,1.768293,-1.341463,-1.219512
1548456052414,-0.914856,0.127502,-0.473083,0.792683,-2.987805,-1.585366
1548456052422,-0.906189,0.127441,-0.475159,-0.853659,-4.512195,-1.036585
1548456052429,-0.900574,0.119629,-0.476013,-2.560976,-6.097561,-0.609756
1548456052444,-0.902527,0.117310,-0.474182,-4.390244,-8.475610,-0.548781
1548456052452,-0.908936,0.118958,-0.477661,-6.280488,-11.097561,-0.243902
1548456052459,-0.915649,0.122559,-0.473816,-8.292683,-13.048780,-0.060976
1548456052474,-0.918945,0.122986,-0.471802,-10.121951,-14.756098,-0.243902
1548456052482,-0.915588,0.126831,-0.465637,-11.707317,-16.585365,-0.548781
1548456052489,-0.905823,0.134155,-0.452454,-13.414635,-18.963415,-1.036585
1548456052504,-0.908752,0.135498,-0.448181,-15.121951,-21.280489,-1.707317
1548456052512,-0.917908,0.137329,-0.443481,-16.646341,-23.231709,-2.804878
1548456052519,-0.930542,0.143494,-0.432678,-17.256098,-24.512196,-3.841464
1548456052534,-0.937134,0.150513,-0.422607,-17.500000,-25.121952,-4.817073
1548456052542,-0.931885,0.154724,-0.415771,-17.256098,-25.487806,-5.609756
1548456052549,-0.932434,0.149963,-0.412170,-16.585365,-25.792683,-6.402439
1548456052564,-0.940125,0.144287,-0.407288,-16.036585,-26.280489,-7.012195
1548456052572,-0.945923,0.146240,-0.392944,-15.914635,-26.829269,-7.682927
1548456052579,-0.951599,0.149658,-0.386658,-16.463415,-27.560976,-8.109756
1548456052594,-0.957336,0.150269,-0.383362,-17.134148,-27.439026,-8.536586
1548456052602,-0.953491,0.148438,-0.377319,-17.500000,-27.012196,-9.207317
1548456052609,-0.949829,0.149475,-0.374268,-17.256098,-26.646341,-9.878049
1548456052624,-0.949402,0.151428,-0.366638,-16.890244,-26.890245,-10.609756
1548456052632,-0.956360,0.152161,-0.355774,-16.829269,-27.743902,-11.585366
1548456052639,-0.962708,0.151123,-0.344482,-16.707317,-28.841465,-12.439025
1548456052654,-0.972473,0.144958,-0.343750,-16.158537,-29.024391,-12.865854
1548456052662,-0.976440,0.139832,-0.341064,-15.304878,-27.865854,-13.231708
1548456052669,-0.977173,0.138123,-0.335510,-14.634147,-26.280489,-13.292684
1548456052684,-0.972473,0.137634,-0.334290,-14.268293,-25.487806,-13.170732
1548456052692,-0.966309,0.131775,-0.336060,-13.902439,-25.243902,-12.926829
1548456052699,-0.965332,0.125854,-0.334167,-13.475610,-25.731709,-13.231708
1548456052714,-0.969482,0.125305,-0.323914,-13.170732,-26.524391,-13.658537
1548456052729,-0.975830,0.126831,-0.312134,-13.170732,-27.926830,-14.207317
1548456052730,-0.984558,0.127563,-0.303406,-13.414635,-28.780489,-14.756098
1548456052744,-0.994507,0.134827,-0.301086,-13.048780,-28.658537,-15.182927
1548456052752,-0.998962,0.137146,-0.296509,-11.646341,-27.926830,-15.792684
1548456052759,-0.999695,0.121399,-0.287842,-9.024390,-26.890245,-17.012196
1548456052774,-0.998657,0.106995,-0.293701,-6.097561,-25.609756,-18.170732
1548456052782,-0.990173,0.108032,-0.288696,-3.658537,-24.024391,-17.926830
1548456052789,-0.982788,0.103271,-0.286316,-2.195122,-23.536587,-17.682928
1548456052804,-0.985596,0.098450,-0.287598,-2.682927,-24.268293,-18.109756
1548456052812,-0.990051,0.096069,-0.278137,-4.085366,-25.304878,-18.963415
1548456052819,-0.993835,0.094299,-0.274292,-5.914634,-26.158537,-19.878050
1548456052834,-0.999207,0.091919,-0.274658,-7.560976,-26.524391,-20.304878
1548456052842,-0.997131,0.095093,-0.271362,-8.353659,-26.341463,-20.182928
1548456052849,-0.992188,0.097412,-0.268799,-8.292683,-26.280489,-20.121952
1548456052864,-0.990051,0.097412,-0.270630,-7.743903,-26.768293,-20.000000
1548456052879,-0.995239,0.094421,-0.266479,-6.585366,-27.195122,-20.182928
1548456052880,-0.998474,0.086731,-0.263367,-5.609756,-27.987806,-20.792683
1548456052894,-0.998230,0.079041,-0.256836,-5.243903,-28.597561,-21.524391
1548456052902,-0.996582,0.074951,-0.251404,-5.365854,-29.573172,-22.195122
1548456052909,-0.996155,0.072571,-0.251099,-5.853659,-30.975611,-23.109756
1548456052924,-0.995300,0.068665,-0.247498,-6.524390,-32.195122,-24.085367
1548456052932,-0.995361,0.064880,-0.238159,-7.134147,-33.475609,-25.060976
1548456052939,-1.001892,0.066284,-0.230164,-7.560976,-35.000000,-25.975611
1548456052954,-1.005432,0.069580,-0.226440,-7.682927,-36.219513,-26.585367
1548456052962,-1.004333,0.066223,-0.220886,-7.195122,-37.317074,-27.378050
1548456052969,-1.004456,0.063599,-0.213623,-6.280488,-38.170734,-28.414635
1548456052984,-1.001465,0.060303,-0.211670,-4.878049,-39.390244,-30.000000
1548456052992,-0.997375,0.053040,-0.205200,-3.353659,-40.487804,-31.951220
1548456052999,-1.002502,0.044434,-0.193481,-2.195122,-42.317074,-33.780487
1548456053014,-1.006836,0.034424,-0.183350,-1.646341,-44.207317,-35.182926
1548456053022,-1.009277,0.025940,-0.173889,-1.524390,-45.853661,-36.402439
1548456053029,-1.010315,0.015747,-0.169678,-1.646341,-46.951221,-37.439026
1548456053044,-1.014771,0.006714,-0.158752,-1.829268,-47.317074,-38.170734
1548456053052,-1.018127,0.003357,-0.143372,-2.195122,-47.621952,-38.536587
1548456053060,-1.020752,0.003052,-0.143066,-2.865854,-48.231709,-38.536587
1548456053074,-1.013733,0.000732,-0.136841,-2.682927,-48.353661,-38.597561
1548456053082,-1.007324,-0.000183,-0.127380,-1.829268,-49.390244,-39.573174
1548456053089,-1.004211,-0.009949,-0.118652,-0.853659,-51.585365,-41.158539
1548456053105,-1.002014,-0.022827,-0.103577,0.243902,-54.024391,-43.048782
1548456053112,-1.010132,-0.036072,-0.089844,1.585366,-56.646343,-44.573174
1548456053119,-1.017700,-0.051147,-0.076965,2.195122,-58.292683,-45.426830
1548456053134,-1.020935,-0.058411,-0.057739,2.073171,-58.658539,-45.487804
1548456053142,-1.022705,-0.066345,-0.054626,1.890244,-58.536587,-44.878048
1548456053149,-1.017334,-0.077087,-0.047119,2.500000,-57.439026,-44.329269
1548456053164,-1.016907,-0.084900,-0.034180,3.231707,-57.500000,-44.268295
1548456053172,-1.016174,-0.093323,-0.022888,3.902439,-58.475613,-44.573174
1548456053179,-1.010742,-0.103577,-0.013306,4.085366,-59.878052,-45.426830
1548456053194,-1.006531,-0.116699,-0.003723,3.902439,-61.402439,-46.768295
1548456053202,-1.008545,-0.128906,0.007446,3.780488,-63.109756,-47.926830
1548456053209,-1.008118,-0.141296,0.031433,3.170732,-64.207321,-48.536587
1548456053224,-1.009949,-0.150513,0.047546,2.256098,-65.304878,-48.658539
1548456053232,-1.009705,-0.155640,0.051208,1.646341,-65.731712,-47.865856
1548456053239,-0.987854,-0.158081,0.056458,1.341463,-65.487808,-46.890244
1548456053254,-0.968750,-0.162354,0.062317,1.097561,-65.914635,-46.524391
1548456053262,-0.979675,-0.173218,0.071716,0.609756,-69.085365,-47.012196
1548456053269,-0.997131,-0.186096,0.095032,-0.060976,-73.658539,-48.109756
1548456053284,-1.006897,-0.198608,0.122925,-0.731707,-76.402443,-49.390244
1548456053292,-1.011475,-0.206360,0.136475,-1.219512,-77.378052,-50.121952
1548456053299,-1.001526,-0.218506,0.145020,-1.829268,-75.914635,-49.695122
1548456053314,-0.987915,-0.225281,0.161072,-2.865854,-73.841469,-49.268295
1548456053322,-0.982483,-0.229126,0.170349,-3.780488,-73.902443,-49.085365
1548456053329,-0.969604,-0.235291,0.178955,-4.817073,-74.878052,-48.841465
1548456053344,-0.939880,-0.237122,0.186890,-5.304878,-76.158539,-49.146343
1548456053352,-0.937012,-0.249573,0.200012,-5.487805,-78.231712,-49.695122
1548456053359,-0.953979,-0.261841,0.223694,-5.792683,-82.256096,-50.487804
1548456053374,-0.957092,-0.270630,0.237732,-5.914634,-85.670731,-50.792683
1548456053382,-0.963257,-0.274048,0.226257,-5.914634,-86.951225,-50.548782
1548456053389,-0.941467,-0.298157,0.304382,-4.573171,-90.609756,-51.097561
1548456053404,-0.940674,-0.300354,0.284302,-3.658537,-93.963417,-52.134148
1548456053412,-0.936890,-0.312134,0.290466,-5.914634,-87.500000,-50.426830
1548456053419,-0.938843,-0.323914,0.303162,-6.158537,-88.414635,-50.975613
1548456053434,-0.940979,-0.326782,0.292358,-6.463415,-89.939026,-51.829269
1548456053442,-0.905823,-0.343201,0.361877,-6.097561,-93.048782,-53.292683
1548456053449,-0.903748,-0.346924,0.341309,-6.829268,-95.609756,-54.512196
1548456053472,-0.891602,-0.360352,0.347595,-10.182927,-90.243904,-54.573174
1548456053472,-0.871277,-0.371704,0.365234,-11.219512,-91.829269,-55.975613
1548456053479,-0.858215,-0.385315,0.379395,-12.256098,-94.024391,-57.073174
1548456053495,-0.863281,-0.401611,0.398193,-14.756098,-96.097565,-58.109756
1548456053509,-0.860718,-0.411499,0.418579,-17.621952,-99.390244,-58.475613
1548456053510,-0.851562,-0.418457,0.447754,-19.878050,-101.280487,-58.048782
1548456053525,-0.849731,-0.431274,0.476990,-21.646341,-102.560982,-56.829269
1548456053532,-0.863159,-0.441406,0.498413,-22.378050,-102.500000,-55.975613
1548456053539,-0.871826,-0.448853,0.511963,-21.646341,-99.451225,-55.487804
1548456053562,-0.864319,-0.458374,0.524292,-17.987804,-92.378052,-55.060978
1548456053569,-0.842468,-0.468079,0.539856,-12.012196,-82.926834,-53.536587
1548456053570,-0.810181,-0.478760,0.547119,-5.792683,-73.475609,-50.670734
1548456053584,-0.782471,-0.481506,0.561401,-0.731707,-66.036591,-47.682926
1548456053592,-0.765808,-0.478394,0.575684,3.536585,-60.609756,-45.121952
1548456053599,-0.745300,-0.481750,0.573792,6.829268,-56.707317,-43.170734
1548456053614,-0.722351,-0.500061,0.568237,7.073171,-52.926830,-41.341465
1548456053622,-0.706177,-0.520081,0.569641,4.634146,-50.853661,-39.756100
1548456053629,-0.699768,-0.529297,0.576843,0.487805,-51.036587,-38.109756
1548456053644,-0.701599,-0.527466,0.582642,-5.182927,-52.682926,-36.524391
1548456053652,-0.702942,-0.522644,0.588501,-10.182927,-54.573174,-35.365856
1548456053659,-0.706848,-0.515259,0.588318,-13.414635,-56.097561,-34.451221
1548456053674,-0.709595,-0.511169,0.591675,-14.512196,-56.463417,-33.719513
1548456053682,-0.706726,-0.508911,0.596191,-13.719513,-55.121952,-32.926830
1548456053689,-0.702332,-0.509766,0.597046,-11.219512,-52.317074,-32.134148
1548456053705,-0.693054,-0.508667,0.596680,-7.987805,-49.085365,-31.524391
1548456053712,-0.683777,-0.509277,0.594727,-4.451220,-46.036587,-31.097561
1548456053719,-0.675781,-0.518555,0.598022,-0.853659,-43.658539,-30.914635
1548456053735,-0.669006,-0.526428,0.599182,1.707317,-42.256100,-30.853659
1548456053749,-0.662292,-0.531799,0.600830,2.926829,-41.585365,-30.914635
1548456053750,-0.655518,-0.539856,0.605225,2.621951,-41.463417,-31.280489
1548456053764,-0.647888,-0.543274,0.607971,1.280488,-41.585365,-31.524391
1548456053772,-0.637207,-0.544312,0.618286,-0.609756,-41.768295,-31.463415
1548456053779,-0.625854,-0.547058,0.627380,-2.621951,-41.707317,-31.280489
1548456053794,-0.620422,-0.549255,0.630859,-4.634146,-41.707317,-31.036587
1548456053802,-0.614624,-0.557556,0.635742,-6.158537,-41.341465,-30.670732
1548456053809,-0.606140,-0.562012,0.637024,-7.560976,-40.548782,-30.487806
1548456053824,-0.596130,-0.567749,0.637268,-8.597561,-39.817074,-30.365854
1548456053832,-0.581055,-0.572327,0.636658,-9.390244,-39.085365,-30.426830
1548456053839,-0.571960,-0.572937,0.632080,-9.756098,-39.146343,-30.609756
1548456053854,-0.568420,-0.571228,0.634338,-9.268292,-39.512196,-30.975611
1548456053862,-0.560059,-0.578430,0.636475,-8.597561,-40.121952,-31.219513
1548456053869,-0.553162,-0.587463,0.640808,-7.743903,-40.670734,-31.158537
1548456053884,-0.539307,-0.584167,0.642822,-6.768293,-41.036587,-31.219513
1548456053892,-0.529846,-0.580200,0.649475,-6.280488,-40.975609,-31.036587
1548456053899,-0.523987,-0.584351,0.660706,-6.097561,-41.036587,-30.487806
1548456053914,-0.520691,-0.592102,0.668823,-5.000000,-41.341465,-29.878050
1548456053922,-0.520325,-0.599182,0.672180,-3.170732,-41.951221,-28.536587
1548456053929,-0.517334,-0.609985,0.677124,-2.439024,-42.500000,-26.951220
1548456053944,-0.512695,-0.622253,0.676270,-2.743902,-42.804878,-25.670732
1548456053952,-0.504028,-0.625427,0.671265,-3.048780,-43.048782,-25.000000
1548456053967,-0.497070,-0.626343,0.670471,-3.536585,-43.109756,-24.939026
1548456053989,-0.488037,-0.628418,0.674500,-4.329268,-42.743904,-25.000000
1548456053990,-0.479736,-0.631592,0.676331,-5.182927,-42.317074,-25.121952
1548456053990,-0.472534,-0.630432,0.679688,-5.975610,-41.768295,-25.426830
1548456054004,-0.462219,-0.623779,0.688477,-6.951220,-41.219513,-25.792683
1548456054019,-0.451416,-0.616699,0.697449,-7.560976,-40.548782,-25.975611
1548456054020,-0.439026,-0.611938,0.705078,-7.378049,-40.000000,-26.036587
1548456054035,-0.428223,-0.614319,0.712463,-6.646342,-39.390244,-26.097561
1548456054049,-0.421387,-0.623047,0.718323,-5.487805,-38.963417,-25.853659
1548456054050,-0.418701,-0.631531,0.716858,-4.451220,-38.963417,-25.304878
1548456054064,-0.415710,-0.642639,0.718018,-4.390244,-39.207317,-24.878050
1548456054072,-0.412109,-0.649597,0.717529,-5.060976,-39.329269,-24.634148
1548456054087,-0.404907,-0.648254,0.715515,-5.548780,-39.390244,-24.024391
1548456054094,-0.397522,-0.640503,0.711121,-6.280488,-39.268295,-23.536587
1548456054109,-0.387451,-0.636353,0.711487,-7.378049,-39.329269,-23.475611
1548456054110,-0.384644,-0.643616,0.720459,-8.109756,-38.963417,-23.719513
1548456054124,-0.378418,-0.654297,0.741150,-7.743903,-38.902439,-24.268293
1548456054132,-0.369446,-0.670044,0.752197,-6.707317,-39.573174,-24.573172
1548456054139,-0.387512,-0.682129,0.761963,-5.060976,-40.792683,-24.451220
1548456054154,-0.405212,-0.686829,0.798218,-4.024390,-41.402439,-23.902439
1548456054162,-0.416687,-0.682373,0.808655,-3.231707,-41.890244,-22.439024
1548456054169,-0.369995,-0.669006,0.771240,-2.500000,-39.085365,-20.243902
1548456054184,-0.329346,-0.656128,0.737610,-2.256098,-34.146343,-18.292683
1548456054192,-0.323242,-0.662598,0.730164,-3.536585,-32.012196,-17.865854
1548456054207,-0.325500,-0.666199,0.736877,-4.878049,-32.012196,-18.353659
1548456054222,-0.328003,-0.670532,0.752625,-6.097561,-32.256100,-18.414635
1548456054222,-0.309937,-0.671570,0.749207,-6.585366,-31.951220,-17.926830
1548456054237,-0.304504,-0.669922,0.746521,-6.768293,-30.365854,-17.621952
1548456054244,-0.299988,-0.671082,0.748169,-7.073171,-28.475611,-17.682928
1548456054252,-0.291992,-0.670532,0.750366,-7.804878,-26.463415,-17.865854
1548456054259,-0.283875,-0.671631,0.732361,-8.780488,-24.695122,-17.804878
1548456054275,-0.278320,-0.676636,0.727051,-9.634147,-22.865854,-17.256098
1548456054289,-0.279053,-0.680298,0.738342,-10.182927,-21.646341,-16.524391
1548456054290,-0.281372,-0.679565,0.739075,-9.939025,-21.463415,-15.609756
1548456054304,-0.274353,-0.679810,0.729126,-9.268292,-20.853659,-14.756098
1548456054312,-0.268127,-0.680481,0.731934,-8.719512,-20.365854,-14.390244
1548456054327,-0.265625,-0.682068,0.732544,-8.170732,-20.609756,-14.878049
1548456054342,-0.257324,-0.684204,0.738831,-7.317073,-21.036587,-15.060976
1548456054343,-0.253174,-0.682068,0.741333,-6.890244,-21.280489,-14.878049
1548456054349,-0.246948,-0.685303,0.733032,-6.829268,-20.426830,-14.939025
1548456054364,-0.245544,-0.691040,0.734131,-6.463415,-19.207317,-15.243903
1548456054379,-0.243286,-0.688782,0.736328,-5.731708,-18.536585,-15.121951
1548456054380,-0.238708,-0.689575,0.733154,-5.060976,-17.439024,-14.817074
1548456054395,-0.236328,-0.691284,0.735107,-5.182927,-16.768293,-14.878049
1548456054402,-0.229309,-0.692261,0.731567,-4.573171,-16.036585,-15.000000
1548456054409,-0.227051,-0.692261,0.730469,-4.451220,-15.609756,-15.426829
1548456054432,-0.224976,-0.694397,0.729919,-4.329268,-15.609756,-16.036585
1548456054432,-0.220764,-0.694641,0.728943,-3.658537,-15.670732,-16.341463
1548456054447,-0.216980,-0.693359,0.727600,-2.743902,-16.097561,-16.768293
1548456054455,-0.212219,-0.696899,0.727661,-2.256098,-16.341463,-17.317074
1548456054462,-0.206482,-0.698120,0.726440,-1.707317,-16.219513,-17.621952
1548456054470,-0.200745,-0.697876,0.725098,-0.487805,-16.585365,-17.682928
1548456054485,-0.198730,-0.698242,0.730652,0.670732,-16.707317,-18.048780
1548456054500,-0.192871,-0.700378,0.730835,1.951220,-16.646341,-18.048780
1548456054500,-0.189087,-0.699463,0.729004,2.865854,-16.707317,-18.353659
1548456054515,-0.181702,-0.703308,0.735413,4.146341,-16.524391,-17.865854
1548456054523,-0.178833,-0.700684,0.736511,5.365854,-16.341463,-17.317074
1548456054537,-0.175415,-0.700562,0.743347,6.097561,-15.609756,-16.585365
1548456054552,-0.169067,-0.704041,0.747070,6.402439,-14.817074,-15.731708
1548456054552,-0.165588,-0.704834,0.748413,6.280488,-14.146341,-15.365854
1548456054560,-0.162781,-0.702454,0.743469,6.158537,-13.475610,-13.902439
1548456054590,-0.164246,-0.699768,0.745789,6.097561,-12.621951,-12.439025
1548456054590,-0.157715,-0.700745,0.746460,5.731708,-12.195122,-11.463415
1548456054591,-0.157654,-0.698059,0.747559,5.487805,-11.829268,-11.097561
1548456054605,-0.154297,-0.698242,0.748596,5.365854,-11.280488,-10.426829
1548456054612,-0.151062,-0.696655,0.748657,5.365854,-11.036586,-9.756098
1548456054627,-0.153137,-0.697449,0.753784,5.426829,-10.731708,-9.146341
1548456054643,-0.147644,-0.697876,0.753052,5.243903,-10.365854,-8.536586
1548456054643,-0.145203,-0.696655,0.753113,5.121951,-9.573171,-7.621952
1548456054657,-0.144470,-0.693909,0.753723,4.512195,-8.841464,-6.524390
1548456054672,-0.141724,-0.696716,0.756042,4.146341,-8.353659,-5.731708
1548456054673,-0.140198,-0.694641,0.753723,3.902439,-7.865854,-5.182927
1548456054680,-0.140320,-0.692810,0.749878,3.719512,-7.256098,-4.573171
1548456054695,-0.139099,-0.693909,0.749451,3.719512,-6.585366,-4.024390
1548456054710,-0.136841,-0.692322,0.751038,4.024390,-6.402439,-3.719512
1548456054710,-0.135071,-0.692078,0.752930,4.451220,-6.097561,-3.475610
1548456054725,-0.135620,-0.690552,0.751892,4.817073,-5.548780,-2.865854
1548456054732,-0.136658,-0.690491,0.751892,5.243903,-5.243903,-2.560976
1548456054740,-0.131958,-0.691650,0.753723,5.853659,-5.182927,-2.500000
1548456054762,-0.131042,-0.690552,0.759888,5.914634,-5.060976,-2.500000
1548456054763,-0.135315,-0.687195,0.759888,5.365854,-4.817073,-2.195122
1548456054770,-0.135437,-0.688110,0.760193,4.756098,-4.390244,-1.646341
1548456054792,-0.131958,-0.685120,0.764282,4.329268,-3.902439,-1.341463
1548456054792,-0.131104,-0.686462,0.761841,3.353659,-3.475610,-1.280488
1548456054799,-0.131531,-0.685669,0.763245,2.195122,-3.231707,-1.158537
1548456054815,-0.133545,-0.684570,0.763062,1.280488,-2.865854,-0.975610
1548456054845,-0.131470,-0.686462,0.756104,0.182927,-2.378049,-0.792683
1548456054845,-0.132751,-0.687012,0.754761,-0.243902,-2.317073,-0.853659
1548456054846,-0.136902,-0.679871,0.747864,-0.121951,-2.560976,-0.975610
1548456054852,-0.127747,-0.686035,0.753784,0.548781,-3.780488,-2.073171
1548456054867,-0.129333,-0.685852,0.754639,1.341463,-4.634146,-3.048780
1548456054883,-0.126953,-0.685181,0.754944,1.646341,-4.695122,-2.743902
1548456054890,-0.127319,-0.687988,0.757080,1.829268,-5.426829,-3.109756
1548456054891,-0.124634,-0.688171,0.760559,1.890244,-5.853659,-3.414634
1548456054905,-0.127075,-0.685486,0.762390,1.951220,-5.914634,-3.475610
1548456054912,-0.124451,-0.682495,0.760254,1.280488,-5.975610,-3.109756
1548456054935,-0.121765,-0.684998,0.760681,0.365854,-6.219512,-3.475610
1548456054935,-0.120239,-0.684509,0.757324,-0.365854,-6.402439,-3.597561
1548456054942,-0.119141,-0.687012,0.757690,-0.975610,-6.585366,-3.841464
1548456054950,-0.118958,-0.687195,0.760193,-1.158537,-6.646342,-3.902439
1548456054964,-0.116028,-0.687622,0.759644,-1.402439,-6.402439,-3.780488
1548456054972,-0.112915,-0.689331,0.759949,-1.768293,-6.158537,-3.597561
1548456054987,-0.112732,-0.690063,0.758911,-2.012195,-5.609756,-3.353659
1548456054995,-0.111694,-0.691589,0.759338,-2.073171,-4.878049,-2.804878
1548456055009,-0.109619,-0.693542,0.759705,-1.768293,-4.268293,-2.439024
1548456055017,-0.109131,-0.692139,0.762329,-1.280488,-3.475610,-1.768293
1548456055025,-0.108704,-0.690491,0.760803,-1.097561,-2.195122,-0.792683
1548456055039,-0.108948,-0.690491,0.758240,-1.158537,-1.036585,0.000000
1548456055047,-0.109009,-0.691101,0.757141,-1.219512,0.000000,0.670732
1548456055055,-0.111206,-0.690430,0.756348,-1.158537,0.731707,1.402439
1548456055069,-0.113770,-0.688965,0.754272,-0.914634,1.219512,1.890244
1548456055070,-0.115540,-0.687622,0.753479,-0.304878,1.646341,2.317073
1548456055084,-0.116760,-0.689209,0.753845,0.426829,1.707317,2.439024
1548456055092,-0.118225,-0.690552,0.756348,1.097561,1.707317,2.317073
1548456055100,-0.117310,-0.689148,0.755066,1.280488,1.402439,2.134146
1548456055123,-0.116455,-0.687988,0.755371,1.280488,1.097561,1.768293
1548456055123,-0.119263,-0.688354,0.754578,1.219512,0.731707,1.463415
1548456055130,-0.117859,-0.687195,0.756226,1.036585,0.304878,1.219512
1548456055145,-0.119446,-0.686584,0.756165,0.975610,-0.121951,0.792683
1548456055152,-0.117920,-0.686890,0.756226,0.975610,-0.548781,0.365854
1548456055161,-0.116821,-0.687866,0.757690,0.853659,-0.792683,0.121951
1548456055175,-0.117676,-0.690796,0.757996,0.731707,-1.219512,-0.121951
1548456055183,-0.117493,-0.691040,0.759033,0.670732,-1.402439,-0.243902
1548456055190,-0.115601,-0.690491,0.758484,0.426829,-1.524390,-0.243902
1548456055236,-0.116333,-0.687439,0.758545,0.304878,-1.585366,-0.304878
1548456055237,-0.114502,-0.689636,0.757568,0.121951,-1.463415,-0.365854
1548456055237,-0.115662,-0.689270,0.757568,0.060976,-1.341463,-0.243902
1548456055243,-0.115662,-0.690613,0.759827,0.060976,-1.219512,-0.060976
1548456055243,-0.115417,-0.691895,0.757629,0.182927,-0.975610,0.060976
1548456055265,-0.117188,-0.691284,0.759644,0.304878,-0.792683,0.121951
1548456055265,-0.114868,-0.691772,0.757812,0.060976,-0.670732,0.182927
1548456055272,-0.116516,-0.690857,0.753967,-0.182927,-0.609756,0.243902
1548456055281,-0.117493,-0.690613,0.755249,-0.243902,-0.670732,0.304878
1548456055296,-0.116150,-0.691040,0.754089,0.121951,-0.609756,0.304878
1548456055302,-0.115479,-0.690002,0.756042,0.609756,-0.609756,0.365854
1548456055318,-0.116211,-0.690430,0.757324,0.792683,-0.609756,0.243902
1548456055332,-0.116638,-0.689697,0.756836,0.975610,-0.731707,0.243902
1548456055333,-0.116455,-0.690186,0.756592,0.914634,-0.792683,0.182927
1548456055347,-0.115784,-0.689148,0.758423,0.975610,-0.975610,0.060976
1548456055355,-0.117737,-0.689148,0.757629,1.158537,-1.036585,0.060976
1548456055362,-0.114746,-0.691711,0.758667,1.219512,-1.036585,0.060976
1548456055369,-0.115845,-0.690674,0.758545,1.097561,-0.975610,0.121951
1548456055385,-0.116089,-0.689575,0.758118,0.975610,-0.853659,0.182927
1548456055392,-0.115173,-0.690369,0.756653,0.731707,-0.853659,0.243902
1548456055399,-0.114502,-0.690125,0.754822,0.731707,-0.853659,0.243902
1548456055414,-0.116211,-0.688538,0.759216,0.609756,-0.853659,0.182927
1548456055422,-0.117249,-0.689697,0.755859,0.670732,-0.853659,0.182927
1548456055429,-0.116760,-0.688904,0.756409,0.914634,-0.975610,0.060976
1548456055444,-0.115723,-0.689636,0.757629,0.792683,-1.036585,0.060976
1548456055452,-0.117737,-0.689331,0.755371,0.731707,-1.036585,-0.060976
1548456055459,-0.115051,-0.690552,0.757019,0.670732,-1.158537,0.000000
1548456055474,-0.114685,-0.689148,0.757446,0.609756,-1.097561,0.060976
1548456055489,-0.114929,-0.689087,0.757812,0.487805,-0.975610,0.060976
1548456055490,-0.113953,-0.690063,0.758667,0.426829,-0.975610,0.182927
1548456055504,-0.114868,-0.690369,0.757263,0.670732,-0.975610,0.182927
1548456055512,-0.112732,-0.689636,0.759338,0.853659,-0.853659,0.182927
1548456055519,-0.112244,-0.689636,0.758179,0.975610,-0.914634,0.243902
1548456055542,-0.114380,-0.688599,0.758606,1.158537,-0.792683,0.426829
1548456055542,-0.114197,-0.689453,0.760864,1.036585,-0.548781,0.487805
1548456055549,-0.114502,-0.689575,0.758484,0.914634,-0.304878,0.609756
1548456055572,-0.115967,-0.688904,0.758484,0.792683,-0.060976,0.731707
1548456055579,-0.114136,-0.689148,0.758728,0.853659,0.121951,0.853659
1548456055580,-0.115356,-0.690369,0.760193,1.097561,0.365854,1.097561
1548456055594,-0.114685,-0.689026,0.760803,1.463415,0.609756,1.280488
1548456055609,-0.113098,-0.689941,0.761475,1.707317,1.036585,1.463415
1548456055617,-0.115234,-0.689514,0.762207,1.829268,1.524390,1.829268
1548456055624,-0.116150,-0.688782,0.761414,2.073171,1.951220,2.317073
1548456055632,-0.116455,-0.689880,0.754822,2.378049,2.500000,2.804878
1548456055647,-0.118713,-0.687805,0.758606,2.865854,2.865854,3.231707
1548456055662,-0.119690,-0.688416,0.762451,3.536585,3.170732,3.658537
1548456055662,-0.120911,-0.686768,0.762085,4.085366,3.414634,3.902439
1548456055684,-0.121765,-0.685425,0.762512,4.207317,3.536585,4.146341
1548456055685,-0.123291,-0.685181,0.761902,4.024390,3.841464,4.390244
1548456055699,-0.125610,-0.686157,0.761841,3.902439,3.963415,4.634146
1548456055700,-0.124329,-0.682861,0.762695,3.963415,4.024390,4.695122
1548456055715,-0.127014,-0.682800,0.760559,4.146341,3.841464,4.756098
1548456055729,-0.129028,-0.684448,0.758301,4.390244,3.841464,4.817073
1548456055730,-0.129211,-0.680359,0.760193,4.695122,3.719512,4.817073
1548456055752,-0.130920,-0.680908,0.761902,5.426829,3.658537,4.878049
1548456055752,-0.131348,-0.680298,0.764954,6.158537,3.536585,4.939024
1548456055767,-0.133118,-0.679016,0.766724,6.524390,3.475610,5.121951
1548456055782,-0.133850,-0.677673,0.768311,6.524390,3.475610,5.182927
1548456055789,-0.133362,-0.678284,0.771790,6.097561,3.536585,5.182927
1548456055790,-0.135193,-0.677185,0.769897,5.426829,3.536585,5.304878
1548456055804,-0.136230,-0.675171,0.772339,4.756098,3.719512,5.426829
1548456055819,-0.137756,-0.675476,0.772949,4.146341,3.902439,5.609756
1548456055820,-0.138916,-0.676514,0.770447,3.170732,4.146341,5.670732
1548456055835,-0.139771,-0.677246,0.770020,2.256098,4.207317,5.609756
1548456055842,-0.141724,-0.676636,0.771973,1.890244,4.390244,5.670732
1548456055849,-0.142212,-0.676758,0.771729,1.463415,4.512195,5.548780
1548456055872,-0.144470,-0.677795,0.772461,1.036585,4.756098,5.731708
1548456055872,-0.145020,-0.677246,0.772278,0.609756,5.243903,6.097561
1548456055887,-0.149231,-0.675781,0.770996,0.304878,5.609756,6.280488
1548456055894,-0.150085,-0.675354,0.770752,0.304878,6.219512,6.585366
1548456055902,-0.149414,-0.675232,0.772888,0.487805,6.951220,7.134147
1548456055909,-0.153809,-0.676636,0.775635,0.487805,7.378049,7.560976
1548456055925,-0.155334,-0.676392,0.775452,0.060976,8.170732,7.987805
1548456055939,-0.156738,-0.676147,0.773926,-0.792683,9.207317,8.719512
1548456055940,-0.159485,-0.677979,0.771912,-1.341463,10.182927,9.085366
1548456055954,-0.161438,-0.679321,0.770081,-1.341463,11.463415,9.451220
1548456055962,-0.167175,-0.675049,0.767212,-1.158537,12.865854,9.939025
1548456055977,-0.168701,-0.676025,0.768433,-0.426829,13.902439,10.365854
1548456055992,-0.172791,-0.676636,0.767944,0.365854,15.000000,10.609756
1548456055992,-0.176941,-0.677368,0.762573,1.219512,15.853659,10.853659
1548456055999,-0.180725,-0.676331,0.761597,2.195122,16.280489,11.280488
1548456056014,-0.184570,-0.673828,0.761353,3.292683,16.463415,11.707317
1548456056029,-0.185852,-0.670715,0.758667,3.719512,16.402439,12.256098
1548456056030,-0.192749,-0.672119,0.763367,4.085366,16.036585,12.500000
1548456056055,-0.197327,-0.671814,0.768433,4.268293,15.426829,12.682927
1548456056061,-0.200378,-0.668579,0.769775,3.780488,15.121951,12.621951
1548456056065,-0.201782,-0.667664,0.766907,2.682927,15.182927,12.743903
1548456056089,-0.205322,-0.668152,0.767273,1.463415,15.426829,12.865854
1548456056092,-0.210754,-0.672241,0.771790,0.670732,16.158537,12.865854
1548456056097,-0.216675,-0.670715,0.769653,0.121951,17.073172,13.048780
1548456056113,-0.222900,-0.673584,0.772461,-0.365854,18.231709,13.414635
1548456056113,-0.224976,-0.674133,0.770447,-0.670732,19.085367,13.536586
1548456056120,-0.231812,-0.678467,0.769226,-1.097561,19.756098,13.719513
1548456056135,-0.239746,-0.680725,0.773010,-1.280488,20.548780,13.902439
1548456056164,-0.245483,-0.682800,0.775696,-1.646341,21.646341,14.268293
1548456056165,-0.253967,-0.690491,0.773132,-1.768293,22.804878,14.695123
1548456056165,-0.264648,-0.693848,0.777283,-1.890244,24.573172,14.878049
1548456056179,-0.278992,-0.689453,0.785522,-2.317073,26.280489,15.060976
1548456056180,-0.281372,-0.689636,0.787231,-2.560976,28.597561,16.097561
1548456056194,-0.281372,-0.688599,0.785095,-2.378049,31.280489,17.682928
1548456056203,-0.284241,-0.677917,0.775818,-1.829268,33.536587,19.024391
1548456056217,-0.272705,-0.669556,0.768005,-1.280488,35.121952,20.243902
1548456056232,-0.268738,-0.666626,0.764465,-0.548781,36.341465,21.524391
1548456056232,-0.274841,-0.664185,0.761292,0.304878,35.853661,22.682928
1548456056239,-0.286316,-0.666199,0.755859,1.097561,34.756100,23.292683
1548456056255,-0.301941,-0.666443,0.753479,2.012195,33.902439,23.780489
1548456056270,-0.316040,-0.663818,0.753174,3.170732,33.902439,24.390244
1548456056270,-0.326538,-0.660706,0.753784,4.512195,34.878048,25.243902
1548456056292,-0.335754,-0.659851,0.753052,5.487805,36.646343,26.585367
1548456056292,-0.340271,-0.661804,0.752930,6.158537,38.597561,27.865854
1548456056307,-0.349915,-0.667419,0.750366,6.951220,40.365856,28.963415
1548456056322,-0.357666,-0.670166,0.744995,7.195122,41.890244,29.817074
1548456056322,-0.363037,-0.666992,0.742615,6.829268,43.109756,30.792685
1548456056329,-0.372986,-0.661194,0.744995,5.792683,44.329269,31.829269
1548456056345,-0.380249,-0.654358,0.747620,4.878049,45.487804,32.865856
1548456056382,-0.391541,-0.650024,0.746094,4.329268,46.768295,33.902439
1548456056382,-0.401123,-0.645264,0.740967,3.963415,48.353661,34.878048
1548456056383,-0.410706,-0.644958,0.736023,3.963415,50.060978,35.914635
1548456056397,-0.416199,-0.642822,0.735352,4.024390,52.073174,37.073170
1548456056398,-0.422241,-0.638428,0.736511,3.841464,53.963417,38.414635
1548456056398,-0.429443,-0.634521,0.733521,3.536585,55.731709,39.573174
1548456056412,-0.441406,-0.631042,0.729370,3.475610,57.317074,40.670734
1548456056419,-0.456482,-0.625671,0.721252,3.231707,58.658539,41.463417
1548456056434,-0.467529,-0.623474,0.712463,2.926829,60.000000,42.134148
1548456056442,-0.481628,-0.619446,0.704041,2.195122,61.219513,42.743904
1548456056449,-0.495544,-0.613159,0.698120,1.463415,62.560978,43.536587
1548456056464,-0.506836,-0.608643,0.696838,0.914634,63.902439,44.695122
1548456056472,-0.518494,-0.605042,0.695068,0.975610,65.182930,45.609756
1548456056487,-0.536316,-0.601257,0.690063,1.341463,66.524391,46.646343
1548456056502,-0.553284,-0.596863,0.677979,1.707317,68.597565,47.865856
1548456056502,-0.565308,-0.584412,0.671997,2.073171,71.280487,49.329269
1548456056509,-0.572266,-0.569031,0.659973,2.317073,74.085365,50.853661
1548456056524,-0.583069,-0.570923,0.652832,2.500000,76.890244,52.682926
1548456056532,-0.598328,-0.579102,0.644775,3.292683,78.841469,54.573174
1548456056539,-0.613953,-0.573120,0.631531,4.207317,80.304878,55.975613
1548456056554,-0.624146,-0.560486,0.616638,4.268293,81.829269,56.768295
1548456056562,-0.633423,-0.556091,0.607910,4.085366,82.865852,57.500000
1548456056569,-0.647339,-0.552734,0.597656,4.512195,84.085365,58.475613
1548456056584,-0.661743,-0.542603,0.589905,5.000000,85.426834,59.512196
1548456056592,-0.671753,-0.535889,0.581909,4.878049,86.707321,60.365856
1548456056599,-0.680664,-0.528748,0.570068,4.268293,87.804878,61.402439
1548456056614,-0.690857,-0.522278,0.557678,3.902439,88.963417,62.256100
1548456056622,-0.708191,-0.510803,0.538269,3.841464,89.573174,62.865856
1548456056629,-0.721191,-0.502380,0.524414,4.146341,90.121956,63.109756
1548456056644,-0.728821,-0.495850,0.510742,4.390244,90.670731,63.536587
1548456056652,-0.741272,-0.485168,0.494934,4.268293,90.792686,63.475613
1548456056659,-0.762756,-0.473450,0.482300,4.451220,90.243904,63.109756
1548456056674,-0.775024,-0.462891,0.469910,4.695122,89.634148,62.621952
1548456056682,-0.794434,-0.455017,0.457642,5.060976,88.963417,62.378052
1548456056689,-0.816833,-0.446167,0.445190,5.487805,88.170731,62.621952
1548456056704,-0.831726,-0.434326,0.430054,6.036585,87.926834,62.743904
1548456056712,-0.837280,-0.423645,0.410950,6.951220,87.865852,62.378052
1548456056719,-0.840271,-0.411743,0.388123,7.195122,87.804878,61.463417
1548456056734,-0.846436,-0.403809,0.375305,7.317073,87.256096,59.878052
1548456056749,-0.857239,-0.395447,0.364075,7.560976,85.548782,58.536587
1548456056750,-0.875793,-0.387024,0.353027,7.317073,83.475609,57.317074
1548456056764,-0.889404,-0.381653,0.344360,6.524390,80.914635,56.951221
1548456056772,-0.893433,-0.373413,0.334595,5.243903,78.963417,56.829269
1548456056779,-0.899780,-0.361023,0.328003,3.780488,76.951218,56.219513
1548456056794,-0.901367,-0.348938,0.318665,2.134146,74.817078,55.365856
1548456056802,-0.902771,-0.336304,0.307007,0.975610,73.475609,54.268295
1548456056809,-0.910889,-0.324524,0.297729,0.487805,72.621956,53.292683
1548456056824,-0.923157,-0.313293,0.288330,0.731707,71.341469,52.682926
1548456056832,-0.931580,-0.305664,0.281128,1.524390,70.426834,52.560978
1548456056839,-0.938538,-0.294373,0.265747,2.378049,69.634148,52.195122
1548456056854,-0.944458,-0.286255,0.256592,2.987805,68.658539,51.524391
1548456056862,-0.949280,-0.278564,0.245300,3.231707,67.560974,50.487804
1548456056869,-0.957886,-0.270447,0.235962,3.231707,66.158539,49.512196
1548456056884,-0.966125,-0.260986,0.221619,3.231707,64.451218,48.536587
1548456056892,-0.971863,-0.258301,0.213379,3.231707,63.597561,48.292683
1548456056899,-0.979004,-0.251160,0.205444,3.597561,62.804878,48.170734
1548456056914,-0.983826,-0.241028,0.200500,3.536585,62.134148,47.500000
1548456056922,-0.983093,-0.229675,0.190125,3.048780,61.158539,46.585365
1548456056929,-0.984436,-0.223999,0.179077,1.829268,61.219513,46.219513
1548456056944,-0.990051,-0.217529,0.168762,0.792683,60.914635,46.097561
1548456056952,-0.999023,-0.211914,0.157837,0.304878,60.670734,46.036587
1548456056959,-1.009094,-0.203003,0.152222,-0.182927,60.426830,45.975613
1548456056974,-1.009705,-0.191040,0.143250,-0.304878,59.756100,45.792683
1548456056982,-1.005737,-0.184875,0.129639,-0.792683,59.817074,45.365856
1548456056989,-1.002136,-0.178772,0.122498,-1.219512,60.182930,45.000000
1548456057004,-1.004395,-0.179077,0.110657,-0.975610,60.182930,44.878048
1548456057012,-1.010803,-0.181519,0.103943,0.365854,60.609756,45.121952
1548456057019,-1.019897,-0.167847,0.095398,1.829268,60.914635,45.487804
1548456057034,-1.019104,-0.157654,0.076294,1.768293,62.317074,46.036587
1548456057042,-1.021240,-0.149719,0.065552,0.487805,64.146339,46.280487
1548456057049,-1.016052,-0.138000,0.074890,-1.036585,65.060974,46.097561
1548456057066,-1.015015,-0.127136,0.038086,-3.414634,66.829269,46.036587
1548456057083,-1.019043,-0.117676,-0.010620,-6.036585,72.500000,46.524391
1548456057083,-1.018188,-0.115356,-0.008972,-4.512195,71.219513,46.036587
1548456057097,-1.028015,-0.110535,-0.022034,-1.829268,66.951218,45.243904
1548456057102,-1.035828,-0.111877,-0.023499,-0.121951,64.634148,44.756100
1548456057116,-1.055115,-0.114014,-0.040649,0.304878,63.719513,45.060978
1548456057125,-1.039856,-0.122925,-0.038086,-1.219512,66.829269,46.219513
1548456057132,-1.022644,-0.108643,-0.046021,-3.963415,68.414635,46.829269
1548456057140,-1.009583,-0.096497,-0.074646,-6.280488,67.012199,47.804878
1548456057157,-1.003601,-0.088501,-0.091675,-8.109756,64.390244,48.780487
1548456057162,-1.001099,-0.074646,-0.100525,-9.451220,60.304878,49.085365
1548456057169,-1.010254,-0.064392,-0.101440,-10.731708,56.341465,49.146343
1548456057184,-1.019348,-0.048645,-0.100098,-11.646341,53.048782,49.573174
1548456057192,-1.024963,-0.031433,-0.109619,-11.524390,51.219513,50.304878
1548456057199,-1.029358,-0.020996,-0.126953,-10.792684,51.341465,51.097561
1548456057214,-1.031250,-0.014587,-0.142456,-9.695122,51.768295,51.829269
1548456057222,-1.032227,-0.006775,-0.154480,-8.475610,52.012196,52.500000
1548456057229,-1.032349,0.001099,-0.164185,-7.439024,51.890244,52.682926
1548456057244,-1.024719,0.009521,-0.172729,-6.890244,51.280491,53.109756
1548456057252,-1.005249,0.029724,-0.181274,-6.341464,49.756100,52.865856
1548456057259,-0.990967,0.043457,-0.190918,-6.524390,47.682926,51.951221
1548456057274,-0.988831,0.054749,-0.198547,-7.256098,45.243904,50.000000
1548456057282,-0.985962,0.071594,-0.201599,-7.317073,42.560978,48.170734
1548456057289,-0.995239,0.085144,-0.205933,-6.890244,40.426830,47.134148
1548456057304,-1.001587,0.099976,-0.207336,-5.670732,38.902439,46.280487
1548456057312,-1.004639,0.111694,-0.207397,-4.573171,38.414635,45.365856
1548456057319,-1.011780,0.118652,-0.214233,-3.048780,38.597561,44.085365
1548456057334,-1.016724,0.123474,-0.220398,-1.219512,39.451221,42.926830
1548456057342,-1.004639,0.133850,-0.235229,0.548781,40.487804,42.134148
1548456057349,-0.987732,0.134460,-0.254578,2.804878,40.670734,40.792683
1548456057364,-0.986389,0.130432,-0.253845,4.939024,38.475609,38.780487
1548456057372,-0.988770,0.129456,-0.250427,6.402439,35.304878,37.621952
1548456057379,-0.977173,0.136475,-0.256287,6.463415,33.292683,37.560978
1548456057394,-0.983704,0.140808,-0.267090,5.914634,32.926830,37.682926
1548456057402,-0.986816,0.149170,-0.270447,5.304878,32.378048,37.256100
1548456057409,-0.978516,0.167725,-0.277344,5.121951,32.073170,36.707317
1548456057424,-0.978516,0.178162,-0.289124,5.609756,32.073170,36.097561
1548456057432,-0.994141,0.180176,-0.289673,6.951220,31.585367,35.121952
1548456057448,-0.989014,0.187134,-0.286438,9.146341,31.097561,33.475609
1548456057490,-0.981384,0.194580,-0.289734,11.768293,31.707317,31.646341
1548456057492,-0.978760,0.197083,-0.301819,14.207317,32.865856,30.426830
1548456057493,-0.962769,0.201111,-0.306396,15.975610,33.719513,28.536587
1548456057493,-0.965027,0.201477,-0.314026,17.134148,34.390244,26.707317
1548456057493,-0.962524,0.202209,-0.321533,17.804878,34.268295,24.939026
1548456057499,-0.970703,0.207947,-0.328674,18.536585,34.756100,23.536587
1548456057515,-0.978638,0.216370,-0.332642,20.426830,35.243904,22.317074
1548456057522,-0.966187,0.224670,-0.336121,22.926830,36.219513,20.487804
1548456057529,-0.959351,0.229553,-0.344543,25.000000,37.682926,18.170732
1548456057544,-0.933777,0.241089,-0.365173,27.012196,39.085365,15.609756
1548456057552,-0.946167,0.249817,-0.372375,29.268293,40.000000,13.658537
1548456057559,-0.944275,0.253662,-0.375305,31.646341,38.292683,11.036586
1548456057574,-0.922607,0.252869,-0.386536,33.841465,37.560978,7.987805
1548456057582,-0.917725,0.239380,-0.402954,35.487804,37.865856,5.000000
1548456057589,-0.933716,0.215332,-0.413940,36.280487,36.158539,1.341463
1548456057605,-0.946350,0.199524,-0.425232,36.829269,33.170731,-1.524390
1548456057612,-0.958740,0.181213,-0.427429,36.097561,30.243902,-4.512195
1548456057619,-0.950989,0.146362,-0.456055,34.451221,26.829269,-6.707317
1548456057634,-0.919434,0.101562,-0.484558,32.073170,24.024391,-8.841464
1548456057642,-0.902222,0.079651,-0.481995,27.500000,19.207317,-12.317074
1548456057649,-0.889343,0.112793,-0.463867,17.621952,12.560976,-11.097561
1548456057664,-0.881714,0.161987,-0.463440,5.182927,6.280488,-6.463415
1548456057672,-0.881165,0.214478,-0.441101,-2.256098,3.414634,-3.414634
1548456057679,-0.878174,0.237305,-0.436707,-1.524390,3.963415,-2.682927
1548456057694,-0.878296,0.204102,-0.465454,4.939024,7.621952,-4.085366
1548456057702,-0.888123,0.174133,-0.479004,12.317074,10.914635,-6.585366
1548456057709,-0.886658,0.153809,-0.489258,16.158537,10.914635,-7.317073
1548456057724,-0.886963,0.141113,-0.493347,16.036585,9.207317,-7.073171
1548456057732,-0.888245,0.122375,-0.496887,14.451220,6.951220,-6.219512
1548456057739,-0.882690,0.121765,-0.487793,12.134147,4.146341,-5.853659
1548456057755,-0.890747,0.121643,-0.470398,9.024390,1.219512,-5.243903
1548456057762,-0.895874,0.121704,-0.467896,6.402439,-0.365854,-5.060976
1548456057769,-0.902039,0.123230,-0.465637,5.182927,-0.121951,-5.121951
1548456057785,-0.913208,0.126038,-0.452576,4.756098,-0.121951,-5.060976
1548456057792,-0.923279,0.118896,-0.448853,4.756098,-0.487805,-5.182927
1548456057799,-0.924500,0.115601,-0.446960,5.000000,-0.060976,-5.182927
1548456057814,-0.928589,0.108032,-0.447510,4.573171,0.121951,-4.634146
1548456057822,-0.925476,0.101196,-0.447937,2.865854,-0.670732,-4.146341
1548456057829,-0.929810,0.112244,-0.435303,0.548781,-1.951220,-3.414634
1548456057844,-0.932312,0.123779,-0.426086,-1.463415,-3.170732,-2.073171
1548456057852,-0.932983,0.129211,-0.430420,-2.378049,-3.292683,-0.853659
1548456057859,-0.933411,0.129883,-0.429810,-2.012195,-2.682927,-0.121951
1548456057874,-0.931885,0.126343,-0.431396,-1.280488,-2.134146,0.548781
1548456057882,-0.933105,0.130249,-0.429565,-0.548781,-1.646341,1.280488
1548456057889,-0.934082,0.128235,-0.437012,-0.365854,-1.219512,2.012195
1548456057904,-0.923157,0.126404,-0.443726,-0.548781,-0.975610,2.073171
1548456057912,-0.928467,0.135437,-0.433289,-1.219512,-0.975610,2.378049
1548456057920,-0.931641,0.136353,-0.436768,-1.951220,-1.890244,3.292683
1548456057934,-0.926575,0.137878,-0.438965,-1.585366,-1.646341,3.719512
1548456057942,-0.929382,0.141724,-0.434326,-1.158537,-1.280488,4.390244
1548456057949,-0.924438,0.133606,-0.448853,-1.036585,-1.524390,4.390244
1548456057964,-0.920227,0.134766,-0.447388,-1.158537,-1.219512,3.658537
1548456057972,-0.919067,0.142395,-0.442078,-1.768293,-1.890244,4.146341
1548456057979,-0.920349,0.147278,-0.440063,-2.134146,-2.439024,4.756098
1548456057994,-0.924255,0.151428,-0.440918,-1.890244,-2.378049,4.756098
1548456058002,-0.921875,0.152649,-0.444458,-1.280488,-2.256098,4.817073
1548456058009,-0.922302,0.154297,-0.445801,-0.853659,-2.073171,4.329268
1548456058024,-0.925354,0.151367,-0.449707,-0.304878,-1.951220,3.414634
1548456058032,-0.920593,0.152710,-0.444885,-0.670732,-2.500000,2.621951
1548456058039,-0.924316,0.160583,-0.435425,-1.768293,-3.536585,2.439024
1548456058054,-0.926086,0.163818,-0.431824,-2.317073,-4.085366,2.682927
1548456058062,-0.924011,0.165100,-0.431152,-1.768293,-3.597561,2.560976
1548456058069,-0.924744,0.160034,-0.433777,-0.975610,-2.682927,2.378049
1548456058084,-0.923157,0.157166,-0.439087,-0.365854,-2.256098,2.134146
1548456058092,-0.923340,0.156860,-0.437317,0.000000,-2.195122,2.195122
1548456058099,-0.923401,0.156250,-0.439087,-0.121951,-2.134146,2.682927
1548456058114,-0.923401,0.153748,-0.439270,-0.426829,-1.951220,2.987805
1548456058122,-0.922424,0.152527,-0.436218,-0.548781,-1.829268,2.987805
1548456058129,-0.924683,0.152527,-0.431641,-0.731707,-1.768293,2.743902
1548456058144,-0.927368,0.154114,-0.429321,-0.731707,-1.463415,2.743902
1548456058152,-0.929688,0.154907,-0.429016,-0.426829,-1.036585,2.804878
1548456058159,-0.928467,0.153809,-0.430664,0.121951,-0.304878,2.682927
1548456058174,-0.927307,0.151184,-0.432617,0.670732,0.365854,2.560976
1548456058182,-0.927612,0.150818,-0.434875,0.853659,0.731707,2.256098
1548456058190,-0.925293,0.154663,-0.436279,0.731707,0.609756,1.951220
1548456058204,-0.926147,0.153442,-0.438721,0.487805,0.548781,1.768293
1548456058212,-0.926025,0.154175,-0.439087,0.182927,0.426829,1.524390
1548456058219,-0.924622,0.155518,-0.435547,-0.365854,0.000000,1.402439
1548456058235,-0.927307,0.156006,-0.434570,-0.975610,-0.670732,1.341463
1548456058242,-0.930542,0.156738,-0.431946,-1.524390,-0.975610,1.219512
1548456058249,-0.936035,0.158508,-0.432373,-1.951220,-1.036585,1.158537
1548456058264,-0.931396,0.160278,-0.427124,-2.317073,-1.402439,1.097561
1548456058272,-0.928162,0.158508,-0.428040,-2.378049,-1.524390,1.036585
1548456058279,-0.929810,0.156677,-0.428284,-2.439024,-1.829268,0.975610
1548456058294,-0.934570,0.153137,-0.429260,-2.317073,-2.256098,0.975610
1548456058302,-0.936157,0.157043,-0.425354,-2.378049,-2.560976,1.036585
1548456058309,-0.933044,0.160095,-0.423706,-2.560976,-2.743902,1.036585
1548456058324,-0.932373,0.160828,-0.424744,-2.439024,-2.804878,1.097561
1548456058332,-0.937561,0.155518,-0.428284,-2.317073,-2.743902,0.914634
1548456058339,-0.940247,0.154236,-0.430603,-2.134146,-2.195122,0.731707
1548456058354,-0.932495,0.155762,-0.434875,-2.134146,-1.890244,0.914634
1548456058362,-0.925964,0.155151,-0.435303,-2.378049,-1.890244,1.158537
1548456058369,-0.918945,0.156616,-0.435242,-2.926829,-2.500000,0.853659
1548456058384,-0.923828,0.155823,-0.431458,-3.536585,-3.170732,0.609756
1548456058392,-0.927917,0.156921,-0.430664,-3.780488,-3.963415,0.487805
1548456058399,-0.930054,0.162964,-0.432983,-3.902439,-4.390244,0.426829
1548456058414,-0.938110,0.164001,-0.438660,-4.085366,-4.146341,0.182927
1548456058422,-0.936401,0.162720,-0.438965,-4.024390,-3.475610,-0.243902
1548456058429,-0.917969,0.165344,-0.434509,-3.963415,-3.414634,-0.304878
1548456058444,-0.911194,0.161682,-0.437073,-4.390244,-4.512195,-0.182927
1548456058452,-0.911499,0.159363,-0.432312,-4.878049,-6.036585,-0.670732
1548456058459,-0.922058,0.162292,-0.428528,-5.426829,-7.560976,-1.036585
1548456058474,-0.931458,0.170044,-0.426086,-5.975610,-8.231708,-1.158537
1548456058482,-0.935120,0.174988,-0.430237,-6.341464,-8.170732,-1.463415
1548456058489,-0.931030,0.177551,-0.432434,-6.280488,-7.804878,-1.829268
1548456058504,-0.927246,0.173462,-0.432251,-5.792683,-7.682927,-2.500000
1548456058512,-0.928406,0.169373,-0.430298,-5.304878,-8.414635,-3.109756
1548456058519,-0.925171,0.170166,-0.425842,-5.243903,-9.390244,-3.658537
1548456058534,-0.921997,0.169312,-0.422546,-5.792683,-10.487805,-4.146341
1548456058542,-0.927063,0.166138,-0.422485,-6.463415,-11.524390,-4.329268
1548456058550,-0.934143,0.164307,-0.420532,-7.012195,-12.378049,-4.695122
1548456058564,-0.940125,0.166504,-0.416016,-7.439024,-12.682927,-5.182927
1548456058572,-0.936829,0.171936,-0.415222,-7.804878,-13.170732,-5.609756
1548456058579,-0.934143,0.173096,-0.414734,-8.048780,-13.475610,-6.097561
1548456058595,-0.934082,0.168457,-0.414856,-8.170732,-13.719513,-7.073171
1548456058602,-0.934509,0.167419,-0.409302,-8.231708,-14.451220,-8.170732
1548456058609,-0.931274,0.169006,-0.406128,-8.170732,-15.365854,-8.719512
1548456058624,-0.930481,0.165710,-0.403442,-8.353659,-16.158537,-9.268292
1548456058632,-0.936218,0.162170,-0.398865,-8.841464,-17.317074,-10.060976
1548456058639,-0.941528,0.161011,-0.398926,-9.512196,-18.231709,-10.548780
1548456058654,-0.943909,0.160950,-0.391846,-10.243902,-18.658537,-10.853659
1548456058662,-0.946228,0.160706,-0.386658,-10.914635,-19.390244,-11.158537
1548456058669,-0.943420,0.161682,-0.384705,-11.463415,-20.121952,-11.524390
1548456058684,-0.945496,0.157227,-0.382141,-11.707317,-20.792683,-12.134147
1548456058692,-0.946960,0.151428,-0.376221,-11.951220,-21.829269,-12.926829
1548456058699,-0.949951,0.151428,-0.373779,-12.439025,-22.926830,-13.841464
1548456058714,-0.954285,0.155762,-0.368591,-13.292684,-24.146341,-14.512196
1548456058722,-0.956543,0.154053,-0.366577,-13.658537,-25.121952,-15.060976
1548456058729,-0.956909,0.154785,-0.361023,-13.475610,-25.670732,-15.853659
1548456058744,-0.955872,0.150391,-0.356262,-12.439025,-26.707317,-16.951220
1548456058752,-0.958801,0.146118,-0.356262,-10.853659,-27.743902,-18.170732
1548456058759,-0.960876,0.146545,-0.344543,-8.841464,-28.963415,-19.085367
1548456058774,-0.967041,0.150269,-0.324890,-7.073171,-30.548780,-19.939024
1548456058782,-0.977051,0.146545,-0.314575,-6.097561,-31.890245,-20.731709
1548456058789,-0.986511,0.137634,-0.304565,-5.548780,-32.256100,-21.829269
1548456058805,-0.989014,0.129578,-0.300415,-5.243903,-31.646341,-22.865854
1548456058812,-0.985046,0.124390,-0.299255,-4.817073,-30.060976,-23.536587
1548456058819,-0.983032,0.119324,-0.299500,-4.207317,-29.268293,-24.268293
1548456058834,-0.978149,0.104065,-0.297241,-3.536585,-29.817074,-25.426830
1548456058842,-0.979492,0.102112,-0.287476,-3.170732,-31.097561,-26.036587
1548456058850,-0.988586,0.101624,-0.282959,-2.926829,-32.682926,-25.060976
1548456058864,-0.993835,0.094727,-0.272705,-3.536585,-33.597561,-24.634148
1548456058872,-0.994751,0.093506,-0.264038,-4.817073,-34.268295,-24.390244
1548456058880,-0.997498,0.089355,-0.261780,-5.731708,-34.451221,-24.573172
1548456058894,-0.997070,0.083984,-0.260071,-6.341464,-34.390244,-25.121952
1548456058902,-0.995117,0.081604,-0.257263,-6.768293,-34.451221,-25.731709
1548456058909,-0.994995,0.079041,-0.250671,-6.890244,-34.573170,-25.792683
1548456058924,-0.996277,0.076233,-0.246765,-6.768293,-35.121952,-25.914635
1548456058932,-1.000366,0.069214,-0.242859,-6.524390,-35.975609,-26.280489
1548456058939,-1.004028,0.064087,-0.238159,-6.341464,-36.463417,-26.585367
1548456058954,-1.004272,0.061707,-0.235229,-5.670732,-37.073170,-26.890245
1548456058962,-1.003845,0.057251,-0.228638,-4.756098,-37.500000,-27.195122
1548456058977,-1.006958,0.058716,-0.216553,-3.658537,-37.987804,-27.621952
1548456058984,-1.012268,0.058411,-0.200745,-2.987805,-38.902439,-28.170732
1548456058992,-1.013611,0.052063,-0.192444,-3.048780,-39.695122,-28.536587
1548456058999,-1.015442,0.046143,-0.185608,-2.865854,-39.817074,-29.146341
1548456059014,-1.016418,0.039185,-0.181641,-2.500000,-39.512196,-29.878050
1548456059022,-1.017517,0.033203,-0.180969,-2.073171,-39.207317,-30.914635
1548456059029,-1.014648,0.024292,-0.177002,-1.707317,-38.902439,-31.890245
1548456059044,-1.011169,0.017639,-0.174316,-1.646341,-39.207317,-32.621952
1548456059052,-1.011963,0.013733,-0.171448,-1.402439,-40.548782,-33.048782
1548456059059,-1.011780,0.011658,-0.163086,-1.280488,-42.134148,-33.475609
1548456059074,-1.013611,0.013062,-0.148499,-1.036585,-43.841465,-34.024391
1548456059082,-1.014709,0.008911,-0.133972,-0.609756,-46.097561,-35.060978
1548456059090,-1.020386,-0.000427,-0.119568,-0.121951,-47.865856,-36.402439
1548456059104,-1.021545,-0.011597,-0.106812,0.792683,-48.536587,-37.682926
1548456059112,-1.022339,-0.019653,-0.098816,1.463415,-48.597561,-38.780487
1548456059119,-1.026123,-0.029480,-0.096619,2.012195,-48.475613,-39.390244
1548456059135,-1.027588,-0.037048,-0.091492,2.134146,-47.987804,-39.512196
1548456059142,-1.024536,-0.045959,-0.083984,1.951220,-47.439026,-39.573174
1548456059149,-1.022461,-0.049988,-0.082458,1.524390,-48.170734,-39.512196
1548456059164,-1.016785,-0.053101,-0.076660,1.646341,-49.268295,-39.451221
1548456059172,-1.013489,-0.059937,-0.064148,2.378049,-51.402439,-40.426830
1548456059179,-1.013123,-0.067993,-0.051819,2.743902,-54.207317,-42.195122
1548456059194,-1.014893,-0.078125,-0.036255,2.621951,-56.890244,-43.597561
1548456059202,-1.015930,-0.088318,-0.015015,2.439024,-58.536587,-44.512196
1548456059210,-1.017334,-0.099243,-0.001831,2.317073,-59.085369,-45.000000
1548456059224,-1.018372,-0.110718,0.006775,2.012195,-58.780491,-44.817074
1548456059232,-1.018738,-0.116638,0.014832,2.073171,-57.743904,-44.207317
1548456059239,-1.018250,-0.125549,0.021851,2.560976,-56.402439,-43.414635
1548456059254,-1.014587,-0.133362,0.034973,3.170732,-55.121952,-42.865856
1548456059262,-1.008179,-0.140930,0.042664,3.963415,-54.939026,-42.500000
1548456059269,-1.004028,-0.153992,0.049377,5.000000,-55.609756,-42.317074
1548456059284,-0.994080,-0.164856,0.057129,5.975610,-56.646343,-42.012196
1548456059292,-0.992432,-0.178406,0.066650,6.158537,-58.109756,-41.829269
1548456059299,-0.997253,-0.189697,0.080505,5.487805,-60.304878,-41.402439
1548456059314,-1.010925,-0.203613,0.097290,4.451220,-62.256100,-40.731709
1548456059322,-1.015137,-0.211487,0.112854,2.926829,-63.536587,-39.878048
1548456059329,-1.016052,-0.216858,0.121399,1.890244,-63.292683,-38.841465
1548456059344,-1.010559,-0.220581,0.133789,1.341463,-62.195122,-37.682926
1548456059352,-1.007263,-0.223999,0.142517,1.402439,-60.548782,-36.646343
1548456059367,-0.999329,-0.227234,0.151062,1.890244,-59.268295,-35.853661
1548456059374,-0.998840,-0.233459,0.159058,2.195122,-58.353661,-35.365856
1548456059382,-1.005737,-0.240479,0.170288,2.439024,-58.353661,-35.000000
1548456059389,-0.995239,-0.249573,0.182800,2.439024,-58.414635,-34.634148
1548456059404,-0.992615,-0.258118,0.187195,2.073171,-57.987804,-34.268295
1548456059412,-0.983521,-0.258606,0.195129,1.402439,-58.048782,-33.536587
1548456059420,-0.979919,-0.256042,0.207886,0.792683,-58.231709,-33.109756
1548456059434,-0.979370,-0.257690,0.222961,-0.731707,-59.329269,-33.048782
1548456059442,-0.980042,-0.258606,0.235718,-2.378049,-59.939026,-33.353661
1548456059449,-0.977722,-0.260315,0.241943,-3.231707,-60.304878,-33.902439
1548456059464,-0.979675,-0.256470,0.219666,-3.780488,-60.182930,-34.451221
1548456059472,-0.957581,-0.281067,0.288696,-3.414634,-62.012196,-35.121952
1548456059479,-0.952820,-0.279602,0.257935,-2.560976,-66.768295,-36.341465
1548456059494,-0.933777,-0.293762,0.288940,-4.878049,-62.621952,-34.878048
1548456059502,-0.930176,-0.300293,0.277100,-6.219512,-64.512199,-35.000000
1548456059510,-0.927917,-0.298462,0.284851,-8.475610,-63.109756,-33.902439
1548456059524,-0.924805,-0.296021,0.304321,-8.597561,-65.365852,-33.719513
1548456059532,-0.931030,-0.297913,0.320679,-7.987805,-67.682930,-34.024391
1548456059539,-0.935303,-0.303284,0.333618,-7.073171,-68.963417,-34.939026
1548456059555,-0.930908,-0.308594,0.353027,-5.670732,-69.695122,-36.097561
1548456059562,-0.922974,-0.320007,0.354309,-4.451220,-68.353661,-36.890244
1548456059577,-0.915100,-0.331970,0.362427,-3.841464,-66.036591,-37.439026
1548456059592,-0.904602,-0.339600,0.369202,-3.475610,-65.426834,-37.987804
1548456059592,-0.889282,-0.346619,0.375122,-3.963415,-65.000000,-38.414635
1548456059599,-0.878784,-0.358643,0.381653,-4.512195,-65.365852,-38.536587
1548456059614,-0.866394,-0.369202,0.392700,-5.304878,-66.829269,-38.597561
1548456059629,-0.866394,-0.377625,0.410278,-6.646342,-68.841469,-38.414635
1548456059630,-0.867493,-0.382935,0.427368,-8.170732,-71.097565,-38.414635
1548456059644,-0.863220,-0.383850,0.442383,-9.512196,-72.500000,-38.353661
1548456059652,-0.864685,-0.389160,0.461670,-9.695122,-73.109756,-38.109756
1548456059659,-0.862122,-0.392578,0.480835,-9.085366,-72.743904,-38.048782
1548456059682,-0.850830,-0.399475,0.493225,-7.560976,-70.609756,-37.865856
1548456059683,-0.848389,-0.413025,0.501831,-5.975610,-67.378052,-37.439026
1548456059697,-0.835388,-0.424988,0.499329,-4.634146,-64.329269,-36.402439
1548456059704,-0.820374,-0.435913,0.504333,-3.658537,-60.487804,-35.060978
1548456059712,-0.804749,-0.442505,0.513184,-3.048780,-57.560978,-33.536587
1548456059719,-0.793945,-0.451965,0.516724,-2.987805,-55.975613,-32.256100
1548456059735,-0.788086,-0.455872,0.523865,-3.536585,-55.000000,-31.341465
1548456059742,-0.783447,-0.456604,0.526550,-4.512195,-54.085365,-30.975611
1548456059749,-0.775940,-0.452332,0.532288,-5.121951,-52.987804,-30.548780
1548456059765,-0.769348,-0.448730,0.541260,-5.487805,-51.951221,-30.304878
1548456059772,-0.765625,-0.446899,0.546997,-5.548780,-51.036587,-30.182928
1548456059779,-0.766663,-0.451172,0.554504,-4.939024,-50.182926,-30.182928
1548456059787,-0.767151,-0.460327,0.560364,-3.597561,-48.963417,-30.243902
1548456059802,-0.762512,-0.470825,0.566101,-2.073171,-47.439026,-30.121952
1548456059810,-0.756836,-0.479980,0.573914,-1.341463,-45.426830,-29.512196
1548456059817,-0.753357,-0.485291,0.582886,-1.280488,-43.353661,-28.536587
1548456059832,-0.747131,-0.484314,0.589111,-1.524390,-41.158539,-27.256098
1548456059839,-0.735901,-0.486938,0.590027,-1.951220,-38.902439,-25.731709
1548456059847,-0.722412,-0.492737,0.592651,-2.865854,-37.012196,-24.146341
1548456059862,-0.710144,-0.499084,0.594482,-4.817073,-35.670734,-22.804878
1548456059869,-0.693542,-0.500427,0.589050,-7.439024,-34.573170,-21.951220
1548456059877,-0.682739,-0.498657,0.588928,-10.182927,-34.207317,-21.646341
1548456059892,-0.679260,-0.493286,0.589233,-12.378049,-34.878048,-21.646341
1548456059900,-0.676147,-0.485046,0.589844,-13.719513,-36.219513,-22.439024
1548456059907,-0.678284,-0.478394,0.589844,-13.902439,-37.926830,-23.658537
1548456059922,-0.680481,-0.479919,0.592834,-12.926829,-39.329269,-25.000000
1548456059930,-0.685974,-0.483337,0.598877,-10.365854,-40.243904,-25.914635
1548456059937,-0.685547,-0.495056,0.607117,-6.829268,-40.182926,-26.036587
1548456059952,-0.677185,-0.502747,0.620667,-2.926829,-39.024391,-25.792683
1548456059959,-0.672729,-0.510437,0.629944,0.792683,-37.195122,-25.426830
1548456059967,-0.662415,-0.511536,0.631165,4.085366,-35.243904,-25.304878
1548456059982,-0.649231,-0.517517,0.632019,6.707317,-33.048782,-25.426830
1548456059989,-0.637268,-0.525940,0.631409,7.926829,-31.524391,-25.548780
1548456059997,-0.628357,-0.539429,0.629028,7.500000,-31.036587,-25.365854
1548456060013,-0.617920,-0.548157,0.632141,5.243903,-31.219513,-25.243902
1548456060019,-0.608704,-0.552246,0.636108,1.951220,-32.195122,-25.182928
1548456060027,-0.601257,-0.555542,0.644165,-1.768293,-33.414635,-25.121952
1548456060042,-0.595398,-0.552734,0.648438,-4.634146,-34.695122,-25.182928
1548456060050,-0.593384,-0.542542,0.648804,-6.463415,-36.036587,-25.243902
1548456060057,-0.593384,-0.532043,0.653015,-7.317073,-36.768295,-25.548780
1548456060072,-0.589661,-0.525574,0.655518,-6.768293,-36.768295,-25.853659
1548456060079,-0.584351,-0.527222,0.653381,-4.817073,-36.219513,-25.975611
1548456060087,-0.578125,-0.534119,0.656555,-2.195122,-35.548782,-25.975611
1548456060102,-0.569275,-0.545044,0.660339,0.365854,-35.121952,-25.548780
1548456060110,-0.563049,-0.559570,0.665955,2.378049,-35.060978,-25.304878
1548456060117,-0.558899,-0.572571,0.668640,2.865854,-35.304878,-25.243902
1548456060132,-0.549255,-0.575928,0.671265,2.560976,-35.548782,-25.304878
1548456060140,-0.536743,-0.570251,0.675537,1.768293,-35.792683,-25.243902
1548456060147,-0.527405,-0.564514,0.684204,0.304878,-36.280487,-24.939026
1548456060162,-0.525085,-0.565430,0.691040,-1.036585,-36.890244,-25.060976
1548456060170,-0.522400,-0.567627,0.687866,-1.524390,-37.621952,-25.182928
1548456060177,-0.518555,-0.574097,0.687195,-1.402439,-38.109756,-25.182928
1548456060192,-0.511292,-0.579529,0.690796,-1.524390,-38.109756,-25.060976
1548456060199,-0.502441,-0.576294,0.698547,-1.280488,-38.048782,-25.182928
1548456060215,-0.494446,-0.574158,0.703430,-0.487805,-37.804878,-25.121952
1548456060222,-0.492737,-0.583252,0.711182,0.670732,-37.500000,-24.695122
1548456060229,-0.489807,-0.597900,0.717102,1.646341,-37.073170,-24.024391
1548456060237,-0.482971,-0.606567,0.722229,2.378049,-36.219513,-23.414635
1548456060252,-0.471191,-0.606201,0.722839,2.560976,-35.243904,-22.865854
1548456060267,-0.460754,-0.598999,0.726196,2.195122,-34.146343,-22.256098
1548456060267,-0.452637,-0.593384,0.726318,1.524390,-33.353661,-21.890244
1548456060282,-0.445496,-0.596863,0.728638,0.731707,-32.987804,-21.707317
1548456060289,-0.436890,-0.601624,0.729309,-0.060976,-32.987804,-21.646341
1548456060305,-0.427795,-0.604370,0.731201,-0.792683,-32.926830,-21.524391
1548456060312,-0.419800,-0.601746,0.736877,-1.341463,-32.743904,-21.158537
1548456060319,-0.414368,-0.594727,0.735535,-1.524390,-32.439026,-20.853659
1548456060327,-0.413269,-0.589844,0.735413,-1.280488,-32.378048,-20.914635
1548456060342,-0.411926,-0.589478,0.736572,-0.731707,-32.500000,-21.280489
1548456060349,-0.409424,-0.596558,0.735779,0.060976,-32.621952,-21.524391
1548456060357,-0.405701,-0.602234,0.738892,0.975610,-32.682926,-21.524391
1548456060372,-0.397827,-0.600891,0.741882,1.402439,-32.378048,-21.463415
1548456060379,-0.390198,-0.596558,0.747375,1.707317,-32.378048,-21.463415
1548456060387,-0.383179,-0.596130,0.754639,2.134146,-32.500000,-21.280489
1548456060402,-0.380737,-0.601318,0.760254,2.378049,-32.865856,-21.341463
1548456060410,-0.375671,-0.606567,0.762268,2.621951,-33.231709,-21.280489
1548456060417,-0.367249,-0.608582,0.768127,2.804878,-33.353661,-20.975611
1548456060432,-0.372314,-0.613770,0.782654,3.292683,-33.597561,-20.426830
1548456060439,-0.386963,-0.636353,0.809265,4.085366,-34.085365,-20.182928
1548456060447,-0.391846,-0.662659,0.822815,5.792683,-34.146343,-19.817074
1548456060462,-0.385132,-0.659546,0.824463,7.500000,-32.865856,-20.000000
1548456060469,-0.339417,-0.640625,0.804993,7.439024,-29.878050,-19.512196
1548456060477,-0.322876,-0.628784,0.778992,5.060976,-27.865854,-19.024391
1548456060492,-0.318176,-0.620911,0.763733,1.951220,-27.743902,-18.231709
1548456060499,-0.317932,-0.627563,0.766479,0.060976,-28.170732,-17.073172
1548456060507,-0.312561,-0.624756,0.783081,-0.365854,-28.963415,-15.853659
1548456060522,-0.311584,-0.630676,0.793701,0.243902,-29.329269,-14.695123
1548456060537,-0.299438,-0.623230,0.788147,0.670732,-28.719513,-13.963415
1548456060537,-0.296326,-0.620850,0.784119,1.585366,-27.134148,-13.475610
1548456060559,-0.288940,-0.623352,0.779053,1.707317,-25.548780,-13.231708
1548456060560,-0.282104,-0.622131,0.782593,1.951220,-24.756098,-13.048780
1548456060574,-0.283386,-0.625793,0.788757,1.219512,-24.878050,-12.621951
1548456060589,-0.277405,-0.621582,0.786133,1.036585,-25.121952,-11.585366
1548456060590,-0.269714,-0.624084,0.784241,1.402439,-24.146341,-9.451220
1548456060597,-0.267883,-0.621948,0.787048,1.951220,-22.987806,-8.292683
1548456060612,-0.265808,-0.614929,0.780029,2.865854,-21.463415,-7.743903
1548456060627,-0.270447,-0.616760,0.790039,3.841464,-20.000000,-7.804878
1548456060627,-0.259766,-0.618469,0.789795,4.756098,-19.512196,-7.743903
1548456060642,-0.256409,-0.621826,0.787537,4.939024,-19.268293,-7.743903
1548456060664,-0.262512,-0.612610,0.797058,3.780488,-19.634148,-8.353659
1548456060665,-0.253479,-0.619873,0.798950,2.987805,-20.060976,-8.231708
1548456060679,-0.244873,-0.618835,0.796875,2.865854,-20.121952,-8.109756
1548456060680,-0.244080,-0.617981,0.798584,2.012195,-20.121952,-7.804878
1548456060709,-0.240417,-0.618286,0.800110,0.670732,-19.634148,-7.987805
1548456060710,-0.231750,-0.618958,0.796387,-0.243902,-18.902439,-8.170732
1548456060717,-0.231018,-0.618652,0.798889,-1.097561,-18.292683,-8.597561
1548456060717,-0.238037,-0.613953,0.802429,-2.804878,-17.865854,-9.634147
1548456060732,-0.228882,-0.615173,0.794739,-4.268293,-17.439024,-10.426829
1548456060747,-0.225159,-0.617859,0.793274,-4.329268,-17.134148,-11.280488
1548456060747,-0.224243,-0.613831,0.797241,-4.939024,-17.500000,-12.804878
1548456060762,-0.220093,-0.619385,0.788574,-5.365854,-17.987804,-14.085366
1548456060769,-0.213562,-0.623413,0.792786,-5.121951,-18.414635,-15.121951
1548456060784,-0.202820,-0.625305,0.791016,-5.182927,-19.878050,-16.524391
1548456060799,-0.202393,-0.626343,0.789551,-5.609756,-20.853659,-17.743902
1548456060800,-0.198853,-0.627197,0.794739,-5.426829,-21.463415,-18.536585
1548456060807,-0.191284,-0.634827,0.793701,-4.939024,-21.890244,-19.390244
1548456060822,-0.182495,-0.636108,0.797852,-4.085366,-22.012196,-19.512196
1548456060837,-0.178955,-0.636597,0.796387,-4.085366,-21.524391,-19.756098
1548456060837,-0.170654,-0.641907,0.801575,-3.292683,-20.426830,-18.963415
1548456060852,-0.171448,-0.637085,0.806946,-3.109756,-19.085367,-18.780489
1548456060867,-0.162109,-0.644836,0.806274,-2.256098,-17.195122,-17.073172
1548456060867,-0.158081,-0.644470,0.809204,-1.402439,-15.731708,-15.365854
1548456060882,-0.157654,-0.641541,0.803589,-1.646341,-13.963415,-13.780488
1548456060897,-0.154236,-0.643799,0.803772,-1.890244,-11.768293,-12.317074
1548456060904,-0.151306,-0.644409,0.804016,-1.646341,-10.670732,-11.036586
1548456060912,-0.153259,-0.642334,0.805237,-1.097561,-9.390244,-9.451220
1548456060919,-0.149048,-0.642456,0.806885,-0.731707,-8.109756,-7.926829
1548456060942,-0.149780,-0.640259,0.806702,-1.036585,-7.134147,-7.073171
1548456060942,-0.149475,-0.643005,0.804199,-1.463415,-6.036585,-6.463415
1548456060957,-0.145386,-0.643372,0.802246,-1.890244,-5.182927,-5.914634
1548456060957,-0.144043,-0.644165,0.803040,-2.195122,-4.512195,-5.060976
1548456060972,-0.144958,-0.644958,0.801514,-2.256098,-3.963415,-3.963415
1548456060987,-0.145691,-0.643372,0.800720,-2.500000,-3.231707,-3.109756
1548456060987,-0.145447,-0.645325,0.798279,-2.743902,-2.560976,-2.439024
1548456061010,-0.144531,-0.643616,0.796021,-3.048780,-2.195122,-2.134146
1548456061010,-0.145691,-0.642395,0.792725,-3.170732,-1.829268,-1.829268
1548456061024,-0.144836,-0.643250,0.791260,-3.048780,-1.646341,-1.585366
1548456061032,-0.144836,-0.643616,0.791321,-2.926829,-1.585366,-1.524390
1548456061039,-0.143555,-0.644104,0.789124,-2.743902,-1.829268,-1.646341
1548456061047,-0.145935,-0.643311,0.789978,-2.439024,-2.073171,-1.768293
1548456061062,-0.144592,-0.643127,0.791992,-2.195122,-2.378049,-1.951220
1548456061077,-0.145203,-0.643127,0.791992,-2.073171,-2.804878,-2.256098
1548456061078,-0.144531,-0.644287,0.790283,-2.134146,-3.109756,-2.621951
1548456061092,-0.140930,-0.642395,0.786865,-2.317073,-3.536585,-2.865854
1548456061099,-0.139771,-0.645264,0.791382,-2.317073,-4.146341,-3.536585
1548456061114,-0.141663,-0.645813,0.789612,-2.378049,-4.207317,-3.963415
1548456061129,-0.141846,-0.645142,0.789612,-2.378049,-4.390244,-3.963415
1548456061130,-0.137451,-0.646118,0.791870,-2.195122,-4.939024,-4.146341
1548456061152,-0.136658,-0.647888,0.793091,-2.012195,-5.487805,-4.817073
1548456061152,-0.136047,-0.645569,0.794250,-2.378049,-5.670732,-5.060976
1548456061167,-0.131287,-0.649353,0.795471,-2.926829,-5.914634,-5.304878
1548456061167,-0.131592,-0.648376,0.794678,-3.780488,-6.036585,-5.609756
1548456061182,-0.131714,-0.649231,0.794189,-4.756098,-5.914634,-5.304878
1548456061197,-0.132202,-0.650024,0.790344,-5.731708,-6.036585,-5.060976
1548456061197,-0.128906,-0.650024,0.788208,-6.646342,-6.219512,-5.121951
1548456061219,-0.126282,-0.653992,0.789978,-7.560976,-6.585366,-5.609756
1548456061220,-0.123901,-0.656738,0.790527,-8.231708,-6.890244,-6.036585
1548456061234,-0.122498,-0.656128,0.787842,-8.536586,-6.951220,-6.158537
1548456061257,-0.122192,-0.657043,0.788086,-8.963415,-6.890244,-6.158537
1548456061272,-0.119446,-0.659790,0.787781,-9.634147,-6.951220,-6.219512
