timestamp, accel_x, accel_y, accel_z, gyro_x, gyro_y, gyro_z
1548455936807,0.267578,-0.926453,0.265320,0.426829,-0.487805,0.609756
1548455936814,0.264832,-0.936707,0.269226,0.609756,-0.670732,0.548781
1548455936829,0.266357,-0.935181,0.267395,0.792683,-0.731707,0.365854
1548455936837,0.267517,-0.934509,0.265991,0.853659,-0.670732,0.243902
1548455936844,0.267700,-0.936157,0.263611,0.731707,-0.487805,0.060976
1548455936874,0.268250,-0.936707,0.265076,0.365854,-0.426829,0.000000
1548455936875,0.268555,-0.935486,0.266785,0.000000,-0.487805,-0.060976
1548455936875,0.268616,-0.936157,0.264404,-0.121951,-0.548781,0.060976
1548455936912,0.270264,-0.936157,0.264587,-0.243902,-0.487805,0.182927
1548455936912,0.273376,-0.936096,0.265869,-0.060976,-0.487805,0.121951
1548455936913,0.272766,-0.937500,0.268250,0.182927,-0.487805,0.060976
1548455936919,0.276184,-0.938110,0.269531,0.426829,-0.548781,0.121951
1548455936927,0.275574,-0.939514,0.270447,0.609756,-0.548781,0.121951
1548455936934,0.273132,-0.939270,0.267212,0.670732,-0.792683,0.182927
1548455936957,0.270386,-0.936401,0.267212,0.487805,-0.914634,0.365854
1548455936958,0.271973,-0.936523,0.266418,0.365854,-0.914634,0.548781
1548455936964,0.270630,-0.938049,0.263611,0.182927,-0.792683,0.609756
1548455936980,0.270325,-0.934204,0.263123,0.182927,-0.792683,0.731707
1548455936987,0.271606,-0.931946,0.264160,0.243902,-0.853659,0.609756
1548455937017,0.268738,-0.932129,0.264954,0.243902,-0.853659,0.548781
1548455937017,0.266907,-0.935486,0.261719,0.365854,-0.792683,0.609756
1548455937018,0.266235,-0.936096,0.263428,0.548781,-0.792683,0.548781
1548455937024,0.266541,-0.936340,0.266602,0.731707,-0.792683,0.426829
1548455937047,0.269348,-0.937195,0.268738,0.731707,-0.731707,0.304878
1548455937050,0.270447,-0.939026,0.266846,0.365854,-0.792683,0.121951
1548455937084,0.268860,-0.939026,0.266541,0.060976,-0.853659,0.060976
1548455937085,0.268982,-0.936340,0.264832,0.000000,-0.914634,0.000000
1548455937086,0.268188,-0.934082,0.264404,0.121951,-0.914634,0.121951
1548455937092,0.268311,-0.935364,0.267517,0.243902,-0.975610,0.243902
1548455937107,0.267700,-0.936340,0.266724,0.365854,-0.853659,0.365854
1548455937107,0.268494,-0.936035,0.264282,0.426829,-0.731707,0.670732
1548455937114,0.266602,-0.936218,0.264771,0.365854,-0.670732,0.670732
1548455937129,0.268188,-0.934814,0.265503,0.365854,-0.609756,0.426829
1548455937137,0.269287,-0.936340,0.265686,0.426829,-0.670732,0.304878
1548455937152,0.271362,-0.938965,0.266541,0.426829,-0.731707,0.304878
1548455937174,0.270203,-0.938171,0.267578,0.304878,-0.853659,0.182927
1548455937175,0.268433,-0.935852,0.268066,0.121951,-0.731707,0.243902
1548455937175,0.269775,-0.935242,0.268250,0.000000,-0.670732,0.243902
1548455937189,0.269104,-0.934265,0.267517,0.060976,-0.609756,0.243902
1548455937197,0.272400,-0.935181,0.269226,0.243902,-0.548781,0.304878
1548455937212,0.273621,-0.930603,0.270935,0.365854,-0.609756,0.304878
1548455937219,0.272888,-0.929016,0.266846,0.609756,-0.365854,0.182927
1548455937227,0.273132,-0.934326,0.265381,1.280488,0.000000,0.304878
1548455937264,0.271667,-0.934326,0.262268,2.073171,0.365854,0.487805
1548455937272,0.274231,-0.936218,0.267334,2.743902,0.731707,0.548781
1548455937272,0.276733,-0.944885,0.269897,3.231707,0.914634,0.731707
1548455937279,0.277954,-0.950989,0.270691,3.780488,1.036585,0.914634
1548455937280,0.278687,-0.951355,0.271545,3.841464,1.036585,1.524390
1548455937287,0.276428,-0.950378,0.275818,3.292683,0.975610,2.195122
1548455937295,0.273071,-0.943726,0.278687,1.341463,0.731707,2.987805
1548455937309,0.269775,-0.938232,0.278442,-0.792683,0.182927,3.719512
1548455937317,0.261292,-0.941895,0.281311,-1.463415,-0.243902,4.512195
1548455937324,0.254272,-0.946716,0.287537,-1.219512,-0.243902,5.121951
1548455937347,0.256592,-0.946289,0.284485,-1.036585,0.121951,5.731708
1548455937348,0.263794,-0.939453,0.278198,-1.707317,1.219512,6.097561
1548455937369,0.266052,-0.932251,0.273560,-2.195122,1.951220,5.975610
1548455937370,0.261780,-0.932678,0.270874,-1.585366,2.134146,5.548780
1548455937384,0.257812,-0.932800,0.266663,-0.121951,1.829268,5.609756
1548455937385,0.255493,-0.930481,0.261536,1.463415,1.646341,5.609756
1548455937399,0.250854,-0.935852,0.263550,2.378049,2.012195,5.304878
1548455937407,0.251892,-0.937439,0.263062,2.682927,2.256098,4.634146
1548455937414,0.258667,-0.937317,0.261475,2.865854,2.560976,3.902439
1548455937430,0.267029,-0.942505,0.262085,2.256098,2.500000,3.292683
1548455937437,0.268738,-0.948547,0.260925,1.097561,2.012195,3.048780
1548455937452,0.260742,-0.947754,0.251831,0.000000,1.219512,3.170732
1548455937474,0.247437,-0.950256,0.235046,-0.731707,0.853659,3.719512
1548455937475,0.239807,-0.963135,0.226379,-1.646341,1.219512,4.634146
1548455937475,0.235291,-0.974792,0.233398,-2.804878,1.951220,5.548780
1548455937490,0.237305,-0.968750,0.243958,-4.268293,2.560976,6.036585
1548455937497,0.242126,-0.955933,0.256104,-5.304878,2.682927,5.853659
1548455937504,0.244873,-0.943115,0.262451,-5.182927,2.134146,5.609756
1548455937519,0.246216,-0.944641,0.273132,-3.963415,1.158537,5.487805
1548455937534,0.242920,-0.954529,0.280823,-2.682927,0.426829,5.914634
1548455937535,0.236694,-0.962219,0.288147,-1.280488,0.304878,7.317073
1548455937550,0.234741,-0.967285,0.294434,-0.182927,0.914634,9.024390
1548455937557,0.237549,-0.964478,0.296143,0.060976,1.890244,10.487805
1548455937572,0.242737,-0.955017,0.296936,0.243902,3.170732,11.463415
1548455937587,0.243958,-0.953064,0.296082,1.097561,4.695122,12.378049
1548455937587,0.246094,-0.951660,0.297363,2.195122,5.975610,13.475610
1548455937594,0.245850,-0.953857,0.302856,3.536585,7.134147,14.878049
1548455937610,0.239929,-0.956909,0.305664,4.390244,7.987805,16.158537
1548455937624,0.231567,-0.961243,0.308105,4.512195,8.719512,17.195122
1548455937625,0.223755,-0.964600,0.312622,3.780488,9.573171,17.987804
1548455937640,0.216675,-0.959717,0.311096,2.439024,10.853659,19.024391
1548455937647,0.207214,-0.951294,0.306702,1.219512,12.500000,20.182928
1548455937662,0.200562,-0.944885,0.305359,0.792683,14.451220,21.463415
1548455937669,0.190674,-0.940491,0.305420,1.402439,16.585365,22.926830
1548455937677,0.186523,-0.937073,0.307739,3.170732,18.536585,24.146341
1548455937684,0.181519,-0.943787,0.308716,5.304878,20.487804,25.060976
1548455937707,0.178772,-0.956421,0.313171,7.926829,22.500000,25.792683
1548455937707,0.175659,-0.972107,0.313416,10.182927,24.085367,26.402439
1548455937714,0.167542,-0.986938,0.316772,10.975610,25.609756,27.195122
1548455937730,0.161133,-0.991821,0.319336,9.878049,27.317074,28.414635
1548455937744,0.155090,-0.989380,0.316650,7.804878,28.902439,30.000000
1548455937745,0.147827,-0.989441,0.318420,5.426829,30.792685,31.829269
1548455937767,0.141968,-0.983948,0.316040,3.963415,32.378048,33.658539
1548455937782,0.138000,-0.979919,0.308472,3.292683,33.780487,35.243904
1548455937782,0.135986,-0.977356,0.308899,3.658537,35.000000,36.463417
1548455937789,0.130432,-0.985718,0.309082,4.939024,36.097561,37.926830
1548455937797,0.120056,-0.995667,0.307678,6.097561,37.134148,39.817074
1548455937804,0.112183,-1.007141,0.306885,6.524390,38.353661,41.890244
1548455937819,0.106995,-1.018738,0.306396,6.341464,39.634148,43.780487
1548455937827,0.103882,-1.017883,0.302307,4.878049,40.609756,45.304878
1548455937834,0.096985,-1.005249,0.295471,2.560976,40.975609,46.951221
1548455937850,0.087585,-1.000549,0.293579,0.182927,40.853661,49.085365
1548455937857,0.068726,-0.995789,0.295288,-1.341463,40.304878,51.219513
1548455937864,0.045959,-0.985474,0.299133,-1.463415,39.390244,52.865856
1548455937889,0.030518,-0.982849,0.299744,-0.548781,39.451221,54.695122
1548455937897,0.019592,-0.979309,0.305115,1.280488,40.548782,56.463417
1548455937897,0.014648,-0.982361,0.308289,3.719512,42.012196,58.963417
1548455937910,0.010071,-0.985413,0.314819,5.975610,43.292683,61.585369
1548455937919,-0.002441,-0.992859,0.317810,7.256098,43.902439,63.719513
1548455937924,-0.014465,-0.999146,0.322021,7.134147,44.573174,65.548782
1548455937939,-0.026917,-1.006653,0.325195,6.463415,45.487804,68.170731
1548455937948,-0.052673,-1.004150,0.324097,4.817073,45.670734,70.853661
1548455937954,-0.073425,-0.989441,0.325684,3.353659,45.548782,72.804878
1548455937969,-0.091309,-0.980225,0.323547,2.439024,46.219513,73.963417
1548455937977,-0.100891,-0.978333,0.323975,2.500000,47.195122,74.451218
1548455937984,-0.107544,-0.976990,0.322327,3.780488,47.804878,75.060974
1548455937999,-0.109985,-0.976746,0.324707,5.182927,48.353661,75.487808
1548455938007,-0.124878,-0.977112,0.323181,6.036585,48.719513,75.792686
1548455938014,-0.138611,-0.968872,0.325073,5.975610,48.658539,75.914635
1548455938031,-0.156555,-0.964600,0.325806,5.914634,49.390244,76.951218
1548455938037,-0.184509,-0.956482,0.324341,6.036585,49.878052,78.170731
1548455938044,-0.214111,-0.943726,0.321655,6.768293,49.939026,78.902443
1548455938059,-0.228699,-0.933716,0.319275,8.048780,50.365856,77.987808
1548455938067,-0.249634,-0.924500,0.319397,9.268292,50.609756,75.853661
1548455938074,-0.249878,-0.921631,0.313782,10.670732,49.817074,72.865852
1548455938090,-0.253601,-0.917786,0.309631,11.585366,49.512196,70.121956
1548455938097,-0.266174,-0.916443,0.311829,11.097561,48.475613,66.890244
1548455938104,-0.284973,-0.911377,0.310120,10.487805,47.500000,64.695122
1548455938119,-0.293945,-0.894226,0.306396,10.304878,46.707317,63.109756
1548455938127,-0.299622,-0.886353,0.304993,9.878049,46.768295,61.463417
1548455938134,-0.318542,-0.873169,0.305969,10.060976,46.341465,58.780491
1548455938149,-0.334900,-0.873108,0.307495,10.914635,45.000000,55.426830
1548455938157,-0.335938,-0.875793,0.308472,11.341464,44.268295,51.707317
1548455938164,-0.349548,-0.875305,0.300659,11.524390,43.963417,48.475613
1548455938179,-0.359863,-0.879639,0.305176,10.975610,42.804878,46.158539
1548455938187,-0.379700,-0.878479,0.303162,9.878049,41.707317,44.512196
1548455938194,-0.394104,-0.868835,0.301453,9.695122,40.548782,42.378048
1548455938209,-0.398621,-0.877136,0.301514,10.000000,39.390244,39.329269
1548455938217,-0.402954,-0.875244,0.299133,10.304878,39.024391,37.012196
1548455938224,-0.408875,-0.886841,0.296936,10.609756,38.536587,35.121952
1548455938239,-0.413147,-0.891541,0.293518,10.548780,38.292683,33.780487
1548455938247,-0.424866,-0.890869,0.297546,10.243902,37.743904,32.134148
1548455938254,-0.433044,-0.881165,0.293030,9.939025,37.012196,30.609756
1548455938269,-0.438049,-0.877563,0.290833,10.000000,37.317074,29.878050
1548455938277,-0.441101,-0.878845,0.293762,9.878049,37.012196,28.963415
1548455938284,-0.459229,-0.874634,0.290710,10.000000,37.134148,28.841465
1548455938299,-0.460510,-0.875427,0.289795,10.975610,37.256100,28.475611
1548455938307,-0.463257,-0.869446,0.288574,12.134147,38.109756,27.804878
1548455938314,-0.470215,-0.863708,0.288208,12.865854,38.536587,26.829269
1548455938329,-0.494141,-0.877991,0.306580,13.109756,38.597561,25.426830
1548455938337,-0.506287,-0.878296,0.311523,14.146341,39.451221,24.390244
1548455938344,-0.481628,-0.872986,0.300293,15.000000,41.280487,21.890244
1548455938359,-0.483215,-0.877930,0.304077,13.414635,43.963417,22.439024
1548455938367,-0.502380,-0.868774,0.303223,12.621951,44.939026,25.548780
1548455938374,-0.511108,-0.855164,0.295532,13.597561,45.426830,26.951220
1548455938389,-0.523132,-0.845215,0.295227,14.085366,46.463417,27.378050
1548455938397,-0.514465,-0.831909,0.286865,15.670732,47.134148,28.597561
1548455938404,-0.527710,-0.839966,0.286377,18.048780,49.024391,29.451220
1548455938419,-0.549622,-0.848450,0.288452,20.000000,49.512196,29.085367
1548455938427,-0.535645,-0.846497,0.277832,21.585367,50.426830,28.170732
1548455938434,-0.527649,-0.843628,0.271423,21.890244,52.560978,27.804878
1548455938449,-0.554688,-0.847900,0.283813,21.463415,53.170734,29.085367
1548455938457,-0.556274,-0.838440,0.281433,22.926830,52.865856,29.390245
1548455938464,-0.537964,-0.819092,0.257385,24.695122,54.512196,27.926830
1548455938479,-0.558716,-0.818726,0.258789,24.878050,54.878052,27.926830
1548455938487,-0.582947,-0.819580,0.266235,25.182928,52.378052,28.841465
1548455938495,-0.592834,-0.819580,0.251038,26.890245,51.707317,28.109756
1548455938509,-0.582458,-0.807190,0.241211,27.621952,51.829269,25.914635
1548455938517,-0.600037,-0.805359,0.244446,26.707317,50.975613,25.000000
1548455938524,-0.597717,-0.790039,0.231262,26.707317,49.207317,23.963415
1548455938540,-0.591797,-0.783020,0.230225,27.560976,48.902439,22.560976
1548455938547,-0.595703,-0.783691,0.232971,27.804878,47.743904,20.670732
1548455938555,-0.594849,-0.777527,0.234436,27.743902,45.975613,18.292683
1548455938570,-0.606262,-0.779968,0.232971,26.768293,44.329269,16.219513
1548455938578,-0.598511,-0.769775,0.223328,25.792683,42.256100,13.841464
1548455938585,-0.597656,-0.759521,0.222961,24.390244,39.939026,12.378049
1548455938668,-0.598511,-0.755005,0.220337,23.048780,36.890244,10.853659
1548455938668,-0.616821,-0.769287,0.236328,21.890244,34.146343,9.085366
1548455938668,-0.618713,-0.777466,0.220093,20.670732,31.402439,6.402439
1548455938669,-0.623169,-0.768005,0.226257,18.597561,29.817074,3.292683
1548455938669,-0.624878,-0.759277,0.225464,14.878049,26.890245,1.341463
1548455938669,-0.621277,-0.759766,0.231506,12.682927,25.426830,-0.243902
1548455938669,-0.626404,-0.769897,0.227783,12.439025,24.573172,-1.402439
1548455938669,-0.598633,-0.780396,0.217834,13.353659,24.756098,-2.926829
1548455938694,-0.591187,-0.780090,0.205322,12.439025,25.243902,-4.146341
1548455938704,-0.595398,-0.776245,0.198975,10.182927,22.926830,-3.902439
1548455938704,-0.598450,-0.774658,0.204346,7.743903,19.329269,-2.865854
1548455938704,-0.609253,-0.779419,0.212402,6.036585,15.792684,-2.256098
1548455938719,-0.607483,-0.778442,0.199036,5.000000,13.048780,-3.109756
1548455938727,-0.612366,-0.783386,0.208313,3.597561,10.975610,-4.146341
1548455938735,-0.614929,-0.792725,0.216919,2.500000,8.597561,-3.658537
1548455938756,-0.607971,-0.793030,0.207642,2.682927,7.865854,-2.987805
1548455938759,-0.611267,-0.787903,0.215210,2.621951,7.012195,-1.524390
1548455938766,-0.614624,-0.776917,0.214783,1.829268,5.060976,-0.487805
1548455938779,-0.619568,-0.769226,0.213074,1.280488,3.414634,0.060976
1548455938787,-0.632080,-0.771973,0.223572,0.975610,1.158537,0.365854
1548455938794,-0.640137,-0.772217,0.231873,0.853659,-1.036585,0.060976
1548455938809,-0.626892,-0.769287,0.215637,1.463415,-1.768293,-1.097561
1548455938817,-0.627991,-0.780823,0.231567,1.402439,-1.890244,-1.829268
1548455938824,-0.622253,-0.785278,0.232056,1.280488,-2.926829,-1.768293
1548455938842,-0.613647,-0.777710,0.223999,1.890244,-2.560976,-1.524390
1548455938849,-0.617126,-0.773376,0.224426,1.097561,-3.109756,-0.060976
1548455938854,-0.618591,-0.774841,0.222656,0.731707,-4.390244,1.219512
1548455938870,-0.620728,-0.774658,0.217407,0.975610,-5.426829,1.707317
1548455938878,-0.622681,-0.773499,0.211792,0.853659,-6.829268,1.646341
1548455938892,-0.621521,-0.774902,0.213562,0.548781,-8.475610,0.853659
1548455938900,-0.627380,-0.780945,0.225281,0.243902,-10.304878,-0.365854
1548455938908,-0.623596,-0.784607,0.228638,-0.060976,-12.195122,-1.646341
1548455938914,-0.617493,-0.778870,0.226807,-0.792683,-13.414635,-3.109756
1548455938929,-0.613037,-0.777649,0.229675,-2.378049,-15.182927,-3.719512
1548455938942,-0.606018,-0.777222,0.223328,-2.926829,-16.890244,-4.268293
1548455938944,-0.601562,-0.775574,0.217224,-3.109756,-18.170732,-4.939024
1548455938959,-0.598755,-0.776672,0.217346,-3.780488,-20.182928,-5.548780
1548455938967,-0.596619,-0.775452,0.215759,-5.304878,-22.743902,-6.280488
1548455938974,-0.594482,-0.780151,0.216187,-7.073171,-25.853659,-6.890244
1548455938989,-0.600708,-0.790649,0.230042,-9.268292,-29.329269,-8.048780
1548455938998,-0.598206,-0.797302,0.228271,-11.951220,-33.719513,-10.487805
1548455939004,-0.583862,-0.793640,0.223633,-14.878049,-37.134148,-13.048780
1548455939019,-0.574036,-0.795898,0.223694,-17.560976,-39.512196,-13.353659
1548455939027,-0.569336,-0.794434,0.221313,-19.085367,-42.073174,-12.804878
1548455939035,-0.560425,-0.789490,0.219055,-19.329269,-44.390244,-12.560976
1548455939049,-0.554321,-0.787720,0.217651,-19.634148,-46.036587,-11.951220
1548455939057,-0.558655,-0.787964,0.226318,-20.426830,-48.170734,-11.890244
1548455939064,-0.571106,-0.789795,0.238281,-21.463415,-50.731709,-12.621951
1548455939079,-0.581482,-0.793762,0.248169,-22.073172,-54.085365,-15.121951
1548455939087,-0.579102,-0.799438,0.255188,-22.439024,-56.829269,-18.719513
1548455939094,-0.565369,-0.808289,0.258911,-22.987806,-58.109756,-21.585367
1548455939109,-0.549744,-0.813293,0.263245,-23.963415,-58.719513,-23.597561
1548455939117,-0.538147,-0.809082,0.268127,-24.817074,-59.024391,-23.963415
1548455939125,-0.533081,-0.803589,0.267151,-24.695122,-58.841465,-23.231709
1548455939140,-0.529785,-0.796204,0.275574,-23.719513,-58.536587,-22.865854
1548455939148,-0.525940,-0.800049,0.280579,-22.012196,-59.573174,-24.634148
1548455939160,-0.519348,-0.804993,0.292725,-20.548780,-61.524391,-28.109756
1548455939169,-0.511230,-0.812561,0.296936,-19.390244,-62.804878,-30.060976
1548455939177,-0.508911,-0.827698,0.304626,-19.268293,-63.109756,-31.707317
1548455939185,-0.496826,-0.842163,0.307129,-18.780489,-64.512199,-35.243904
1548455939199,-0.481873,-0.848877,0.316711,-18.536585,-66.036591,-39.817074
1548455939207,-0.471619,-0.849731,0.324707,-19.451220,-66.097565,-40.609756
1548455939215,-0.462952,-0.850769,0.320251,-20.487804,-65.182930,-38.902439
1548455939229,-0.454712,-0.848083,0.309875,-20.121952,-63.597561,-38.719513
1548455939237,-0.450806,-0.844116,0.304443,-18.719513,-63.109756,-39.695122
1548455939245,-0.446838,-0.843079,0.304932,-17.256098,-63.536587,-40.731709
1548455939259,-0.439758,-0.852295,0.310059,-15.487805,-64.329269,-42.682926
1548455939282,-0.431335,-0.851685,0.310364,-14.207317,-66.036591,-45.914635
1548455939282,-0.415344,-0.871338,0.301880,-13.963415,-68.719513,-51.524391
1548455939289,-0.395447,-0.881348,0.309448,-13.658537,-70.304878,-57.378052
1548455939297,-0.360840,-0.885559,0.318909,-11.707317,-71.890244,-60.487804
1548455939305,-0.339050,-0.900696,0.328064,-11.463415,-72.378052,-62.743904
1548455939319,-0.324707,-0.909363,0.324646,-13.292684,-73.109756,-63.841465
1548455939327,-0.316772,-0.897766,0.319946,-15.060976,-73.536591,-64.329269
1548455939342,-0.314026,-0.884460,0.321167,-16.036585,-74.024391,-65.365852
1548455939349,-0.307983,-0.876831,0.325806,-15.609756,-74.878052,-67.439026
1548455939357,-0.284485,-0.877563,0.326477,-12.987805,-75.792686,-70.304878
1548455939364,-0.254700,-0.889282,0.328186,-8.597561,-76.646347,-74.024391
1548455939379,-0.227051,-0.912109,0.342651,-4.451220,-78.292686,-78.048782
1548455939387,-0.196838,-0.948975,0.358093,-2.317073,-80.060974,-81.036591
1548455939395,-0.177185,-0.978394,0.367676,-2.743902,-80.426834,-80.853661
1548455939409,-0.167725,-0.988220,0.376648,-4.939024,-79.085365,-77.439026
1548455939417,-0.174988,-0.978149,0.383240,-8.048780,-77.195122,-72.073174
1548455939424,-0.180603,-0.954712,0.388000,-9.939025,-74.817078,-66.463417
1548455939439,-0.193420,-0.938538,0.380188,-9.451220,-72.195122,-62.378052
1548455939447,-0.197388,-0.934387,0.369263,-6.524390,-70.243904,-61.402439
1548455939455,-0.182129,-0.949280,0.370728,-1.951220,-68.475609,-62.987808
1548455939470,-0.138672,-0.968689,0.375854,2.439024,-66.463417,-65.914635
1548455939477,-0.084106,-0.989075,0.382935,4.817073,-64.329269,-68.902443
1548455939485,-0.041748,-1.013062,0.378906,4.085366,-62.560978,-69.939026
1548455939499,-0.029419,-1.030823,0.372192,0.304878,-61.585369,-67.012199
1548455939507,-0.046997,-1.017883,0.362061,-4.573171,-61.524391,-61.463417
1548455939514,-0.070374,-0.973877,0.353638,-8.231708,-61.707317,-56.890244
1548455939529,-0.072632,-0.928833,0.352051,-8.902439,-61.341465,-55.609756
1548455939537,-0.047424,-0.902466,0.343201,-5.792683,-59.817074,-57.804878
1548455939544,0.000549,-0.918457,0.348083,-0.243902,-57.743904,-61.951221
1548455939567,0.050293,-0.960632,0.367859,4.207317,-56.097561,-66.341461
1548455939568,0.076111,-0.993408,0.388428,5.731708,-54.512196,-67.439026
1548455939582,0.081360,-1.011292,0.403076,3.170732,-52.560978,-63.414635
1548455939589,0.064026,-1.005493,0.403259,-2.134146,-51.097561,-55.853661
1548455939604,0.033203,-0.972290,0.400208,-5.914634,-50.670734,-48.841465
1548455939619,0.013855,-0.931335,0.394592,-5.304878,-50.365856,-45.243904
1548455939620,0.023804,-0.907654,0.391296,-0.853659,-49.207317,-45.182926
1548455939627,0.053650,-0.933350,0.396484,4.634146,-46.646343,-46.890244
1548455939649,0.088745,-0.991516,0.399536,8.475610,-42.743904,-47.621952
1548455939650,0.109314,-1.030640,0.404114,9.024390,-38.475609,-44.573174
1548455939657,0.110596,-1.033508,0.399170,6.585366,-35.060978,-38.719513
1548455939672,0.106384,-1.003357,0.390198,2.804878,-32.804878,-32.926830
1548455939687,0.098633,-0.966248,0.375061,0.731707,-31.646341,-29.268293
1548455939687,0.100830,-0.955566,0.362366,1.524390,-30.731709,-28.170732
1548455939694,0.117188,-0.972229,0.354980,4.939024,-29.146341,-29.024391
1548455939717,0.134705,-1.007019,0.360229,8.719512,-27.317074,-29.634148
1548455939724,0.143860,-1.048218,0.379883,9.512196,-25.365854,-27.317074
1548455939725,0.146973,-1.070312,0.396545,6.585366,-22.256098,-21.158537
1548455939739,0.145447,-1.064514,0.398376,1.707317,-18.048780,-12.560976
1548455939754,0.132690,-1.034851,0.391968,-2.865854,-13.536586,-4.451220
1548455939755,0.117798,-0.989014,0.375793,-4.390244,-10.304878,2.134146
1548455939792,0.107910,-0.947144,0.352417,-2.195122,-8.170732,6.829268
1548455939792,0.106445,-0.919373,0.337341,2.926829,-6.524390,9.512196
1548455939793,0.118530,-0.909546,0.330994,9.329268,-4.878049,10.182927
1548455939844,0.137390,-0.916260,0.332336,15.487805,-3.048780,9.146341
1548455939845,0.154846,-0.921204,0.337219,19.634148,-1.341463,7.012195
1548455939867,0.169800,-0.924194,0.342285,20.243902,-0.426829,4.390244
1548455939889,0.176941,-0.920898,0.346008,17.560976,-0.731707,1.707317
1548455939890,0.179871,-0.912537,0.349243,12.743903,-2.560976,-1.097561
1548455939890,0.176331,-0.906311,0.352966,6.829268,-5.853659,-4.573171
1548455939897,0.165955,-0.899170,0.356934,1.097561,-10.000000,-8.597561
1548455939897,0.157349,-0.891663,0.364075,-2.500000,-13.902439,-12.195122
1548455939898,0.157104,-0.891663,0.373779,-4.512195,-16.524391,-15.182927
1548455939927,0.163757,-0.898804,0.373230,-4.939024,-17.560976,-17.256098
1548455939927,0.171448,-0.919189,0.371704,-4.390244,-17.317074,-18.231709
1548455939928,0.174255,-0.941223,0.375671,-3.658537,-16.646341,-18.231709
1548455939964,0.173157,-0.956421,0.379395,-3.048780,-16.463415,-16.890244
1548455939965,0.173950,-0.963867,0.381226,-2.804878,-16.219513,-14.573171
1548455939965,0.169250,-0.968201,0.378296,-2.682927,-15.975610,-11.829268
1548455939972,0.167236,-0.967590,0.376160,-2.134146,-14.878049,-9.207317
1548455939972,0.170166,-0.964661,0.371094,-0.914634,-13.170732,-6.829268
1548455939973,0.171570,-0.959351,0.364258,1.402439,-10.914635,-4.390244
1548455939994,0.171997,-0.951172,0.361877,4.146341,-8.597561,-2.012195
1548455939995,0.171326,-0.946411,0.357971,6.463415,-6.585366,-0.060976
1548455939995,0.175415,-0.942993,0.355408,8.231708,-5.060976,0.975610
1548455940032,0.181091,-0.940430,0.353821,9.024390,-4.085366,1.097561
1548455940032,0.183472,-0.936890,0.354614,8.414635,-3.536585,0.487805
1548455940039,0.184326,-0.934509,0.358582,6.646342,-3.475610,-0.609756
1548455940062,0.187195,-0.928467,0.364197,4.085366,-3.658537,-1.585366
1548455940062,0.186401,-0.924805,0.369568,1.280488,-3.841464,-2.317073
1548455940063,0.186218,-0.918396,0.376770,-0.975610,-4.146341,-2.926829
1548455940069,0.188293,-0.911987,0.378906,-2.743902,-4.695122,-3.109756
1548455940099,0.186035,-0.909607,0.378479,-3.780488,-4.878049,-3.170732
1548455940100,0.182129,-0.911133,0.373535,-3.902439,-4.695122,-3.109756
1548455940101,0.182617,-0.913086,0.371826,-3.353659,-4.451220,-2.987805
1548455940122,0.184753,-0.913269,0.364929,-2.500000,-3.841464,-3.048780
1548455940152,0.190125,-0.918518,0.365479,-1.707317,-3.170732,-3.109756
1548455940167,0.195435,-0.925781,0.365662,-1.036585,-2.560976,-3.109756
1548455940167,0.198486,-0.927917,0.360474,-0.731707,-2.195122,-3.231707
1548455940168,0.195740,-0.929565,0.354553,-0.548781,-2.256098,-3.109756
1548455940174,0.191833,-0.934937,0.352112,-0.365854,-2.682927,-2.926829
1548455940175,0.187927,-0.939270,0.352234,-0.548781,-2.987805,-2.560976
1548455940176,0.186035,-0.941833,0.351562,-0.731707,-2.926829,-2.073171
1548455940190,0.185547,-0.940796,0.356506,-0.975610,-2.317073,-1.463415
1548455940204,0.190430,-0.940613,0.358276,-1.219512,-1.158537,-0.731707
1548455940205,0.195251,-0.941040,0.357300,-1.158537,0.000000,0.121951
1548455940227,0.198059,-0.941162,0.360840,-0.792683,1.219512,1.219512
1548455940234,0.201355,-0.940918,0.365051,-0.060976,1.829268,2.073171
1548455940235,0.201965,-0.931091,0.365845,0.426829,1.768293,2.317073
1548455940257,0.205750,-0.917053,0.362061,0.975610,1.829268,2.621951
1548455940257,0.200745,-0.912292,0.359436,2.012195,2.317073,3.292683
1548455940272,0.189026,-0.917236,0.365784,3.719512,3.414634,4.329268
1548455940280,0.179138,-0.934631,0.381470,5.731708,5.426829,5.914634
1548455940309,0.171570,-0.949158,0.392517,6.951220,7.256098,8.170732
1548455940310,0.168213,-0.943420,0.392944,7.134147,8.475610,10.304878
1548455940310,0.170837,-0.928101,0.389648,7.073171,9.512196,11.280488
1548455940317,0.175964,-0.925476,0.384094,6.524390,10.792684,10.975610
1548455940347,0.179871,-0.920593,0.376038,6.219512,11.524390,10.060976
1548455940347,0.178955,-0.917786,0.370483,7.256098,11.890244,9.695122
1548455940348,0.173767,-0.918762,0.378845,8.353659,12.378049,9.939025
1548455940354,0.162537,-0.927246,0.394836,8.597561,12.926829,10.731708
1548455940377,0.149963,-0.939758,0.403442,7.865854,13.780488,12.195122
1548455940384,0.139709,-0.945129,0.403687,6.585366,14.573171,13.414635
1548455940385,0.135681,-0.944275,0.398804,5.487805,15.731708,14.085366
1548455940415,0.138428,-0.948181,0.390503,4.207317,17.317074,14.451220
1548455940415,0.143738,-0.952332,0.384949,2.743902,18.353659,14.329268
1548455940422,0.148010,-0.950806,0.375610,1.585366,18.536585,13.902439
1548455940444,0.148987,-0.949951,0.372742,0.365854,18.414635,13.658537
1548455940445,0.145142,-0.954712,0.376953,-1.280488,18.048780,13.719513
1548455940446,0.134583,-0.948792,0.380920,-2.926829,17.439024,14.085366
1548455940460,0.122253,-0.940735,0.380371,-3.536585,16.951220,14.939025
1548455940482,0.114685,-0.940552,0.379944,-2.439024,17.500000,16.280489
1548455940482,0.114441,-0.948730,0.380798,-0.243902,18.719513,18.231709
1548455940490,0.111328,-0.962708,0.384094,2.378049,19.939024,20.792683
1548455940504,0.104248,-0.978271,0.389099,3.719512,20.609756,23.658537
1548455940505,0.098389,-0.987915,0.389587,3.536585,21.219513,26.036587
1548455940520,0.093994,-0.983093,0.388550,2.987805,22.073172,28.048780
1548455940527,0.089722,-0.979004,0.385864,2.134146,22.926830,29.634148
1548455940572,0.090088,-0.973694,0.387390,0.609756,23.780489,30.853659
1548455940572,0.088623,-0.970703,0.387329,-0.731707,24.451220,31.951220
1548455940587,0.085632,-0.968506,0.390503,-1.524390,25.060976,33.292683
1548455940587,0.072388,-0.967712,0.392029,-1.280488,25.731709,35.548782
1548455940588,0.062073,-0.967773,0.391541,-0.304878,26.219513,38.292683
1548455940594,0.050537,-0.967712,0.389893,0.792683,27.073172,41.097561
1548455940595,0.042236,-0.963989,0.392578,1.890244,28.414635,43.597561
1548455940609,0.036377,-0.963989,0.398376,2.743902,30.000000,45.914635
1548455940617,0.031067,-0.970154,0.400085,3.170732,31.585367,48.109756
1548455940625,0.023254,-0.973755,0.400330,3.353659,32.743904,50.365856
1548455940639,0.010803,-0.968994,0.404053,3.109756,33.475609,52.560978
1548455940647,-0.002991,-0.963501,0.405884,2.560976,34.085365,54.573174
1548455940655,-0.014282,-0.962158,0.408875,2.621951,34.756100,56.585365
1548455940669,-0.028564,-0.966919,0.414917,3.353659,35.365856,58.658539
1548455940677,-0.046143,-0.971558,0.413025,4.146341,36.036587,60.487804
1548455940684,-0.060425,-0.972473,0.406921,4.573171,37.195122,62.621952
1548455940699,-0.071594,-0.974182,0.402466,5.000000,38.841465,65.060974
1548455940707,-0.082397,-0.977173,0.402893,5.426829,40.365856,67.012199
1548455940714,-0.088501,-0.962891,0.399414,5.792683,41.524391,68.292686
1548455940729,-0.099121,-0.954468,0.400757,6.280488,42.682926,69.085365
1548455940737,-0.112122,-0.956482,0.408325,7.073171,43.658539,70.060974
1548455940744,-0.130859,-0.954834,0.411499,7.926829,44.268295,71.890244
1548455940759,-0.153442,-0.954041,0.402771,8.536586,44.512196,73.902443
1548455940767,-0.171204,-0.942810,0.391235,8.414635,44.817074,75.060974
1548455940774,-0.181702,-0.929077,0.382629,7.804878,45.548782,75.000000
1548455940789,-0.190002,-0.924744,0.381226,6.829268,46.219513,73.963417
1548455940797,-0.197205,-0.920776,0.390015,6.097561,46.402439,72.621956
1548455940804,-0.210999,-0.921692,0.388367,6.097561,46.219513,71.646339
1548455940819,-0.230774,-0.917603,0.391907,6.585366,46.524391,71.219513
1548455940827,-0.249329,-0.903625,0.396484,6.890244,46.585365,71.036591
1548455940834,-0.266479,-0.889465,0.395752,6.585366,47.012196,70.609756
1548455940849,-0.282288,-0.884338,0.394226,7.195122,47.378052,70.365852
1548455940857,-0.302002,-0.883484,0.385986,8.536586,46.890244,70.000000
1548455940864,-0.315674,-0.884094,0.378052,10.000000,46.524391,68.963417
1548455940879,-0.322571,-0.881348,0.381042,10.853659,45.914635,67.012199
1548455940887,-0.331421,-0.882812,0.384094,10.853659,45.000000,64.695122
1548455940894,-0.340332,-0.885986,0.386658,10.060976,44.146343,62.926830
1548455940909,-0.354858,-0.879211,0.386780,8.963415,43.536587,61.768295
1548455940917,-0.366455,-0.874451,0.388306,7.987805,43.658539,61.036587
1548455940924,-0.386353,-0.866699,0.390808,7.195122,44.146343,60.914635
1548455940939,-0.411987,-0.857239,0.391235,7.378049,44.268295,61.341465
1548455940947,-0.430420,-0.845703,0.380432,8.780488,44.817074,61.890244
1548455940954,-0.442505,-0.846008,0.374207,10.731708,45.914635,61.402439
1548455940969,-0.447998,-0.846313,0.369873,12.804878,46.524391,60.487804
1548455940977,-0.453857,-0.847046,0.364746,14.085366,46.646343,59.451221
1548455940984,-0.459229,-0.845459,0.357361,14.390244,46.402439,58.048782
1548455940999,-0.470215,-0.843323,0.355530,14.268293,45.914635,56.402439
1548455941007,-0.475891,-0.837402,0.357239,13.780488,45.121952,54.268295
1548455941014,-0.485779,-0.834778,0.359070,13.292684,44.390244,51.707317
1548455941029,-0.493713,-0.827393,0.362671,12.743903,44.085365,50.182926
1548455941037,-0.500183,-0.816772,0.358826,12.195122,44.268295,49.268295
1548455941044,-0.514832,-0.801270,0.357361,11.463415,43.841465,48.902439
1548455941060,-0.524719,-0.790955,0.346497,11.768293,43.963417,49.085365
1548455941067,-0.533447,-0.783630,0.340149,12.317074,43.902439,47.987804
1548455941074,-0.542847,-0.781311,0.339417,12.439025,43.109756,47.073174
1548455941090,-0.557129,-0.786621,0.337158,12.682927,42.256100,46.097561
1548455941097,-0.561096,-0.792542,0.335876,12.804878,41.219513,42.926830
1548455941104,-0.571228,-0.778076,0.340149,11.341464,40.060978,40.487804
1548455941119,-0.571655,-0.766357,0.336243,10.243902,39.695122,40.000000
1548455941127,-0.572876,-0.751038,0.332458,9.756098,40.060978,38.475609
1548455941134,-0.585510,-0.737366,0.331360,10.548780,40.853661,37.743904
1548455941149,-0.596985,-0.728638,0.326538,12.743903,40.304878,35.365856
1548455941157,-0.606384,-0.716614,0.328613,15.121951,39.817074,33.597561
1548455941164,-0.623657,-0.724731,0.328308,17.195122,40.121952,32.743904
1548455941179,-0.629822,-0.729309,0.315613,19.024391,40.548782,30.243902
1548455941187,-0.631531,-0.725220,0.323303,20.121952,40.670734,27.682928
1548455941194,-0.645752,-0.734680,0.324341,19.695122,40.365856,25.975611
1548455941209,-0.645081,-0.724060,0.310486,19.024391,40.000000,22.682928
1548455941217,-0.641663,-0.705322,0.315552,18.658537,40.060978,20.670732
1548455941224,-0.645020,-0.705139,0.313965,18.963415,40.060978,19.634148
1548455941239,-0.635803,-0.697754,0.302979,21.036587,40.609756,17.743902
1548455941247,-0.634399,-0.690918,0.299255,23.292683,40.792683,16.951220
1548455941254,-0.650574,-0.700623,0.300659,24.390244,39.573174,15.426829
1548455941269,-0.657776,-0.710754,0.291748,24.695122,37.560978,12.621951
1548455941277,-0.651367,-0.705872,0.277039,23.536587,35.548782,9.695122
1548455941284,-0.645020,-0.704346,0.274841,20.609756,32.926830,8.048780
1548455941299,-0.647217,-0.710144,0.265503,17.439024,29.695122,7.804878
1548455941307,-0.642273,-0.707092,0.254822,15.182927,26.890245,7.256098
1548455941314,-0.638733,-0.691895,0.240967,12.926829,23.048780,5.609756
1548455941329,-0.652344,-0.690552,0.244202,10.060976,18.109756,3.353659
1548455941337,-0.665588,-0.696960,0.257446,7.378049,12.987805,0.975610
1548455941344,-0.668640,-0.706970,0.261414,6.463415,9.451220,-1.585366
1548455941359,-0.668945,-0.711243,0.264038,6.524390,7.865854,-3.841464
1548455941367,-0.672058,-0.720032,0.279602,5.975610,6.463415,-4.878049
1548455941374,-0.676636,-0.725281,0.290466,5.365854,5.304878,-5.670732
1548455941390,-0.678711,-0.720703,0.300232,5.304878,4.878049,-5.609756
1548455941397,-0.657532,-0.715820,0.295044,5.182927,4.573171,-5.000000
1548455941404,-0.649597,-0.715454,0.292664,5.121951,4.939024,-4.817073
1548455941420,-0.677063,-0.730408,0.312012,4.756098,2.926829,-3.841464
1548455941427,-0.674438,-0.735901,0.302185,4.390244,0.243902,-3.475610
1548455941434,-0.672241,-0.742126,0.303467,3.902439,-0.487805,-3.109756
1548455941449,-0.683594,-0.747559,0.308960,2.195122,-1.707317,-2.378049
1548455941457,-0.676331,-0.744263,0.302246,1.463415,-2.500000,-1.951220
1548455941464,-0.682434,-0.752014,0.308655,1.219512,-2.012195,-0.731707
1548455941479,-0.678711,-0.750488,0.307007,1.219512,-2.012195,0.792683
1548455941487,-0.677856,-0.743652,0.306396,1.646341,-1.463415,2.378049
1548455941494,-0.680542,-0.738220,0.298157,1.463415,-1.402439,3.780488
1548455941509,-0.681091,-0.733093,0.296082,1.341463,-1.280488,4.573171
1548455941517,-0.686768,-0.731445,0.295532,0.853659,-1.341463,5.182927
1548455941525,-0.685242,-0.730835,0.294312,0.487805,-1.707317,5.304878
1548455941539,-0.678467,-0.730957,0.294800,0.121951,-1.402439,4.939024
1548455941547,-0.678833,-0.725342,0.301758,-0.609756,-1.158537,4.756098
1548455941554,-0.671570,-0.714844,0.302551,-1.158537,-1.158537,4.634146
1548455941570,-0.670593,-0.714417,0.307922,-1.036585,-0.853659,4.573171
1548455941577,-0.672607,-0.712585,0.308472,-0.426829,-0.487805,4.817073
1548455941584,-0.677002,-0.707825,0.305298,0.304878,-0.243902,4.817073
1548455941599,-0.683716,-0.707825,0.305908,0.060976,-0.548781,4.573171
1548455941607,-0.681213,-0.706543,0.301331,-0.304878,-0.853659,4.207317
1548455941615,-0.684387,-0.709473,0.300354,-0.121951,-0.670732,4.085366
1548455941629,-0.683289,-0.715698,0.300110,-0.121951,-0.975610,3.292683
1548455941637,-0.679016,-0.716370,0.300049,-0.182927,-1.219512,2.195122
1548455941644,-0.682068,-0.721680,0.303101,-0.182927,-1.219512,1.402439
1548455941660,-0.682495,-0.719055,0.306519,-0.243902,-1.463415,0.670732
1548455941667,-0.684692,-0.717773,0.302307,-0.121951,-1.524390,0.548781
1548455941674,-0.681641,-0.715515,0.297241,0.548781,-1.280488,0.365854
1548455941690,-0.689758,-0.718445,0.302246,0.792683,-1.280488,0.975610
1548455941697,-0.686707,-0.717102,0.295105,0.792683,-1.646341,1.402439
1548455941705,-0.687012,-0.720337,0.294128,0.670732,-1.585366,1.768293
1548455941719,-0.682434,-0.719788,0.293030,0.060976,-2.134146,1.951220
1548455941727,-0.682800,-0.717712,0.301453,-0.609756,-2.500000,2.012195
1548455941734,-0.680908,-0.716492,0.304016,-0.975610,-3.231707,1.768293
1548455941749,-0.675720,-0.717896,0.299072,-0.670732,-3.170732,1.341463
1548455941757,-0.679749,-0.718018,0.302856,-0.426829,-3.170732,1.219512
1548455941764,-0.684814,-0.715576,0.305298,-0.487805,-3.597561,1.280488
1548455941780,-0.685669,-0.712280,0.304626,-0.426829,-3.780488,1.829268
1548455941787,-0.689087,-0.717346,0.306335,-0.365854,-3.841464,2.439024
1548455941794,-0.687927,-0.720703,0.303833,-0.670732,-3.902439,2.743902
1548455941809,-0.684448,-0.716064,0.299438,-1.158537,-4.024390,3.048780
1548455941817,-0.683594,-0.715515,0.304443,-1.585366,-4.024390,3.170732
1548455941824,-0.682251,-0.716736,0.302734,-1.707317,-4.268293,3.292683
1548455941839,-0.680542,-0.714966,0.303162,-1.402439,-4.329268,2.987805
1548455941847,-0.685913,-0.718689,0.309143,-1.341463,-4.451220,2.865854
1548455941854,-0.683960,-0.717712,0.306641,-1.463415,-4.573171,2.621951
1548455941877,-0.682373,-0.716492,0.303284,-1.280488,-4.268293,2.560976
1548455941877,-0.690491,-0.714539,0.307434,-1.280488,-4.268293,2.865854
1548455941884,-0.687561,-0.713196,0.304199,-1.219512,-4.268293,2.926829
1548455941899,-0.678345,-0.710510,0.299927,-1.036585,-3.719512,2.621951
1548455941907,-0.681580,-0.710510,0.303589,-1.158537,-3.353659,2.439024
1548455941914,-0.685913,-0.709900,0.310242,-1.341463,-3.780488,2.439024
1548455941929,-0.682129,-0.708130,0.309509,-1.280488,-3.780488,2.439024
1548455941937,-0.682861,-0.703857,0.312927,-1.768293,-3.658537,2.560976
1548455941944,-0.680969,-0.703552,0.313110,-2.256098,-3.963415,2.500000
1548455941959,-0.678955,-0.707092,0.317749,-2.195122,-4.146341,2.317073
1548455941967,-0.685120,-0.708435,0.321350,-2.256098,-4.695122,2.134146
1548455941974,-0.682617,-0.706482,0.316101,-2.134146,-4.878049,1.463415
1548455941989,-0.683716,-0.710999,0.317139,-2.378049,-4.878049,1.036585
1548455941997,-0.685181,-0.711487,0.314331,-2.256098,-5.182927,0.731707
1548455942004,-0.686157,-0.709900,0.310547,-2.073171,-5.426829,0.609756
1548455942019,-0.688416,-0.710449,0.309631,-2.256098,-5.792683,0.426829
1548455942027,-0.684937,-0.709534,0.303162,-2.743902,-6.280488,0.060976
1548455942034,-0.680664,-0.713501,0.303284,-3.353659,-6.829268,-0.243902
1548455942049,-0.674988,-0.716980,0.300720,-3.597561,-7.621952,-0.548781
1548455942057,-0.667480,-0.714111,0.301086,-4.024390,-8.475610,-1.036585
1548455942064,-0.664551,-0.708069,0.299744,-4.756098,-9.512196,-1.646341
1548455942079,-0.662720,-0.703552,0.298523,-5.609756,-10.731708,-2.195122
1548455942087,-0.657898,-0.703491,0.296936,-6.158537,-11.890244,-2.804878
1548455942094,-0.654785,-0.705627,0.302979,-6.707317,-12.987805,-3.536585
1548455942109,-0.653931,-0.706787,0.303589,-7.560976,-14.878049,-4.695122
1548455942117,-0.651184,-0.704773,0.305542,-8.536586,-17.073172,-6.036585
1548455942124,-0.645630,-0.703369,0.302917,-10.243902,-19.451220,-7.073171
1548455942139,-0.638428,-0.698914,0.301453,-12.256098,-22.134148,-8.292683
1548455942147,-0.635315,-0.693726,0.297913,-14.085366,-25.060976,-9.573171
1548455942154,-0.634399,-0.692566,0.297241,-15.731708,-27.865854,-10.914635
1548455942170,-0.638123,-0.693726,0.299683,-17.012196,-30.853659,-12.804878
1548455942184,-0.633301,-0.707336,0.298889,-17.743902,-34.146343,-15.975610
1548455942185,-0.627380,-0.715515,0.309387,-18.475611,-37.195122,-19.390244
1548455942199,-0.626709,-0.725708,0.313904,-19.512196,-39.878048,-21.829269
1548455942207,-0.619263,-0.734253,0.312622,-19.878050,-42.317074,-24.756098
1548455942214,-0.604370,-0.735779,0.311523,-20.487804,-43.841465,-26.585367
1548455942229,-0.598328,-0.732483,0.310364,-21.463415,-44.634148,-26.463415
1548455942237,-0.595642,-0.729797,0.313171,-21.890244,-45.731709,-26.097561
1548455942245,-0.595398,-0.734436,0.319885,-21.646341,-47.073174,-26.036587
1548455942259,-0.598572,-0.744568,0.334595,-21.158537,-48.780487,-26.890245
1548455942267,-0.592407,-0.761902,0.335754,-20.121952,-51.036587,-29.085367
1548455942274,-0.578979,-0.783203,0.347839,-19.512196,-53.048782,-32.317074
1548455942290,-0.564880,-0.791382,0.359863,-20.121952,-53.719513,-32.439026
1548455942297,-0.555908,-0.792175,0.364441,-21.219513,-53.353661,-30.304878
1548455942304,-0.550354,-0.786926,0.368164,-22.012196,-53.048782,-28.719513
1548455942319,-0.542969,-0.778320,0.361694,-21.829269,-52.500000,-26.890245
1548455942327,-0.538513,-0.772583,0.360535,-20.426830,-52.195122,-25.609756
1548455942334,-0.536011,-0.782227,0.360962,-18.353659,-52.804878,-25.548780
1548455942350,-0.535950,-0.798584,0.362549,-16.402439,-54.085365,-26.158537
1548455942357,-0.532410,-0.814453,0.359070,-15.000000,-56.036587,-27.926830
1548455942365,-0.523071,-0.830505,0.364624,-15.182927,-58.658539,-31.585367
1548455942380,-0.510437,-0.841614,0.378723,-17.500000,-61.036587,-34.451221
1548455942387,-0.496277,-0.836792,0.375977,-20.792683,-60.731709,-33.902439
1548455942394,-0.481506,-0.827026,0.371826,-23.475611,-59.268295,-33.231709
1548455942410,-0.473022,-0.814270,0.374146,-24.390244,-58.719513,-34.207317
1548455942417,-0.470581,-0.806519,0.376099,-23.963415,-59.512196,-34.817074
1548455942425,-0.464600,-0.808838,0.376282,-22.439024,-60.792683,-35.243904
1548455942439,-0.455750,-0.818665,0.373840,-20.426830,-62.073174,-36.890244
1548455942447,-0.443237,-0.829590,0.367432,-19.024391,-64.085365,-39.939026
1548455942454,-0.425476,-0.846985,0.379028,-18.780489,-67.012199,-44.634148
1548455942469,-0.404663,-0.850525,0.384338,-18.414635,-68.963417,-47.500000
1548455942477,-0.388611,-0.859741,0.392761,-18.780489,-69.939026,-49.085365
1548455942484,-0.371094,-0.864136,0.403137,-20.426830,-70.975609,-51.158539
1548455942499,-0.358398,-0.858887,0.408569,-21.524391,-71.036591,-52.012196
1548455942507,-0.354370,-0.853699,0.412476,-21.585367,-70.731712,-51.951221
1548455942514,-0.349792,-0.852478,0.413086,-20.792683,-70.609756,-51.646343
1548455942529,-0.340332,-0.852112,0.408752,-18.719513,-70.487808,-51.707317
1548455942537,-0.328003,-0.862061,0.408997,-15.792684,-70.731712,-52.621952
1548455942544,-0.311829,-0.874695,0.406555,-13.109756,-71.890244,-54.512196
1548455942559,-0.291077,-0.889099,0.402283,-11.097561,-73.414635,-56.341465
1548455942567,-0.270874,-0.905762,0.406189,-10.670732,-74.817078,-58.048782
1548455942574,-0.245300,-0.918030,0.408020,-11.463415,-76.280487,-59.451221
1548455942589,-0.226685,-0.914795,0.412659,-12.743903,-77.378052,-60.000000
1548455942597,-0.219360,-0.913086,0.420471,-13.597561,-78.048782,-59.146343
1548455942605,-0.219971,-0.912415,0.425293,-14.512196,-78.109756,-57.317074
1548455942619,-0.228027,-0.910950,0.425781,-14.573171,-77.743904,-55.487804
1548455942627,-0.230713,-0.909851,0.423279,-13.353659,-76.402443,-54.085365
1548455942634,-0.213257,-0.911255,0.425659,-11.158537,-74.024391,-53.414635
1548455942649,-0.181641,-0.918274,0.426147,-8.353659,-71.585365,-53.719513
1548455942657,-0.144348,-0.931946,0.430969,-5.853659,-69.695122,-54.329269
1548455942664,-0.122925,-0.951477,0.446289,-4.451220,-68.719513,-54.451221
1548455942679,-0.116089,-0.967224,0.453308,-4.634146,-68.414635,-52.987804
1548455942687,-0.124817,-0.964783,0.452148,-5.670732,-68.109756,-48.719513
1548455942694,-0.130737,-0.950195,0.442322,-6.280488,-67.500000,-43.658539
1548455942709,-0.130981,-0.936279,0.434326,-5.609756,-66.463417,-40.670734
1548455942717,-0.119507,-0.935913,0.429382,-3.414634,-65.548782,-40.243904
1548455942724,-0.098694,-0.946777,0.420471,-0.548781,-64.878052,-40.914635
1548455942739,-0.064697,-0.957153,0.415222,1.707317,-64.451218,-41.524391
1548455942747,-0.032043,-0.967590,0.425964,2.500000,-63.414635,-41.585365
1548455942754,-0.015869,-0.977234,0.447327,0.975610,-62.682930,-40.365856
1548455942769,-0.026550,-0.978516,0.459412,-1.768293,-62.073174,-36.768295
1548455942777,-0.047852,-0.965332,0.453796,-3.597561,-61.219513,-31.585367
1548455942784,-0.063232,-0.946899,0.443787,-4.024390,-59.878052,-27.195122
1548455942800,-0.060242,-0.930603,0.433228,-2.804878,-58.658539,-25.609756
1548455942807,-0.040100,-0.938354,0.423279,0.060976,-58.048782,-26.036587
1548455942814,-0.020142,-0.988037,0.425049,2.560976,-57.439026,-27.865854
1548455942837,-0.037476,-1.028381,0.458679,2.621951,-55.914635,-30.365854
1548455942837,-0.082153,-1.031250,0.535339,-1.585366,-52.195122,-32.378048
1548455942844,-0.097412,-1.024658,0.594849,-12.804878,-42.621952,-31.707317
1548455942874,-0.040344,-0.997437,0.559570,-27.621952,-26.158537,-25.975611
1548455942875,0.057800,-0.901550,0.469421,-36.341465,-8.902439,-17.865854
1548455942876,0.139160,-0.806458,0.405029,-35.670734,-1.585366,-13.597561
1548455942889,0.152588,-0.788940,0.378540,-31.402439,-7.500000,-17.439024
1548455942897,0.107483,-0.834900,0.369263,-23.963415,-22.804878,-24.573172
1548455942919,0.046448,-0.894531,0.374695,-12.195122,-36.463417,-28.780489
1548455942920,0.009338,-0.921753,0.389099,0.609756,-41.158539,-27.987806
1548455942927,0.007935,-0.921814,0.395569,10.365854,-36.768295,-24.024391
1548455942957,0.032898,-0.936035,0.389771,15.487805,-27.682928,-20.975611
1548455942964,0.071289,-0.967346,0.385315,16.341463,-19.146341,-19.146341
1548455942965,0.095825,-0.986633,0.380493,14.207317,-15.670732,-17.682928
1548455942966,0.107361,-0.985901,0.374756,10.365854,-18.170732,-16.768293
1548455942994,0.100464,-0.979370,0.373352,4.878049,-24.268293,-17.865854
1548455942995,0.079956,-0.973022,0.377686,-1.829268,-31.097561,-20.304878
1548455942996,0.060059,-0.963562,0.387756,-7.804878,-36.219513,-22.134148
1548455943032,0.055237,-0.947083,0.392090,-10.853659,-37.804878,-22.195122
1548455943039,0.069763,-0.926758,0.392151,-10.975610,-36.158539,-21.219513
1548455943077,0.091858,-0.915344,0.391357,-8.780488,-33.048782,-20.060976
1548455943077,0.117249,-0.920410,0.387146,-4.939024,-30.182928,-19.085367
1548455943078,0.130310,-0.938354,0.387329,-0.792683,-28.353659,-18.048780
1548455943114,0.131348,-0.954102,0.385986,2.439024,-28.109756,-16.890244
1548455943144,0.130066,-0.966064,0.393311,4.146341,-28.841465,-15.548780
1548455943167,0.132141,-0.973694,0.400391,4.817073,-29.878050,-13.902439
1548455943174,0.137268,-0.987732,0.405396,4.146341,-29.817074,-11.890244
1548455943212,0.137268,-0.999634,0.411560,2.317073,-28.414635,-9.024390
1548455943242,0.126770,-0.997742,0.406006,0.000000,-26.829269,-5.243903
1548455943249,0.112183,-0.980530,0.396118,-2.195122,-25.121952,-0.548781
1548455943250,0.107666,-0.955017,0.388184,-2.926829,-23.414635,3.536585
1548455943250,0.111023,-0.926086,0.388672,-1.768293,-21.951220,5.853659
1548455943257,0.121948,-0.911804,0.379639,1.829268,-20.487804,6.524390
1548455943257,0.134155,-0.913513,0.370239,6.707317,-19.451220,6.280488
1548455943258,0.144104,-0.925049,0.362549,10.426829,-18.658537,5.548780
1548455943309,0.150146,-0.934326,0.363708,11.707317,-18.353659,4.573171
1548455943317,0.153748,-0.931335,0.365479,10.365854,-18.841463,3.414634
1548455943324,0.154724,-0.919556,0.371887,7.439024,-19.817074,1.707317
1548455943325,0.156555,-0.907166,0.379700,4.268293,-21.097561,-0.182927
1548455943347,0.160278,-0.897827,0.386475,1.890244,-22.317074,-2.195122
1548455943347,0.161011,-0.894409,0.392090,0.121951,-23.170732,-3.719512
1548455943348,0.163147,-0.898682,0.396790,-0.609756,-23.780489,-4.573171
1548455943384,0.160522,-0.904968,0.402954,-0.609756,-24.207317,-4.512195
1548455943385,0.156982,-0.911987,0.400574,0.182927,-24.756098,-3.841464
1548455943414,0.153931,-0.921753,0.397522,1.280488,-25.182928,-2.865854
1548455943415,0.149292,-0.929321,0.391602,2.378049,-25.487806,-1.951220
1548455943415,0.149841,-0.936035,0.386292,3.597561,-25.426830,-0.975610
1548455943422,0.151367,-0.944885,0.383118,4.451220,-24.695122,-0.182927
1548455943452,0.156494,-0.946533,0.382996,5.243903,-23.475611,0.853659
1548455943452,0.160828,-0.947266,0.382751,5.609756,-22.073172,1.951220
1548455943453,0.160156,-0.946533,0.383606,5.670732,-21.036587,3.109756
1548455943482,0.156616,-0.940979,0.384827,5.609756,-20.243902,4.451220
1548455943489,0.148804,-0.934082,0.381714,5.853659,-19.756098,5.670732
1548455943490,0.144653,-0.930908,0.381714,6.402439,-19.329269,6.219512
1548455943497,0.146240,-0.928101,0.384277,7.195122,-18.719513,6.463415
1548455943497,0.153198,-0.929565,0.381165,7.926829,-17.804878,6.402439
1548455943498,0.160461,-0.929565,0.383850,8.353659,-17.012196,5.914634
1548455943519,0.166565,-0.929688,0.389465,7.804878,-16.463415,5.609756
1548455943520,0.169800,-0.928589,0.394470,6.402439,-16.158537,5.426829
1548455943520,0.165588,-0.925720,0.395752,4.634146,-15.975610,5.487805
1548455943534,0.160522,-0.919678,0.393921,3.048780,-16.036585,5.548780
1548455943535,0.159607,-0.916504,0.393921,1.768293,-15.975610,5.426829
1548455943557,0.156311,-0.914917,0.395325,1.158537,-15.548780,5.182927
1548455943594,0.158081,-0.917114,0.392822,1.158537,-14.756098,4.817073
1548455943595,0.161194,-0.918762,0.388245,1.524390,-13.780488,4.451220
1548455943595,0.164673,-0.921692,0.384399,2.195122,-12.865854,4.024390
1548455943602,0.163574,-0.923157,0.386414,2.743902,-12.317074,3.658537
1548455943602,0.161316,-0.926575,0.384033,3.048780,-12.256098,3.597561
1548455943603,0.158813,-0.931274,0.385437,3.231707,-11.951220,3.475610
1548455943624,0.159668,-0.933289,0.384521,3.109756,-11.646341,3.475610
1548455943625,0.161621,-0.934937,0.383423,2.743902,-11.402439,3.353659
1548455943625,0.161011,-0.932678,0.380737,2.073171,-11.158537,3.170732
1548455943632,0.160156,-0.933228,0.379150,1.341463,-10.914635,3.170732
1548455943662,0.159363,-0.931458,0.376526,0.792683,-10.731708,3.353659
1548455943677,0.159302,-0.926147,0.378357,0.853659,-10.670732,3.597561
1548455943677,0.159241,-0.925964,0.380127,0.792683,-10.548780,3.902439
1548455943678,0.160400,-0.925293,0.378235,1.158537,-10.182927,4.085366
1548455943692,0.159424,-0.924744,0.376892,1.524390,-9.817074,4.268293
1548455943692,0.161682,-0.925110,0.376831,1.646341,-9.512196,4.451220
1548455943699,0.163513,-0.926331,0.376099,1.707317,-9.451220,4.451220
1548455943700,0.169922,-0.926086,0.379761,1.768293,-9.451220,4.390244
1548455943700,0.172119,-0.925598,0.382507,1.707317,-9.512196,4.329268
1548455943729,0.172180,-0.927551,0.383911,1.585366,-9.634147,4.329268
1548455943730,0.169373,-0.930786,0.382446,1.585366,-9.756098,4.451220
1548455943730,0.165222,-0.931335,0.383545,1.707317,-9.939025,4.756098
1548455943737,0.162659,-0.931152,0.385376,1.524390,-10.060976,5.060976
1548455943767,0.157532,-0.933044,0.379333,1.524390,-10.243902,5.426829
1548455943767,0.155884,-0.933167,0.377136,1.524390,-10.121951,5.609756
1548455943768,0.158569,-0.935303,0.373413,1.646341,-9.329268,5.670732
1548455943774,0.157776,-0.938599,0.370239,1.585366,-8.109756,5.670732
1548455943782,0.154907,-0.943115,0.372070,1.097561,-6.951220,5.975610
1548455943782,0.143127,-0.946655,0.373962,0.365854,-6.036585,6.768293
1548455943783,0.129272,-0.949585,0.377808,-0.609756,-5.426829,7.682927
1548455943797,0.115112,-0.945374,0.377686,-1.524390,-5.000000,8.414635
1548455943797,0.106812,-0.944336,0.373779,-2.012195,-4.207317,8.719512
1548455943798,0.104797,-0.947937,0.372498,-2.073171,-3.048780,8.536586
1548455943812,0.106934,-0.953491,0.369751,-1.890244,-1.585366,8.109756
1548455943834,0.113159,-0.956055,0.366516,-1.829268,0.000000,7.560976
1548455943835,0.119141,-0.955994,0.365906,-1.951220,1.158537,7.073171
1548455943835,0.123047,-0.949280,0.365662,-2.256098,2.012195,6.402439
1548455943872,0.122192,-0.940796,0.365784,-2.682927,2.804878,5.975610
1548455943902,0.118652,-0.938232,0.369629,-2.500000,3.780488,5.975610
1548455943902,0.115784,-0.940063,0.369873,-1.951220,4.878049,6.524390
1548455943903,0.115784,-0.941467,0.374023,-1.280488,5.853659,7.256098
1548455943909,0.112427,-0.941467,0.375305,-0.792683,6.585366,7.865854
1548455943910,0.111145,-0.940002,0.377197,-0.426829,7.134147,7.865854
1548455943939,0.112000,-0.940125,0.377930,-0.182927,7.804878,7.804878
1548455943940,0.113159,-0.936340,0.383667,0.121951,8.536586,7.743903
1548455943940,0.113892,-0.933472,0.389221,0.304878,9.207317,7.987805
1548455943947,0.114197,-0.935547,0.393738,0.426829,9.817074,8.353659
1548455943947,0.114563,-0.929504,0.392517,0.731707,10.304878,8.719512
1548455943954,0.117126,-0.923645,0.390198,1.463415,10.548780,8.780488
1548455943955,0.117371,-0.927368,0.387390,2.256098,11.097561,8.780488
1548455943956,0.119568,-0.934448,0.386414,2.621951,11.707317,8.475610
1548455943970,0.118652,-0.932922,0.389221,2.134146,12.378049,8.353659
1548455943977,0.115723,-0.919373,0.392822,1.280488,12.743903,8.414635
1548455943984,0.114746,-0.913269,0.397644,0.609756,13.170732,8.475610
1548455944007,0.114929,-0.912903,0.400818,0.548781,13.719513,8.475610
1548455944008,0.111694,-0.918030,0.398743,1.158537,14.207317,8.048780
1548455944044,0.109680,-0.922302,0.392090,2.073171,14.878049,7.439024
1548455944045,0.113892,-0.924194,0.391113,2.865854,15.853659,6.951220
1548455944045,0.125061,-0.925842,0.385254,2.926829,17.317074,6.341464
1548455944052,0.135010,-0.928223,0.386169,2.317073,18.719513,5.731708
1548455944059,0.137939,-0.935303,0.385498,1.097561,19.756098,5.243903
1548455944074,0.135193,-0.938416,0.387939,-0.365854,20.548780,5.000000
1548455944075,0.126221,-0.943726,0.392090,-1.585366,21.280489,5.304878
1548455944089,0.117432,-0.948303,0.394287,-3.109756,21.951220,6.158537
1548455944112,0.110901,-0.948792,0.396240,-4.512195,22.621952,7.195122
1548455944112,0.110413,-0.945496,0.389038,-5.731708,23.475611,7.804878
1548455944113,0.111877,-0.945618,0.382202,-6.402439,24.512196,8.170732
1548455944127,0.108643,-0.947021,0.379761,-5.731708,25.304878,8.597561
1548455944142,0.098389,-0.948303,0.380981,-4.085366,25.426830,9.695122
1548455944149,0.091125,-0.953369,0.381653,-2.073171,25.304878,11.463415
1548455944157,0.083496,-0.959656,0.383850,-0.548781,25.121952,13.231708
1548455944179,0.073242,-0.959778,0.388672,0.609756,25.548780,15.121951
1548455944180,0.072205,-0.962097,0.388489,1.463415,26.280489,17.012196
1548455944187,0.067200,-0.964478,0.385864,1.951220,26.890245,18.658537
1548455944194,0.063660,-0.967285,0.388611,2.134146,27.317074,20.000000
1548455944232,0.059692,-0.966370,0.384888,2.195122,27.500000,21.158537
1548455944232,0.058289,-0.963562,0.389038,2.500000,27.317074,22.195122
1548455944233,0.051636,-0.968201,0.393738,2.926829,26.768293,23.597561
1548455944239,0.041260,-0.967163,0.400330,3.414634,25.914635,25.548780
1548455944247,0.026733,-0.968567,0.401978,4.207317,25.548780,27.926830
1548455944255,0.013428,-0.969849,0.401917,4.878049,25.609756,30.426830
1548455944284,0.005676,-0.972534,0.401672,5.365854,26.219513,33.048782
1548455944285,0.004578,-0.973328,0.397583,5.487805,26.829269,35.182926
1548455944286,0.001160,-0.970215,0.399353,5.304878,26.829269,36.768295
1548455944299,-0.006042,-0.967102,0.397095,4.878049,26.463415,37.987804
1548455944307,-0.013428,-0.964355,0.393066,4.634146,25.975611,39.390244
1548455944315,-0.020386,-0.965637,0.396362,4.756098,25.731709,41.097561
1548455944330,-0.032471,-0.964355,0.400330,5.060976,25.609756,43.231709
1548455944337,-0.044800,-0.963501,0.399231,5.304878,25.548780,45.365856
1548455944344,-0.052063,-0.960571,0.398865,5.609756,25.914635,47.378052
1548455944359,-0.060974,-0.965332,0.399719,5.731708,26.585367,49.207317
1548455944367,-0.069214,-0.968445,0.400452,5.914634,27.500000,50.914635
1548455944374,-0.077759,-0.966675,0.403870,6.402439,28.353659,52.682926
1548455944389,-0.085449,-0.961426,0.403381,6.829268,28.963415,54.268295
1548455944397,-0.090942,-0.955811,0.407532,7.134147,30.000000,55.487804
1548455944405,-0.102051,-0.957520,0.412231,7.682927,31.036587,57.012196
1548455944419,-0.120300,-0.953125,0.411255,8.109756,31.402439,59.085369
1548455944427,-0.140015,-0.952026,0.406067,7.987805,31.158537,61.036587
1548455944434,-0.155884,-0.949402,0.404297,7.621952,31.158537,62.378052
1548455944450,-0.162354,-0.939270,0.403076,6.890244,31.524391,62.682930
1548455944457,-0.169861,-0.931641,0.405151,6.585366,32.439026,62.256100
1548455944464,-0.179749,-0.929993,0.407227,6.951220,33.780487,62.195122
1548455944479,-0.190002,-0.925598,0.406921,7.317073,35.060978,62.682930
1548455944487,-0.201599,-0.917419,0.407043,7.256098,36.097561,63.719513
1548455944494,-0.217163,-0.909973,0.408325,7.134147,36.829269,64.573174
1548455944509,-0.228333,-0.906128,0.416077,7.500000,37.560978,65.243904
1548455944517,-0.246216,-0.907898,0.419678,8.170732,38.170734,65.731712
1548455944524,-0.262024,-0.907898,0.413940,8.780488,38.414635,66.219513
1548455944539,-0.278931,-0.899475,0.407837,9.024390,39.024391,66.463417
1548455944547,-0.290283,-0.889221,0.412476,8.597561,39.512196,65.609756
1548455944555,-0.302368,-0.882874,0.405212,7.560976,39.390244,64.390244
1548455944569,-0.319702,-0.877686,0.398560,7.195122,39.024391,63.414635
1548455944577,-0.329407,-0.872070,0.393250,7.256098,38.719513,62.073174
1548455944584,-0.334656,-0.866577,0.386536,7.256098,38.475609,60.182930
1548455944599,-0.336426,-0.861328,0.382141,7.317073,37.865856,58.109756
1548455944607,-0.346863,-0.860046,0.385803,7.256098,36.341465,55.487804
1548455944614,-0.356506,-0.857239,0.388367,6.951220,34.756100,53.231709
1548455944629,-0.369751,-0.853943,0.388000,6.585366,33.963417,51.402439
1548455944637,-0.383118,-0.845276,0.382935,6.341464,33.475609,49.695122
1548455944644,-0.398560,-0.840149,0.386230,6.219512,32.743904,47.987804
1548455944659,-0.413269,-0.833862,0.382751,6.768293,31.951220,46.646343
1548455944667,-0.421082,-0.830505,0.380432,7.865854,31.585367,45.426830
1548455944674,-0.430725,-0.835388,0.382202,8.597561,31.219513,44.085365
1548455944697,-0.438721,-0.837402,0.377747,8.841464,31.036587,43.353661
1548455944697,-0.444763,-0.832947,0.374817,8.902439,31.097561,42.134148
1548455944704,-0.452881,-0.833252,0.377625,8.414635,30.548780,40.304878
1548455944720,-0.455994,-0.827026,0.376099,8.048780,29.634148,38.841465
1548455944727,-0.462708,-0.827148,0.374084,7.926829,28.780489,37.317074
1548455944734,-0.472290,-0.832336,0.374023,7.682927,28.109756,36.036587
1548455944749,-0.480103,-0.830261,0.373901,7.560976,27.682928,35.243904
1548455944757,-0.483215,-0.826355,0.372253,7.317073,27.134148,33.780487
1548455944764,-0.485718,-0.823181,0.374390,7.073171,27.012196,32.743904
1548455944779,-0.498474,-0.820679,0.374023,6.768293,27.073172,33.048782
1548455944787,-0.508179,-0.815674,0.371094,7.195122,27.317074,33.292683
1548455944795,-0.516785,-0.815186,0.368347,7.926829,27.073172,32.378048
1548455944809,-0.525208,-0.814941,0.369690,7.865854,26.707317,32.256100
1548455944817,-0.529846,-0.811584,0.362671,7.987805,27.439026,33.780487
1548455944824,-0.534485,-0.812012,0.361816,8.048780,28.170732,33.719513
1548455944839,-0.543396,-0.810486,0.364014,7.987805,27.621952,32.012196
1548455944847,-0.544983,-0.806335,0.362122,7.865854,26.951220,31.097561
1548455944854,-0.545166,-0.798523,0.361328,7.256098,27.560976,31.280489
1548455944870,-0.551331,-0.788574,0.353271,6.829268,28.353659,32.012196
1548455944877,-0.565857,-0.782959,0.352600,6.890244,28.475611,31.219513
1548455944885,-0.573914,-0.776184,0.354248,7.743903,28.353659,30.060976
1548455944900,-0.582031,-0.778259,0.362549,8.963415,28.597561,29.634148
1548455944907,-0.591553,-0.781128,0.366943,10.000000,29.268293,29.390245
1548455944915,-0.592896,-0.783752,0.366089,10.853659,30.000000,27.987806
1548455944922,-0.587891,-0.767578,0.359009,11.158537,30.792685,26.768293
1548455944937,-0.594299,-0.756592,0.355347,10.792684,32.256100,27.317074
1548455944945,-0.610107,-0.753235,0.357178,10.609756,33.170731,27.317074
1548455944953,-0.618774,-0.749146,0.352478,11.951220,33.536587,26.280489
1548455944967,-0.622620,-0.741638,0.354736,12.987805,34.390244,25.731709
1548455944975,-0.628357,-0.744324,0.354736,13.658537,35.670734,25.975611
1548455944982,-0.622253,-0.739746,0.339783,14.939025,36.707317,24.817074
1548455944997,-0.617615,-0.733154,0.337524,15.731708,37.378048,23.719513
1548455945004,-0.629822,-0.732910,0.338196,15.914635,37.621952,23.231709
1548455945012,-0.636841,-0.726624,0.335388,16.524391,37.439026,21.585367
1548455945027,-0.643982,-0.720642,0.337952,17.073172,37.439026,20.243902
1548455945035,-0.652649,-0.725708,0.331116,17.621952,37.378048,19.268293
1548455945042,-0.640503,-0.717529,0.315796,18.597561,37.987804,18.048780
1548455945057,-0.634216,-0.707031,0.305664,19.024391,38.597561,17.987804
1548455945064,-0.648743,-0.711548,0.306274,18.902439,37.804878,18.109756
1548455945072,-0.664856,-0.715332,0.312256,18.841463,36.036587,17.195122
1548455945087,-0.654602,-0.709900,0.297485,18.719513,34.573170,15.304878
1548455945094,-0.650696,-0.710083,0.292603,17.682928,33.414635,13.719513
1548455945102,-0.659851,-0.712830,0.295959,15.914635,31.097561,13.231708
1548455945117,-0.662842,-0.708435,0.288635,14.939025,28.597561,12.560976
1548455945125,-0.666138,-0.699890,0.284363,13.841464,26.463415,11.341464
1548455945132,-0.670715,-0.700195,0.282654,12.317074,23.902439,9.756098
1548455945147,-0.681274,-0.705139,0.291016,11.280488,21.768293,8.353659
1548455945154,-0.680054,-0.702454,0.289795,10.853659,19.878050,7.012195
1548455945162,-0.682190,-0.702820,0.288940,10.000000,18.475611,5.426829
1548455945177,-0.681458,-0.696655,0.288147,8.841464,16.829269,4.268293
1548455945184,-0.686707,-0.697266,0.291809,8.109756,15.487805,3.841464
1548455945192,-0.679199,-0.694031,0.289551,7.439024,14.146341,3.170732
1548455945207,-0.687378,-0.693909,0.296265,7.195122,13.170732,2.743902
1548455945214,-0.691040,-0.696289,0.295898,6.890244,11.707317,1.951220
1548455945222,-0.686096,-0.699097,0.292114,6.646342,10.975610,1.036585
1548455945237,-0.684021,-0.701782,0.294861,6.524390,10.182927,0.670732
1548455945244,-0.688599,-0.705322,0.298279,6.097561,8.902439,0.975610
1548455945252,-0.690002,-0.703735,0.292725,5.304878,7.621952,1.158537
1548455945267,-0.692688,-0.705505,0.291992,4.756098,6.829268,1.280488
1548455945274,-0.691895,-0.707825,0.286926,4.512195,6.158537,1.341463
1548455945282,-0.693848,-0.711670,0.282471,4.695122,5.670732,1.646341
1548455945297,-0.696045,-0.712097,0.287720,4.512195,4.756098,2.195122
1548455945304,-0.696411,-0.710388,0.286621,3.841464,3.658537,2.743902
1548455945312,-0.695312,-0.712524,0.286255,3.292683,3.048780,2.865854
1548455945328,-0.702148,-0.718201,0.293213,2.804878,2.378049,3.048780
1548455945334,-0.698181,-0.715454,0.289734,2.560976,1.646341,3.292683
1548455945342,-0.702393,-0.710938,0.299072,2.317073,1.646341,3.475610
1548455945357,-0.710022,-0.709595,0.301025,1.646341,1.158537,3.658537
1548455945364,-0.710999,-0.706787,0.299194,1.829268,1.463415,4.207317
1548455945372,-0.705139,-0.708618,0.302673,2.560976,2.134146,4.878049
1548455945387,-0.691223,-0.696777,0.294128,2.500000,3.048780,4.878049
1548455945394,-0.701965,-0.693909,0.297241,2.195122,3.414634,5.426829
1548455945402,-0.708862,-0.695374,0.304504,1.402439,2.073171,6.036585
1548455945417,-0.708008,-0.699280,0.305176,1.341463,1.829268,6.219512
1548455945424,-0.708801,-0.698181,0.301636,1.890244,2.682927,5.792683
1548455945432,-0.719360,-0.699585,0.307190,2.378049,3.475610,5.609756
1548455945447,-0.712158,-0.697815,0.306091,3.048780,3.902439,5.548780
1548455945454,-0.692139,-0.682007,0.294800,3.719512,5.609756,5.365854
1548455945462,-0.706299,-0.684387,0.298767,3.841464,6.402439,5.914634
1548455945477,-0.714783,-0.688782,0.296875,3.658537,5.121951,6.463415
1548455945492,-0.717468,-0.689941,0.294678,3.963415,4.817073,6.341464
1548455945492,-0.722656,-0.687317,0.301392,3.719512,4.573171,5.792683
1548455945507,-0.720398,-0.683716,0.292603,3.109756,4.329268,5.000000
1548455945515,-0.720276,-0.695618,0.297180,3.048780,4.634146,4.085366
1548455945522,-0.719116,-0.690796,0.295959,3.414634,4.695122,3.719512
1548455945537,-0.707764,-0.679565,0.285278,3.963415,5.365854,3.536585
1548455945544,-0.706787,-0.677551,0.285828,3.536585,5.731708,3.109756
1548455945552,-0.712830,-0.676331,0.284546,3.170732,4.634146,3.536585
1548455945567,-0.719910,-0.680908,0.282166,2.804878,3.353659,3.658537
1548455945575,-0.721375,-0.681152,0.281067,2.134146,2.317073,3.048780
1548455945582,-0.714539,-0.673401,0.281677,1.646341,1.829268,2.134146
1548455945597,-0.717224,-0.675842,0.289062,0.670732,0.731707,1.280488
1548455945605,-0.715515,-0.678223,0.292847,0.243902,-0.914634,0.487805
1548455945612,-0.713379,-0.677063,0.290344,0.548781,-1.341463,-0.426829
1548455945627,-0.715210,-0.685730,0.289734,0.548781,-1.707317,-1.585366
1548455945634,-0.717224,-0.680298,0.291382,0.304878,-2.195122,-2.256098
1548455945642,-0.723877,-0.674011,0.293762,0.060976,-2.682927,-2.378049
1548455945657,-0.721008,-0.674805,0.286438,0.243902,-2.926829,-2.500000
1548455945664,-0.722168,-0.683472,0.291809,0.548781,-2.804878,-2.560976
1548455945672,-0.721802,-0.696716,0.297485,0.792683,-3.292683,-2.804878
1548455945687,-0.713440,-0.699097,0.294983,1.097561,-3.109756,-3.292683
1548455945694,-0.714722,-0.695496,0.297119,0.731707,-2.621951,-3.231707
1548455945702,-0.709656,-0.695679,0.292480,-0.060976,-2.743902,-2.865854
1548455945717,-0.711853,-0.697510,0.295471,0.304878,-2.317073,-2.073171
1548455945724,-0.716370,-0.699890,0.297729,0.548781,-2.439024,-1.524390
1548455945732,-0.714844,-0.698547,0.289429,0.426829,-2.439024,-1.097561
1548455945747,-0.720032,-0.699402,0.293701,0.182927,-2.500000,-0.792683
1548455945754,-0.716309,-0.696899,0.290588,-0.304878,-2.865854,-0.609756
1548455945762,-0.711182,-0.690369,0.293457,-0.548781,-2.804878,-0.426829
1548455945777,-0.714111,-0.689087,0.296692,-1.280488,-3.414634,-0.121951
1548455945784,-0.711548,-0.687622,0.293579,-1.280488,-3.719512,-0.182927
1548455945792,-0.705688,-0.688354,0.291931,-0.975610,-3.719512,-0.609756
1548455945814,-0.704224,-0.688416,0.292358,-1.280488,-4.085366,-1.097561
1548455945815,-0.705627,-0.685364,0.291565,-1.280488,-4.756098,-1.341463
1548455945822,-0.708191,-0.682312,0.293945,-1.524390,-5.365854,-1.646341
1548455945837,-0.706238,-0.682495,0.294617,-1.890244,-6.219512,-2.256098
1548455945844,-0.709045,-0.687744,0.298706,-2.195122,-6.768293,-2.682927
1548455945852,-0.706482,-0.687866,0.298340,-2.317073,-7.073171,-3.170732
1548455945867,-0.711548,-0.685608,0.303589,-2.439024,-7.256098,-3.536585
1548455945874,-0.710022,-0.686829,0.302124,-2.865854,-7.682927,-3.963415
1548455945882,-0.708130,-0.691223,0.300110,-2.621951,-7.621952,-4.207317
1548455945897,-0.709595,-0.696228,0.303406,-2.500000,-7.804878,-4.329268
1548455945904,-0.704468,-0.694702,0.294739,-2.439024,-8.048780,-4.512195
1548455945912,-0.703369,-0.696838,0.293030,-2.621951,-8.231708,-4.634146
1548455945927,-0.702942,-0.698975,0.299622,-3.292683,-8.780488,-4.695122
1548455945934,-0.698120,-0.699219,0.300476,-3.414634,-9.451220,-4.878049
1548455945942,-0.697327,-0.697510,0.294617,-3.536585,-10.060976,-5.121951
1548455945957,-0.695068,-0.698853,0.296875,-3.841464,-10.609756,-5.609756
1548455945964,-0.692017,-0.697021,0.294495,-4.146341,-11.158537,-6.280488
1548455945972,-0.690552,-0.699219,0.299805,-4.512195,-11.707317,-6.707317
1548455945987,-0.686890,-0.698425,0.298096,-5.060976,-12.317074,-6.951220
1548455945994,-0.684387,-0.698608,0.299072,-5.304878,-12.743903,-7.012195
1548455946002,-0.685547,-0.700012,0.297302,-5.609756,-13.414635,-7.012195
1548455946017,-0.684021,-0.702332,0.298096,-6.280488,-14.329268,-7.195122
1548455946024,-0.681091,-0.697937,0.296631,-7.134147,-15.548780,-7.743903
1548455946032,-0.677612,-0.694397,0.299805,-8.048780,-16.768293,-8.292683
1548455946047,-0.681152,-0.695740,0.307861,-8.597561,-17.926830,-9.146341
1548455946054,-0.676086,-0.695190,0.306091,-8.536586,-18.963415,-10.792684
1548455946062,-0.667175,-0.693298,0.303894,-8.170732,-19.390244,-12.378049
1548455946077,-0.664978,-0.699585,0.309998,-8.048780,-19.634148,-13.536586
1548455946084,-0.661011,-0.708984,0.312622,-8.170732,-20.426830,-14.756098
1548455946092,-0.656250,-0.709900,0.311218,-8.231708,-21.097561,-15.792684
1548455946107,-0.656677,-0.711609,0.314880,-8.780488,-21.890244,-16.463415
1548455946114,-0.654053,-0.715210,0.314392,-9.939025,-22.865854,-17.195122
1548455946122,-0.651001,-0.716492,0.317505,-10.670732,-23.719513,-18.048780
1548455946137,-0.648254,-0.717896,0.315430,-11.463415,-24.390244,-18.719513
1548455946144,-0.640869,-0.721375,0.319031,-12.012196,-25.121952,-20.000000
1548455946152,-0.643860,-0.724060,0.326477,-12.439025,-25.670732,-20.853659
1548455946167,-0.641602,-0.729553,0.327454,-12.134147,-26.463415,-22.378050
1548455946175,-0.634399,-0.736511,0.329651,-11.341464,-26.768293,-24.268293
1548455946182,-0.625061,-0.744690,0.326660,-10.792684,-26.158537,-24.939026
1548455946197,-0.614807,-0.750916,0.326172,-10.548780,-25.487806,-25.243902
1548455946205,-0.608887,-0.751465,0.324829,-10.731708,-25.000000,-24.573172
1548455946212,-0.605286,-0.752075,0.318542,-11.036586,-25.060976,-23.658537
1548455946227,-0.603333,-0.755981,0.320068,-11.524390,-25.731709,-23.597561
1548455946235,-0.599426,-0.753723,0.318298,-12.073171,-26.951220,-24.085367
1548455946242,-0.593323,-0.756226,0.317566,-12.743903,-28.841465,-25.609756
1548455946257,-0.594421,-0.758057,0.328247,-13.719513,-30.548780,-27.682928
1548455946265,-0.592896,-0.760925,0.324341,-14.451220,-32.439026,-29.695122
1548455946272,-0.579773,-0.770752,0.325562,-14.268293,-34.634148,-33.963417
1548455946287,-0.562805,-0.772705,0.334717,-13.902439,-34.939026,-36.402439
1548455946294,-0.551392,-0.776245,0.334534,-13.719513,-33.536587,-35.000000
1548455946302,-0.551208,-0.777161,0.335083,-13.536586,-32.439026,-33.780487
1548455946317,-0.550720,-0.782288,0.337769,-12.804878,-32.560978,-34.146343
1548455946324,-0.552124,-0.785217,0.344238,-12.012196,-33.780487,-35.487804
1548455946332,-0.543030,-0.793579,0.345520,-11.341464,-35.182926,-37.378048
1548455946347,-0.528625,-0.807678,0.349548,-11.158537,-35.792683,-40.000000
1548455946354,-0.514893,-0.818298,0.349548,-11.463415,-36.036587,-42.134148
1548455946362,-0.503113,-0.826050,0.360352,-12.682927,-35.975609,-43.109756
1548455946384,-0.494873,-0.823120,0.362305,-14.085366,-35.792683,-42.865856
1548455946385,-0.487488,-0.819031,0.358398,-14.451220,-35.182926,-42.073174
1548455946392,-0.478455,-0.817444,0.358826,-14.146341,-34.573170,-41.890244
1548455946407,-0.473511,-0.819092,0.355347,-13.475610,-34.695122,-41.890244
1548455946414,-0.471069,-0.827148,0.360291,-12.378049,-35.365856,-42.256100
1548455946422,-0.469116,-0.832764,0.351624,-11.219512,-36.463417,-44.146343
1548455946437,-0.461914,-0.847778,0.350098,-10.609756,-38.780487,-48.536587
1548455946444,-0.448120,-0.859314,0.357178,-11.158537,-40.975609,-53.902439
1548455946453,-0.428040,-0.870117,0.369629,-12.073171,-41.707317,-56.463417
1548455946467,-0.412292,-0.874207,0.382629,-12.317074,-40.609756,-55.914635
1548455946474,-0.408325,-0.870972,0.376953,-12.804878,-38.719513,-54.024391
1548455946482,-0.404724,-0.860413,0.369934,-13.780488,-37.073170,-52.926830
1548455946497,-0.399902,-0.848694,0.361145,-13.292684,-36.341465,-52.560978
1548455946504,-0.385071,-0.846863,0.358154,-11.158537,-36.402439,-53.658539
1548455946512,-0.362488,-0.855774,0.351990,-8.109756,-37.682926,-56.707317
1548455946527,-0.343384,-0.880737,0.362183,-5.243903,-39.756100,-61.341465
1548455946534,-0.316650,-0.905396,0.378418,-3.780488,-41.646343,-65.426834
1548455946542,-0.294006,-0.922424,0.383057,-4.634146,-42.317074,-66.402443
1548455946557,-0.286133,-0.925964,0.387146,-7.317073,-41.890244,-65.365852
1548455946564,-0.290833,-0.914673,0.387878,-10.609756,-41.036587,-62.926830
1548455946572,-0.295471,-0.896057,0.382629,-12.987805,-40.182926,-59.512196
1548455946587,-0.297302,-0.883118,0.370117,-12.926829,-39.756100,-57.317074
1548455946594,-0.283997,-0.885437,0.361877,-10.548780,-40.365856,-57.804878
1548455946602,-0.257446,-0.896484,0.363831,-6.463415,-41.524391,-61.158539
1548455946617,-0.230591,-0.924683,0.375793,-3.048780,-42.987804,-65.426834
1548455946624,-0.205566,-0.951782,0.386108,-2.317073,-44.329269,-68.658539
1548455946632,-0.183777,-0.963257,0.390198,-4.146341,-44.146343,-68.841469
1548455946647,-0.174683,-0.962280,0.400452,-7.012195,-42.804878,-67.073174
1548455946654,-0.180054,-0.949219,0.407288,-10.000000,-40.609756,-63.719513
1548455946662,-0.194519,-0.937256,0.402893,-11.585366,-38.475609,-59.268295
1548455946677,-0.202820,-0.926331,0.397583,-10.426829,-36.829269,-56.341465
1548455946684,-0.188599,-0.924500,0.387573,-7.682927,-35.548782,-56.341465
1548455946692,-0.159973,-0.943054,0.386169,-4.695122,-34.329269,-58.536587
1548455946707,-0.121216,-0.965942,0.387207,-2.804878,-33.536587,-61.463417
1548455946715,-0.086548,-0.977478,0.391174,-2.500000,-32.682926,-62.621952
1548455946722,-0.063660,-0.984619,0.397461,-4.268293,-32.012196,-61.524391
1548455946737,-0.064880,-0.983398,0.401611,-7.134147,-31.463415,-58.536587
1548455946744,-0.085938,-0.972900,0.400208,-8.902439,-31.280489,-53.536587
1548455946752,-0.108032,-0.959900,0.389343,-8.536586,-30.975611,-48.353661
1548455946767,-0.113770,-0.949463,0.373657,-6.646342,-30.121952,-45.365856
1548455946774,-0.099915,-0.948364,0.366089,-4.024390,-28.902439,-45.365856
1548455946782,-0.062866,-0.958557,0.364502,-0.975610,-27.317074,-47.195122
1548455946797,-0.017700,-0.974731,0.367371,0.609756,-26.036587,-48.963417
1548455946805,0.011841,-0.991943,0.374756,0.000000,-25.365854,-49.512196
1548455946812,0.017029,-0.997253,0.381592,-2.317073,-25.609756,-47.682926
1548455946834,0.004700,-0.984924,0.386108,-4.695122,-26.036587,-43.597561
1548455946835,-0.019226,-0.972229,0.386902,-6.036585,-25.975611,-38.780487
1548455946850,-0.037598,-0.957397,0.384644,-5.853659,-25.609756,-35.000000
1548455946864,-0.038452,-0.950684,0.374390,-4.085366,-24.634148,-32.804878
1548455946865,-0.016418,-0.952148,0.368042,-1.585366,-22.987806,-32.926830
1548455946902,0.021606,-0.958496,0.370605,-0.060976,-20.914635,-34.207317
1548455946902,0.054077,-0.972534,0.375488,0.060976,-19.329269,-35.243904
1548455946903,0.065430,-0.979492,0.381287,-0.609756,-18.719513,-34.329269
1548455946932,0.058960,-0.975464,0.382874,-1.402439,-19.146341,-31.158537
1548455946954,0.042542,-0.966797,0.381897,-1.829268,-19.756098,-27.317074
1548455946969,0.031128,-0.953308,0.378784,-1.585366,-19.756098,-24.268293
1548455946970,0.030518,-0.948547,0.375732,-0.853659,-19.512196,-22.926830
1548455946970,0.042969,-0.954163,0.370544,-0.243902,-18.292683,-22.987806
1548455946992,0.064331,-0.958313,0.368958,0.304878,-16.646341,-23.658537
1548455946992,0.080017,-0.962952,0.371216,0.182927,-15.304878,-23.719513
1548455946993,0.087769,-0.964966,0.375732,-0.426829,-14.878049,-22.987806
1548455947007,0.081848,-0.956787,0.374756,-0.853659,-15.060976,-21.402439
1548455947007,0.073364,-0.949036,0.370728,-0.853659,-15.487805,-19.573172
1548455947008,0.069458,-0.943115,0.364624,-0.670732,-15.670732,-18.475611
1548455947029,0.073669,-0.938293,0.357483,-0.182927,-15.365854,-18.414635
1548455947030,0.083984,-0.935669,0.350708,0.243902,-15.060976,-19.451220
1548455947037,0.100464,-0.930054,0.348450,0.426829,-15.000000,-21.219513
1548455947060,0.119202,-0.924561,0.350525,0.304878,-15.426829,-23.353659
1548455947060,0.131958,-0.923218,0.356201,0.000000,-16.097561,-25.000000
1548455947067,0.137512,-0.928955,0.359985,-0.243902,-16.951220,-25.731709
1548455947075,0.136230,-0.939880,0.365295,-0.121951,-17.865854,-25.731709
1548455947097,0.128906,-0.955872,0.365662,0.182927,-18.719513,-25.304878
1548455947097,0.124329,-0.969666,0.365906,0.060976,-19.634148,-24.695122
1548455947112,0.124939,-0.983276,0.367493,-0.853659,-20.304878,-24.085367
1548455947112,0.128357,-0.991394,0.367310,-2.682927,-20.548780,-23.109756
1548455947135,0.132751,-0.994446,0.364807,-4.817073,-20.304878,-21.585367
1548455947142,0.138794,-0.996399,0.360657,-6.097561,-20.060976,-19.390244
1548455947165,0.143555,-0.987488,0.356934,-5.731708,-19.512196,-16.402439
1548455947165,0.150940,-0.973755,0.352295,-3.719512,-18.597561,-12.743903
1548455947166,0.153687,-0.959534,0.353882,-0.609756,-17.256098,-8.902439
1548455947179,0.157104,-0.954346,0.353149,2.865854,-15.365854,-5.304878
1548455947202,0.159668,-0.950317,0.348694,6.402439,-13.231708,-2.378049
1548455947202,0.159851,-0.943176,0.345398,9.451220,-11.585366,-0.243902
1548455947203,0.157532,-0.935852,0.348206,11.341464,-10.731708,0.975610
1548455947232,0.154602,-0.927124,0.352295,12.012196,-10.487805,1.280488
1548455947233,0.156311,-0.922546,0.357971,11.829268,-10.548780,0.487805
1548455947233,0.161621,-0.918762,0.366577,10.914635,-10.914635,-0.914634
1548455947247,0.166870,-0.919312,0.375732,9.390244,-11.402439,-2.439024
1548455947269,0.173828,-0.922424,0.385254,7.073171,-11.585366,-3.475610
1548455947270,0.173096,-0.925232,0.390015,4.451220,-11.463415,-3.841464
1548455947277,0.168457,-0.922485,0.398743,1.829268,-11.158537,-3.536585
1548455947285,0.161194,-0.920349,0.401550,-0.121951,-10.670732,-2.743902
1548455947307,0.156555,-0.915894,0.398926,-1.158537,-10.000000,-1.951220
1548455947307,0.154053,-0.915222,0.397278,-1.097561,-9.024390,-1.341463
1548455947314,0.155579,-0.917603,0.390320,-0.182927,-7.560976,-1.158537
1548455947344,0.161621,-0.924377,0.385071,0.914634,-5.975610,-1.402439
1548455947345,0.166504,-0.928955,0.378357,2.134146,-4.268293,-1.951220
1548455947346,0.172241,-0.933899,0.374329,2.621951,-2.804878,-2.378049
1548455947352,0.173889,-0.936279,0.368896,2.560976,-1.768293,-2.621951
1548455947375,0.171631,-0.937744,0.364685,1.951220,-1.280488,-2.439024
1548455947376,0.167114,-0.940125,0.363281,1.158537,-1.097561,-2.073171
1548455947382,0.163757,-0.941772,0.359436,0.426829,-1.097561,-1.829268
1548455947412,0.163269,-0.940430,0.355896,-0.426829,-1.036585,-1.707317
1548455947412,0.165771,-0.938049,0.354736,-1.219512,-0.853659,-1.707317
1548455947413,0.169739,-0.933655,0.353149,-1.890244,-0.731707,-1.829268
1548455947442,0.173401,-0.929932,0.353149,-2.073171,-0.853659,-1.890244
1548455947442,0.173035,-0.930969,0.356018,-1.829268,-1.036585,-1.829268
1548455947443,0.171936,-0.930664,0.356506,-1.341463,-1.341463,-1.585366
1548455947457,0.173950,-0.930481,0.354858,-0.670732,-1.646341,-1.341463
1548455947479,0.176392,-0.929443,0.357239,-0.243902,-1.707317,-1.097561
1548455947480,0.179321,-0.929993,0.356201,0.000000,-1.768293,-0.853659
1548455947487,0.181458,-0.929993,0.357544,0.182927,-1.829268,-0.914634
1548455947509,0.182556,-0.929626,0.357605,0.365854,-2.012195,-0.914634
1548455947510,0.182678,-0.929993,0.360718,0.365854,-2.134146,-1.036585
1548455947517,0.181885,-0.932556,0.362915,0.426829,-2.378049,-0.975610
1548455947525,0.179932,-0.932678,0.363342,0.609756,-2.500000,-0.853659
1548455947548,0.176392,-0.933838,0.364014,0.853659,-2.621951,-0.731707
1548455947548,0.173157,-0.934082,0.366638,0.975610,-2.682927,-0.609756
1548455947562,0.170288,-0.935303,0.366211,0.975610,-2.560976,-0.426829
1548455947562,0.171204,-0.934204,0.362122,0.609756,-2.134146,-0.182927
1548455947584,0.175415,-0.931213,0.361511,0.487805,-1.646341,-0.121951
1548455947585,0.179504,-0.929626,0.360962,0.487805,-1.219512,-0.243902
1548455947614,0.180481,-0.928955,0.359558,0.243902,-1.036585,-0.487805
1548455947615,0.178833,-0.926636,0.360779,0.121951,-1.158537,-0.548781
1548455947622,0.179321,-0.926086,0.359192,-0.060976,-1.219512,-0.548781
1548455947622,0.175781,-0.927490,0.358276,0.000000,-1.341463,-0.487805
1548455947652,0.174133,-0.930847,0.361511,0.243902,-1.463415,-0.609756
1548455947652,0.177979,-0.931335,0.362793,0.609756,-1.585366,-0.792683
1548455947653,0.177734,-0.933350,0.364197,0.487805,-1.646341,-0.914634
1548455947667,0.178101,-0.935913,0.363037,0.243902,-1.585366,-0.975610
1548455947682,0.177856,-0.933594,0.361206,0.000000,-1.524390,-0.792683
1548455947682,0.175354,-0.930908,0.359619,0.060976,-1.402439,-0.609756
1548455947697,0.176636,-0.932129,0.360352,0.182927,-1.463415,-0.548781
1548455947719,0.178223,-0.930176,0.358521,0.182927,-1.341463,-0.365854
1548455947720,0.178589,-0.929443,0.357422,0.304878,-1.280488,-0.365854
1548455947734,0.177551,-0.925598,0.360291,0.304878,-1.402439,-0.426829
1548455947735,0.178894,-0.924561,0.360168,0.487805,-1.280488,-0.426829
1548455947757,0.180420,-0.927734,0.358887,0.670732,-1.219512,-0.365854
1548455947758,0.180115,-0.930176,0.360840,0.670732,-1.341463,-0.426829
1548455947764,0.181885,-0.929260,0.362549,0.548781,-1.463415,-0.548781
1548455947787,0.181458,-0.929749,0.361267,0.426829,-1.402439,-0.487805
1548455947787,0.182251,-0.928162,0.361877,0.365854,-1.585366,-0.548781
1548455947795,0.184387,-0.929321,0.363281,0.365854,-1.585366,-0.609756
1548455947802,0.183960,-0.931885,0.362610,0.487805,-1.585366,-0.609756
1548455947825,0.185364,-0.932739,0.361206,0.487805,-1.524390,-0.609756
1548455947826,0.186279,-0.929688,0.361023,0.121951,-1.524390,-0.670732
1548455947832,0.183228,-0.929260,0.360718,-0.060976,-1.524390,-0.548781
1548455947862,0.181213,-0.931152,0.362183,0.000000,-1.402439,-0.243902
1548455947862,0.182495,-0.929443,0.359375,0.060976,-1.341463,-0.121951
1548455947863,0.178955,-0.925537,0.357910,0.243902,-1.402439,-0.060976
1548455947899,0.180542,-0.927368,0.360840,0.426829,-1.402439,0.000000
1548455947900,0.179871,-0.930176,0.359070,0.670732,-1.158537,0.000000
1548455947907,0.181885,-0.931213,0.357239,0.792683,-0.975610,-0.060976
1548455947908,0.184570,-0.931091,0.356506,0.914634,-1.036585,-0.060976
1548455947929,0.184448,-0.931213,0.356384,0.731707,-1.219512,-0.060976
1548455947930,0.182495,-0.931335,0.355896,0.548781,-1.341463,-0.121951
1548455947937,0.182983,-0.930481,0.358276,0.487805,-1.463415,-0.182927
1548455947944,0.182861,-0.930847,0.358887,0.548781,-1.707317,-0.060976
1548455947967,0.181763,-0.930725,0.359741,0.609756,-1.707317,0.000000
1548455947967,0.181396,-0.929138,0.361389,0.670732,-1.524390,0.000000
1548455947974,0.183350,-0.931152,0.360413,0.609756,-1.463415,0.182927
1548455947997,0.184082,-0.927856,0.360596,0.792683,-1.158537,0.182927
1548455947998,0.182983,-0.928406,0.363647,0.975610,-0.975610,0.182927
1548455948004,0.183777,-0.929932,0.361938,1.097561,-0.975610,0.304878
1548455948012,0.180481,-0.928589,0.361938,1.158537,-1.097561,0.304878
1548455948035,0.179382,-0.926086,0.364075,1.097561,-0.914634,0.304878
1548455948036,0.179443,-0.926453,0.361694,0.975610,-0.670732,0.609756
1548455948042,0.181580,-0.924194,0.362427,0.792683,-0.426829,0.792683
1548455948072,0.181641,-0.924744,0.362305,0.914634,-0.182927,0.731707
1548455948072,0.183044,-0.924927,0.363586,0.975610,-0.121951,0.548781
1548455948073,0.182922,-0.926086,0.364746,0.975610,-0.243902,0.365854
1548455948102,0.187195,-0.926636,0.364258,0.853659,-0.304878,0.304878
1548455948102,0.189636,-0.924744,0.364624,0.731707,-0.365854,0.243902
1548455948103,0.188721,-0.922852,0.365295,0.792683,-0.487805,0.000000
1548455948147,0.187927,-0.925232,0.364807,0.792683,-0.426829,0.121951
1548455948147,0.184082,-0.926880,0.364868,0.670732,-0.426829,0.365854
1548455948148,0.178650,-0.924805,0.362976,0.853659,-0.304878,0.670732
1548455948169,0.176270,-0.927429,0.361694,1.097561,-0.060976,0.975610
1548455948170,0.178589,-0.929993,0.362488,1.341463,0.365854,1.158537
1548455948171,0.182312,-0.931335,0.361694,1.585366,0.914634,1.341463
1548455948177,0.186279,-0.930481,0.363892,1.829268,1.463415,1.524390
1548455948184,0.186707,-0.930542,0.364197,1.768293,1.768293,1.646341
1548455948207,0.182251,-0.931030,0.365234,1.585366,1.768293,1.707317
1548455948208,0.175232,-0.931702,0.366211,1.463415,1.524390,1.768293
1548455948214,0.172852,-0.927979,0.364929,1.463415,1.219512,2.012195
1548455948222,0.174561,-0.924683,0.363403,1.402439,1.280488,2.378049
1548455948274,0.175293,-0.924072,0.364990,1.768293,1.646341,2.378049
1548455948275,0.180542,-0.927246,0.365112,2.317073,2.195122,2.256098
1548455948276,0.178955,-0.931274,0.370728,2.621951,2.987805,2.500000
1548455948282,0.172485,-0.935486,0.376648,2.621951,3.597561,3.475610
1548455948289,0.167786,-0.938965,0.387024,2.500000,4.085366,4.695122
1548455948290,0.160828,-0.935059,0.387634,2.134146,4.268293,5.792683
1548455948312,0.155823,-0.926514,0.386536,2.560976,4.451220,6.036585
1548455948312,0.154724,-0.916809,0.378601,3.719512,5.609756,5.487805
1548455948313,0.158630,-0.920105,0.381714,6.036585,7.682927,5.243903
1548455948350,0.160767,-0.927856,0.388000,8.902439,9.695122,6.036585
1548455948350,0.159851,-0.925415,0.386841,11.585366,10.548780,7.256098
1548455948357,0.156616,-0.929688,0.388672,14.512196,11.341464,8.780488
1548455948358,0.153259,-0.943359,0.395996,17.621952,12.378049,10.609756
1548455948380,0.150330,-0.957825,0.401733,19.878050,13.353659,12.743903
1548455948380,0.148560,-0.963501,0.402283,20.060976,14.329268,14.756098
1548455948387,0.153992,-0.956116,0.400635,17.378050,15.487805,16.524391
1548455948394,0.159119,-0.948486,0.397217,13.109756,16.158537,17.439024
1548455948417,0.160461,-0.942749,0.390015,8.841464,15.914635,17.439024
1548455948417,0.157104,-0.933777,0.382996,5.243903,14.512196,16.585365
1548455948447,0.149170,-0.923645,0.378479,2.560976,12.439025,15.121951
1548455948447,0.144165,-0.913696,0.377380,0.609756,10.365854,13.475610
1548455948448,0.139160,-0.905518,0.381287,-0.182927,8.841464,12.012196
1548455948455,0.129700,-0.907532,0.387329,0.182927,7.926829,11.158537
1548455948462,0.122437,-0.916138,0.394531,1.585366,7.804878,10.975610
1548455948485,0.118835,-0.922424,0.398560,3.231707,8.353659,11.341464
1548455948499,0.114929,-0.925537,0.402466,4.329268,9.329268,11.829268
1548455948500,0.114868,-0.928284,0.406555,4.817073,10.182927,12.012196
1548455948515,0.115051,-0.928894,0.408569,4.756098,10.365854,11.646341
1548455948515,0.115967,-0.931824,0.410400,4.085366,10.304878,11.036586
1548455948522,0.110291,-0.935547,0.413940,3.353659,9.939025,10.487805
1548455948552,0.105103,-0.935608,0.415100,2.682927,9.695122,10.487805
1548455948552,0.097839,-0.936340,0.414551,2.012195,9.878049,10.731708
1548455948553,0.095703,-0.935608,0.411926,1.524390,10.365854,11.341464
1548455948567,0.092896,-0.936035,0.411682,1.219512,11.097561,11.890244
1548455948589,0.092224,-0.940613,0.408630,1.158537,12.134147,12.317074
1548455948597,0.092834,-0.948608,0.408508,0.975610,13.109756,12.560976
1548455948597,0.091736,-0.951599,0.409180,0.182927,13.780488,12.926829
1548455948619,0.088379,-0.953247,0.411133,-1.036585,14.146341,13.292684
1548455948620,0.085815,-0.953308,0.414673,-2.378049,14.207317,13.902439
1548455948634,0.080505,-0.950256,0.414368,-3.353659,14.085366,14.695123
1548455948635,0.073364,-0.942078,0.411743,-3.353659,14.146341,15.792684
1548455948657,0.071228,-0.939026,0.407227,-2.804878,14.390244,16.951220
1548455948657,0.065857,-0.938416,0.407104,-1.585366,15.060976,17.987804
1548455948672,0.062195,-0.941101,0.406067,-0.121951,15.853659,18.902439
1548455948672,0.063354,-0.943420,0.406189,1.036585,16.646341,19.878050
1548455948695,0.061340,-0.946838,0.410339,1.768293,17.317074,20.731709
1548455948702,0.057800,-0.949829,0.413452,1.585366,17.865854,21.768293
1548455948702,0.051697,-0.950012,0.411377,0.792683,17.926830,22.682928
1548455948724,0.043396,-0.946350,0.410461,-0.060976,17.865854,23.353659
1548455948725,0.038635,-0.944153,0.408447,-0.670732,17.743902,23.902439
1548455948740,0.032104,-0.940430,0.409973,-0.975610,17.804878,24.390244
1548455948754,0.027466,-0.939148,0.410706,-0.975610,18.048780,24.939026
1548455948762,0.023438,-0.940857,0.409485,-0.731707,18.475611,25.731709
1548455948763,0.020630,-0.944824,0.409607,-0.243902,18.597561,26.463415
1548455948792,0.015198,-0.940918,0.409668,0.000000,18.536585,27.073172
1548455948793,0.006714,-0.939941,0.409729,0.304878,18.658537,27.682928
1548455948793,-0.000916,-0.943237,0.411682,0.914634,19.085367,28.292683
1548455948807,-0.007996,-0.945923,0.416199,1.707317,19.573172,29.390245
1548455948815,-0.017822,-0.950439,0.416321,2.560976,20.304878,30.792685
1548455948822,-0.024536,-0.948914,0.415222,3.170732,21.158537,32.195122
1548455948837,-0.032959,-0.946289,0.418640,3.292683,21.646341,33.536587
1548455948844,-0.038818,-0.948181,0.417480,3.109756,22.134148,34.451221
1548455948852,-0.046692,-0.948853,0.415833,2.682927,22.560976,35.000000
1548455948867,-0.052429,-0.949646,0.415649,2.439024,22.987806,35.609756
1548455948874,-0.058167,-0.949646,0.418152,2.560976,23.780489,36.219513
1548455948883,-0.065308,-0.950378,0.416626,2.500000,24.451220,37.073170
1548455948897,-0.072632,-0.946289,0.417236,2.195122,24.878050,37.804878
1548455948906,-0.080261,-0.939514,0.415405,2.195122,25.182928,38.658539
1548455948912,-0.088684,-0.935303,0.416382,2.378049,25.304878,39.329269
1548455948927,-0.095764,-0.936035,0.413147,2.987805,25.365854,39.939026
1548455948935,-0.105713,-0.941589,0.414673,3.902439,25.731709,40.548782
1548455948942,-0.113098,-0.943848,0.413574,4.695122,26.402439,41.341465
1548455948957,-0.122803,-0.942444,0.414673,4.939024,27.073172,42.256100
1548455948987,-0.133606,-0.933472,0.411499,4.573171,27.500000,43.170734
1548455948988,-0.141907,-0.925476,0.407227,4.756098,27.500000,43.658539
1548455948989,-0.147705,-0.926025,0.413269,5.365854,27.743902,43.841465
1548455948995,-0.158508,-0.933899,0.414551,5.914634,28.109756,43.902439
1548455949002,-0.168884,-0.934265,0.408997,6.036585,28.231709,44.085365
1548455949018,-0.173157,-0.928955,0.405884,5.426829,28.353659,44.146343
1548455949025,-0.180420,-0.919861,0.408569,4.451220,28.780489,43.841465
1548455949032,-0.189087,-0.911987,0.406555,3.719512,28.841465,43.475613
1548455949047,-0.197388,-0.911560,0.411682,3.597561,28.780489,43.353661
1548455949055,-0.212524,-0.915527,0.412781,3.780488,28.658537,43.658539
1548455949064,-0.221313,-0.914856,0.412842,4.207317,29.024391,44.573174
1548455949079,-0.228333,-0.913940,0.414673,4.878049,30.182928,45.487804
1548455949085,-0.237000,-0.913757,0.417969,5.304878,31.524391,46.219513
1548455949092,-0.251526,-0.911682,0.418823,5.365854,32.012196,46.829269
1548455949107,-0.260193,-0.913330,0.416199,5.243903,32.560978,47.256100
1548455949122,-0.270935,-0.915649,0.416443,5.182927,33.109756,47.621952
1548455949122,-0.284241,-0.914795,0.418152,4.817073,33.536587,48.048782
1548455949137,-0.294128,-0.908752,0.416626,4.085366,33.963417,48.597561
1548455949145,-0.304688,-0.902405,0.410034,3.414634,34.451221,49.329269
1548455949152,-0.315430,-0.899658,0.403625,3.597561,34.939026,49.939026
1548455949167,-0.322693,-0.896118,0.399475,4.268293,35.060978,50.121952
1548455949175,-0.330017,-0.893494,0.401123,4.756098,34.695122,49.329269
1548455949182,-0.339417,-0.898010,0.402954,5.121951,34.268295,48.719513
1548455949198,-0.350708,-0.899536,0.400513,5.182927,34.207317,48.719513
1548455949205,-0.357971,-0.893433,0.395325,5.426829,34.756100,49.085365
1548455949213,-0.363342,-0.884155,0.394958,5.487805,35.487804,49.024391
1548455949228,-0.375793,-0.874084,0.388855,5.426829,35.914635,49.207317
1548455949235,-0.392883,-0.867737,0.388489,5.365854,35.792683,50.182926
1548455949243,-0.403442,-0.863770,0.381226,5.548780,35.975609,51.158539
1548455949257,-0.412354,-0.861694,0.370544,5.975610,36.097561,51.280491
1548455949265,-0.416931,-0.859619,0.371582,6.219512,35.792683,50.121952
1548455949272,-0.422546,-0.859558,0.375854,5.914634,34.268295,47.987804
1548455949287,-0.428345,-0.858521,0.372375,4.512195,32.804878,46.707317
1548455949295,-0.434448,-0.844849,0.369507,2.987805,32.073170,46.097561
1548455949310,-0.442688,-0.831909,0.366394,2.317073,31.402439,44.878048
1548455949318,-0.455566,-0.826294,0.366760,2.439024,30.609756,43.719513
1548455949325,-0.468262,-0.821533,0.368530,3.475610,29.512196,43.109756
1548455949333,-0.481506,-0.825500,0.368042,5.000000,28.292683,42.073174
1548455949348,-0.491455,-0.825012,0.369690,5.975610,27.560976,40.792683
1548455949356,-0.495056,-0.820679,0.366577,6.585366,27.560976,40.426830
1548455949370,-0.496033,-0.817627,0.360596,6.646342,27.865854,40.000000
1548455949378,-0.501892,-0.808838,0.354553,6.280488,28.231709,39.695122
1548455949385,-0.511536,-0.807556,0.358582,6.219512,27.439026,38.597561
1548455949393,-0.526001,-0.810974,0.358398,6.280488,25.975611,36.951221
1548455949408,-0.533569,-0.815369,0.363403,6.646342,24.817074,35.426830
1548455949415,-0.536560,-0.814270,0.363342,6.402439,24.451220,33.902439
1548455949423,-0.541504,-0.807922,0.362305,5.609756,25.426830,34.634148
1548455949438,-0.545471,-0.795532,0.357666,4.939024,26.280489,35.670734
1548455949445,-0.551697,-0.783691,0.352661,4.695122,26.524391,35.000000
1548455949453,-0.561401,-0.775757,0.351013,5.060976,26.463415,34.451221
1548455949468,-0.570068,-0.775757,0.347595,6.097561,26.280489,34.085365
1548455949475,-0.577087,-0.780945,0.348816,7.378049,26.402439,33.353661
1548455949482,-0.584534,-0.781494,0.348450,8.048780,26.585367,32.500000
1548455949498,-0.589844,-0.779175,0.347839,8.048780,26.341463,31.158537
1548455949505,-0.585266,-0.767273,0.341919,7.560976,26.890245,30.731709
1548455949513,-0.589539,-0.756531,0.338562,7.134147,28.170732,31.036587
1548455949528,-0.598633,-0.748413,0.338867,7.560976,28.292683,30.487806
1548455949535,-0.612183,-0.744141,0.338928,8.475610,28.048780,29.329269
1548455949542,-0.622925,-0.744446,0.336731,9.756098,27.682928,27.439026
1548455949558,-0.627075,-0.745605,0.338501,10.182927,27.500000,25.304878
1548455949566,-0.633545,-0.743591,0.339233,10.426829,27.926830,24.024391
1548455949573,-0.639282,-0.742859,0.343323,10.731708,28.963415,22.439024
1548455949588,-0.630554,-0.735535,0.334351,11.585366,29.817074,20.853659
1548455949595,-0.631348,-0.724060,0.335999,12.439025,31.219513,20.365854
1548455949603,-0.647156,-0.724243,0.341125,13.536586,31.951220,20.243902
1548455949618,-0.644043,-0.720093,0.332581,15.609756,32.134148,18.414635
1548455949626,-0.648376,-0.720398,0.334595,16.951220,32.926830,17.073172
1548455949632,-0.660522,-0.726624,0.329651,17.621952,33.353661,16.402439
1548455949647,-0.655212,-0.721802,0.322937,18.414635,33.658539,15.365854
1548455949654,-0.658997,-0.721497,0.321716,18.536585,34.573170,15.060976
1548455949662,-0.659180,-0.712952,0.316650,18.780489,35.121952,14.573171
1548455949677,-0.660828,-0.709412,0.315918,19.573172,35.365856,14.146341
1548455949685,-0.671204,-0.711914,0.314819,20.060976,35.182926,13.536586
1548455949692,-0.668274,-0.710632,0.302917,20.792683,35.000000,12.439025
1548455949708,-0.673950,-0.711914,0.304871,20.975611,35.000000,11.341464
1548455949715,-0.687134,-0.716858,0.303711,20.243902,34.268295,10.609756
1548455949723,-0.680725,-0.709351,0.298340,20.060976,33.658539,9.573171
1548455949737,-0.679749,-0.706116,0.297546,19.756098,33.658539,8.963415
1548455949745,-0.676392,-0.702148,0.290100,19.695122,33.292683,8.231708
1548455949754,-0.678223,-0.697449,0.287354,19.512196,32.500000,7.743903
1548455949768,-0.687805,-0.696167,0.288940,18.597561,30.670732,7.134147
1548455949775,-0.682739,-0.690369,0.280762,17.987804,28.963415,6.524390
1548455949783,-0.680481,-0.685120,0.273987,17.134148,27.621952,5.670732
1548455949797,-0.686951,-0.685120,0.271973,15.975610,25.243902,4.634146
1548455949805,-0.682251,-0.685242,0.270081,14.634147,22.378050,2.865854
1548455949812,-0.685364,-0.684753,0.265625,13.414635,20.426830,1.219512
1548455949828,-0.688232,-0.685486,0.270630,11.951220,17.682928,0.000000
1548455949836,-0.694702,-0.684204,0.274048,10.548780,15.121951,-0.975610
1548455949843,-0.693298,-0.688904,0.277283,9.756098,13.597561,-2.195122
1548455949857,-0.698853,-0.691101,0.278748,8.719512,11.951220,-3.353659
1548455949865,-0.694580,-0.688049,0.279419,7.865854,10.792684,-4.756098
1548455949872,-0.697693,-0.694946,0.284851,7.134147,9.756098,-5.609756
1548455949888,-0.698059,-0.697998,0.284363,7.134147,8.597561,-6.097561
1548455949896,-0.693115,-0.696472,0.279541,7.378049,8.048780,-6.585366
1548455949903,-0.693665,-0.699097,0.283752,7.317073,7.317073,-6.707317
1548455949917,-0.695374,-0.700989,0.281128,6.463415,6.219512,-7.073171
1548455949925,-0.697693,-0.700012,0.286682,5.609756,5.000000,-7.378049
1548455949933,-0.692810,-0.702698,0.279236,5.243903,3.841464,-8.048780
1548455949948,-0.697266,-0.715637,0.283508,5.060976,3.170732,-8.414635
1548455949955,-0.694153,-0.719482,0.281494,4.878049,2.073171,-8.231708
1548455949962,-0.689758,-0.721436,0.284424,4.451220,1.463415,-7.804878
1548455949978,-0.690918,-0.724609,0.285583,3.353659,0.426829,-6.951220
1548455949986,-0.693237,-0.725708,0.282104,2.804878,-0.365854,-5.914634
1548455949993,-0.694763,-0.727539,0.283081,2.439024,-1.097561,-5.243903
1548455950008,-0.691406,-0.729553,0.273987,1.829268,-1.768293,-4.756098
1548455950015,-0.691772,-0.734497,0.280945,1.036585,-2.256098,-4.085366
1548455950023,-0.692017,-0.733521,0.288330,0.182927,-3.170732,-3.292683
1548455950038,-0.690735,-0.727356,0.290710,-0.121951,-3.231707,-2.621951
1548455950045,-0.693481,-0.722900,0.295410,-0.609756,-3.292683,-1.890244
1548455950053,-0.686951,-0.721497,0.295044,-0.609756,-3.231707,-0.975610
1548455950068,-0.685852,-0.723145,0.293945,-0.182927,-2.743902,0.060976
1548455950075,-0.687744,-0.721863,0.291565,-0.304878,-2.804878,1.097561
1548455950083,-0.688232,-0.718262,0.288940,-0.670732,-2.987805,1.707317
1548455950098,-0.692444,-0.718384,0.289734,-1.280488,-3.109756,2.378049
1548455950106,-0.694153,-0.715027,0.292908,-1.829268,-3.353659,2.987805
1548455950113,-0.694885,-0.715332,0.292725,-2.012195,-3.597561,3.353659
1548455950128,-0.693604,-0.713806,0.289429,-2.073171,-3.658537,3.475610
1548455950142,-0.693848,-0.711182,0.295166,-2.012195,-3.597561,3.353659
1548455950143,-0.694885,-0.712158,0.294189,-1.951220,-3.780488,3.292683
1548455950158,-0.694153,-0.710205,0.292236,-1.768293,-3.658537,3.109756
1548455950165,-0.693542,-0.702942,0.293274,-1.768293,-3.475610,2.987805
1548455950173,-0.694458,-0.701721,0.298584,-1.829268,-3.780488,2.926829
1548455950187,-0.695190,-0.702759,0.294617,-1.768293,-3.780488,2.621951
1548455950195,-0.690491,-0.699829,0.290161,-1.280488,-3.231707,2.012195
1548455950203,-0.694641,-0.702087,0.294678,-1.158537,-3.231707,2.012195
1548455950217,-0.694946,-0.702271,0.293579,-1.280488,-3.536585,1.890244
1548455950225,-0.696838,-0.701599,0.292053,-0.792683,-3.353659,1.890244
1548455950233,-0.696411,-0.702942,0.296631,-0.731707,-3.658537,1.463415
1548455950248,-0.700562,-0.708862,0.296814,-1.036585,-4.024390,1.097561
1548455950255,-0.697205,-0.702698,0.293274,-1.219512,-3.902439,0.548781
1548455950262,-0.695312,-0.702881,0.295776,-1.524390,-3.902439,0.060976
1548455950278,-0.696838,-0.702759,0.297607,-1.341463,-4.024390,-0.243902
1548455950285,-0.694946,-0.704285,0.295837,-0.670732,-3.963415,-0.426829
1548455950293,-0.696045,-0.705566,0.298096,-0.365854,-3.719512,-0.670732
1548455950308,-0.694519,-0.705444,0.295532,-0.609756,-3.719512,-0.853659
1548455950315,-0.691528,-0.705872,0.293945,-0.853659,-3.719512,-0.853659
1548455950323,-0.694519,-0.707642,0.298401,-0.914634,-3.780488,-0.731707
1548455950338,-0.691589,-0.707581,0.295105,-0.731707,-3.963415,-0.914634
1548455950345,-0.689697,-0.709106,0.295410,-0.731707,-3.963415,-1.219512
1548455950353,-0.691711,-0.710083,0.297729,-1.036585,-4.207317,-1.341463
1548455950367,-0.689270,-0.709900,0.297241,-1.097561,-4.329268,-1.585366
1548455950375,-0.688843,-0.710022,0.294739,-0.975610,-4.329268,-1.768293
1548455950383,-0.688843,-0.711243,0.295105,-1.463415,-4.817073,-1.890244
1548455950397,-0.689575,-0.709656,0.296692,-1.829268,-5.182927,-2.012195
1548455950405,-0.686890,-0.706360,0.293274,-1.951220,-5.609756,-2.256098
1548455950413,-0.683105,-0.708252,0.290771,-2.073171,-6.097561,-2.560976
1548455950427,-0.684692,-0.712524,0.294678,-2.256098,-6.646342,-2.743902
1548455950435,-0.684387,-0.713257,0.296265,-2.256098,-7.317073,-3.109756
1548455950443,-0.678894,-0.713257,0.292175,-2.621951,-7.804878,-3.536585
1548455950458,-0.679016,-0.714783,0.294861,-3.109756,-8.475610,-3.963415
1548455950465,-0.682312,-0.714355,0.294312,-3.780488,-9.390244,-4.329268
1548455950480,-0.673401,-0.710632,0.289551,-4.207317,-10.000000,-4.756098
1548455950488,-0.671326,-0.717529,0.290039,-4.817073,-10.548780,-4.939024
1548455950495,-0.673889,-0.719727,0.294617,-5.426829,-11.646341,-4.939024
1548455950502,-0.670105,-0.715698,0.290771,-5.975610,-12.743903,-4.939024
1548455950519,-0.666931,-0.716553,0.290100,-6.768293,-13.780488,-4.939024
1548455950525,-0.667603,-0.719849,0.291260,-7.682927,-15.060976,-5.060976
1548455950532,-0.667664,-0.720642,0.291321,-8.353659,-16.402439,-5.487805
1548455950548,-0.662598,-0.720642,0.293518,-8.780488,-17.560976,-6.097561
1548455950555,-0.659363,-0.718628,0.293457,-9.390244,-18.719513,-6.585366
1548455950563,-0.663330,-0.720947,0.297607,-9.817074,-19.695122,-6.829268
1548455950579,-0.664734,-0.726440,0.301270,-10.121951,-20.914635,-7.256098
1548455950585,-0.662109,-0.726746,0.302185,-10.365854,-21.890244,-8.109756
1548455950592,-0.658142,-0.731140,0.305908,-10.731708,-22.500000,-8.902439
1548455950607,-0.656250,-0.732971,0.307434,-11.097561,-23.475611,-9.451220
1548455950614,-0.653503,-0.734985,0.312927,-11.463415,-24.024391,-9.817074
1548455950622,-0.647949,-0.733459,0.311951,-11.646341,-24.268293,-9.939025
1548455950637,-0.638916,-0.735291,0.306030,-11.646341,-24.146341,-9.573171
1548455950645,-0.639221,-0.737671,0.311462,-11.951220,-24.268293,-9.024390
1548455950652,-0.639343,-0.735291,0.309448,-12.256098,-25.243902,-9.024390
1548455950667,-0.640076,-0.736877,0.315002,-12.560976,-26.158537,-9.512196
1548455950675,-0.645630,-0.736938,0.317810,-12.804878,-26.890245,-10.121951
1548455950682,-0.638062,-0.740723,0.319275,-12.621951,-27.682928,-11.829268
1548455950697,-0.627747,-0.739563,0.323303,-12.317074,-27.682928,-13.048780
1548455950705,-0.622925,-0.742188,0.323975,-12.012196,-27.073172,-13.170732
1548455950712,-0.622375,-0.743347,0.326050,-11.768293,-26.707317,-13.475610
1548455950727,-0.620544,-0.743225,0.327271,-11.463415,-26.890245,-13.658537
1548455950735,-0.617493,-0.744629,0.325867,-11.219512,-27.073172,-13.719513
1548455950742,-0.611694,-0.747742,0.322937,-11.219512,-27.378050,-14.329268
1548455950757,-0.608154,-0.752808,0.324097,-11.646341,-27.865854,-15.548780
1548455950765,-0.604858,-0.755127,0.327759,-12.012196,-28.658537,-17.378050
1548455950773,-0.601074,-0.762939,0.333130,-12.317074,-29.756098,-19.695122
1548455950787,-0.592407,-0.766479,0.343750,-12.804878,-30.243902,-21.463415
1548455950795,-0.588562,-0.765869,0.344849,-12.987805,-30.182928,-22.195122
1548455950802,-0.583862,-0.769409,0.349182,-12.439025,-29.451220,-22.134148
1548455950817,-0.585388,-0.769714,0.348206,-11.524390,-28.414635,-21.585367
1548455950825,-0.585388,-0.774475,0.348450,-10.487805,-27.987806,-21.463415
1548455950833,-0.585876,-0.777771,0.352234,-9.939025,-27.987806,-22.134148
1548455950847,-0.579468,-0.782349,0.353516,-9.329268,-28.048780,-22.926830
1548455950855,-0.572205,-0.796143,0.351868,-8.597561,-28.048780,-24.329269
1548455950862,-0.563965,-0.801147,0.354980,-8.292683,-27.317074,-25.243902
1548455950877,-0.555420,-0.802917,0.350098,-8.292683,-26.646341,-25.304878
1548455950885,-0.546936,-0.804016,0.349365,-8.475610,-26.219513,-25.609756
1548455950893,-0.541321,-0.799988,0.348328,-8.719512,-25.914635,-25.365854
1548455950907,-0.536438,-0.798157,0.345398,-9.024390,-25.792683,-25.000000
1548455950915,-0.530823,-0.797913,0.343018,-8.963415,-25.975611,-25.609756
1548455950922,-0.525513,-0.801880,0.339905,-8.719512,-26.585367,-26.829269
1548455950938,-0.521973,-0.807495,0.344849,-8.902439,-27.621952,-28.231709
1548455950945,-0.515015,-0.815430,0.347839,-8.841464,-28.536587,-29.634148
1548455950953,-0.505005,-0.825256,0.349243,-8.841464,-29.268293,-31.585367
1548455950967,-0.496460,-0.831543,0.361145,-9.573171,-30.000000,-33.414635
1548455950975,-0.491394,-0.832336,0.364136,-10.243902,-29.878050,-33.414635
1548455950982,-0.487061,-0.825684,0.356750,-10.914635,-28.597561,-32.073170
1548455950997,-0.482483,-0.817078,0.351318,-11.097561,-27.621952,-31.097561
1548455951005,-0.478455,-0.814453,0.350708,-10.731708,-27.865854,-31.524391
1548455951012,-0.471008,-0.817749,0.346497,-10.060976,-29.207317,-33.658539
1548455951027,-0.458008,-0.829712,0.346741,-9.268292,-31.402439,-37.500000
1548455951035,-0.449524,-0.845947,0.353943,-9.695122,-33.841465,-41.158539
1548455951042,-0.436890,-0.851257,0.355103,-11.280488,-35.853661,-44.146343
1548455951057,-0.421021,-0.852539,0.367432,-12.500000,-37.012196,-46.463417
1548455951065,-0.409058,-0.853455,0.375061,-13.048780,-37.134148,-47.682926
1548455951072,-0.407043,-0.847900,0.372803,-13.780488,-37.073170,-48.536587
1548455951095,-0.402954,-0.849182,0.372314,-13.841464,-36.890244,-49.085365
1548455951096,-0.401123,-0.852173,0.368835,-12.621951,-36.585365,-49.451221
1548455951102,-0.389038,-0.850525,0.362610,-10.853659,-36.341465,-50.365856
1548455951118,-0.372192,-0.861572,0.360535,-9.085366,-36.768295,-52.560978
1548455951125,-0.357788,-0.877930,0.364685,-7.926829,-38.353661,-55.853661
1548455951132,-0.342407,-0.891785,0.371216,-7.804878,-40.060978,-58.780491
1548455951148,-0.317322,-0.895020,0.376526,-8.353659,-40.975609,-60.853661
1548455951155,-0.301880,-0.896057,0.382324,-9.634147,-40.914635,-62.073174
1548455951162,-0.298950,-0.900879,0.386841,-11.219512,-41.402439,-62.073174
1548455951178,-0.298767,-0.900024,0.387207,-12.073171,-41.280487,-60.609756
1548455951185,-0.299316,-0.902466,0.380920,-11.768293,-40.304878,-58.780491
1548455951192,-0.286926,-0.900940,0.372925,-10.914635,-39.573174,-58.170734
1548455951207,-0.265869,-0.904602,0.372192,-9.573171,-39.512196,-59.329269
1548455951215,-0.242249,-0.919128,0.382935,-8.109756,-40.426830,-61.890244
1548455951222,-0.221802,-0.934143,0.386414,-7.378049,-41.158539,-63.963417
1548455951237,-0.211914,-0.947693,0.386658,-7.317073,-41.036587,-64.085365
1548455951245,-0.208557,-0.950745,0.385986,-7.682927,-40.060978,-62.682930
1548455951253,-0.207031,-0.943665,0.386047,-8.109756,-38.597561,-59.878052
1548455951267,-0.206421,-0.939026,0.385986,-8.170732,-37.439026,-57.195122
1548455951275,-0.200378,-0.940552,0.383484,-7.621952,-36.707317,-56.097561
1548455951282,-0.183289,-0.947571,0.383911,-6.341464,-35.914635,-56.585365
1548455951298,-0.163025,-0.958679,0.383911,-5.365854,-34.878048,-57.743904
1548455951305,-0.136902,-0.965698,0.385803,-5.365854,-33.719513,-58.353661
1548455951313,-0.117065,-0.966064,0.385559,-6.341464,-32.987804,-57.804878
1548455951328,-0.104004,-0.968140,0.389160,-7.682927,-32.560978,-56.219513
1548455951335,-0.102539,-0.968628,0.389465,-8.292683,-32.134148,-54.451221
1548455951343,-0.104797,-0.967346,0.391602,-7.621952,-31.158537,-51.890244
1548455951358,-0.110901,-0.969849,0.390137,-6.280488,-29.390245,-48.658539
1548455951366,-0.111572,-0.976074,0.382507,-5.182927,-27.500000,-45.365856
1548455951373,-0.102539,-0.971924,0.372559,-3.963415,-26.097561,-43.170734
1548455951388,-0.080261,-0.969788,0.371216,-2.743902,-25.000000,-42.560978
1548455951395,-0.055725,-0.971375,0.376099,-2.560976,-24.756098,-42.987804
1548455951403,-0.034973,-0.973022,0.377075,-2.987805,-25.426830,-43.597561
1548455951418,-0.022156,-0.975464,0.378479,-3.780488,-26.158537,-43.414635
1548455951426,-0.021729,-0.979919,0.380432,-4.817073,-26.402439,-41.768295
1548455951433,-0.029541,-0.977295,0.382690,-5.731708,-25.731709,-39.024391
1548455951448,-0.033997,-0.970093,0.377319,-5.426829,-24.695122,-35.548782
1548455951463,-0.033813,-0.968933,0.368896,-4.451220,-23.475611,-33.109756
1548455951463,-0.021912,-0.964355,0.369385,-3.048780,-22.195122,-32.134148
1548455951478,-0.002930,-0.963135,0.371460,-1.951220,-20.853659,-31.890245
1548455951517,0.015015,-0.971375,0.374695,-1.768293,-19.695122,-31.463415
1548455951518,0.017456,-0.978394,0.380127,-2.073171,-19.146341,-30.243902
1548455951518,0.015869,-0.974487,0.380615,-2.195122,-19.207317,-28.231709
1548455951537,0.012146,-0.969177,0.379700,-1.951220,-19.268293,-25.792683
1548455951553,0.008728,-0.968567,0.379333,-1.829268,-18.963415,-23.719513
1548455951554,0.009155,-0.965698,0.373779,-1.707317,-18.414635,-22.317074
1548455951554,0.020996,-0.961426,0.364563,-1.402439,-17.317074,-21.524391
1548455951569,0.033875,-0.961121,0.362610,-1.219512,-16.158537,-21.158537
1548455951569,0.048767,-0.961487,0.361816,-1.219512,-15.548780,-20.975611
1548455951575,0.054688,-0.957520,0.361572,-1.158537,-15.243903,-20.487804
1548455951582,0.060852,-0.955566,0.365051,-0.670732,-15.060976,-19.573172
1548455951620,0.062012,-0.956360,0.370605,-0.609756,-14.756098,-18.536585
1548455951620,0.061401,-0.956238,0.369873,-0.609756,-14.695123,-17.439024
1548455951621,0.056702,-0.956421,0.366455,-0.548781,-14.756098,-16.341463
1548455951642,0.056519,-0.955200,0.364380,-0.365854,-14.573171,-15.853659
1548455951643,0.059875,-0.950562,0.359741,-0.365854,-14.451220,-16.158537
1548455951688,0.067078,-0.946167,0.358398,-0.426829,-14.329268,-16.951220
1548455951688,0.079346,-0.943237,0.360901,-0.304878,-14.329268,-17.865854
1548455951689,0.088684,-0.939209,0.358948,0.000000,-14.329268,-18.780489
1548455951710,0.099243,-0.938049,0.362244,0.365854,-14.512196,-19.451220
1548455951711,0.107117,-0.941467,0.364929,0.487805,-14.451220,-19.573172
1548455951711,0.104187,-0.947998,0.366211,0.426829,-14.329268,-19.024391
1548455951718,0.097839,-0.951782,0.366699,0.304878,-14.451220,-18.292683
1548455951725,0.089050,-0.949097,0.361206,0.121951,-14.573171,-17.743902
1548455951725,0.084595,-0.943787,0.358032,-0.304878,-14.756098,-17.682928
1548455951778,0.089172,-0.943054,0.356262,-0.792683,-15.000000,-18.231709
1548455951778,0.096802,-0.945984,0.355774,-0.975610,-15.365854,-19.268293
1548455951779,0.109924,-0.955872,0.356689,-0.426829,-15.487805,-20.365854
1548455951785,0.123535,-0.969299,0.360107,0.243902,-15.670732,-20.670732
1548455951786,0.133301,-0.981995,0.360229,0.365854,-15.853659,-19.939024
1548455951787,0.135803,-0.989014,0.362244,-0.060976,-15.731708,-17.865854
1548455951793,0.132507,-0.992126,0.359985,-1.402439,-15.304878,-14.817074
1548455951816,0.127625,-0.986450,0.354004,-2.743902,-14.390244,-11.463415
1548455951817,0.123108,-0.975586,0.349609,-3.048780,-13.353659,-8.597561
1548455951830,0.123962,-0.960266,0.343201,-1.768293,-12.621951,-6.219512
1548455951852,0.127930,-0.945557,0.344116,0.853659,-11.951220,-4.146341
1548455951852,0.134583,-0.941284,0.346375,3.963415,-11.341464,-2.378049
1548455951854,0.138916,-0.945801,0.353210,7.012195,-10.487805,-0.914634
1548455951917,0.140930,-0.953003,0.357910,8.902439,-9.268292,0.548781
1548455951917,0.139893,-0.953125,0.362122,9.512196,-8.109756,1.951220
1548455951917,0.136536,-0.945557,0.366455,9.024390,-7.500000,2.865854
1548455951917,0.134888,-0.935242,0.367004,7.621952,-7.317073,2.743902
1548455951927,0.136292,-0.927979,0.369263,6.097561,-7.317073,2.256098
1548455951928,0.136292,-0.925232,0.374451,4.634146,-7.439024,1.158537
1548455951929,0.136597,-0.924011,0.378540,3.597561,-7.439024,0.060976
1548455951954,0.138794,-0.926025,0.383179,2.804878,-7.012195,-0.670732
1548455951957,0.138855,-0.928955,0.382263,2.317073,-6.463415,-1.036585
1548455951958,0.140137,-0.928894,0.385010,1.768293,-5.731708,-1.158537
1548455951965,0.136902,-0.926697,0.383240,1.219512,-4.817073,-1.097561
1548455951989,0.138062,-0.926880,0.376770,0.914634,-4.085366,-1.036585
1548455952002,0.140137,-0.929932,0.376648,0.792683,-3.353659,-1.097561
1548455952024,0.141907,-0.934753,0.375244,0.914634,-2.743902,-1.402439
1548455952025,0.141479,-0.938965,0.371399,1.097561,-2.195122,-1.463415
1548455952026,0.143433,-0.941528,0.368225,1.036585,-1.768293,-1.463415
1548455952033,0.139709,-0.945068,0.365356,0.792683,-1.097561,-1.280488
1548455952033,0.137146,-0.948242,0.363281,0.365854,-0.609756,-1.036585
1548455952064,0.137390,-0.950256,0.364258,0.182927,-0.243902,-0.609756
1548455952064,0.136353,-0.947693,0.357178,-0.182927,0.060976,-0.243902
1548455952064,0.141052,-0.940613,0.352234,-0.365854,0.243902,-0.060976
1548455952092,0.145630,-0.940552,0.352173,-0.243902,0.243902,-0.304878
1548455952092,0.147949,-0.939636,0.351135,-0.060976,0.060976,-0.670732
1548455952093,0.147583,-0.938904,0.350464,0.243902,-0.304878,-0.853659
1548455952107,0.147095,-0.939270,0.347107,0.426829,-0.609756,-0.792683
1548455952129,0.147888,-0.937866,0.351257,0.426829,-1.036585,-0.731707
1548455952130,0.146973,-0.933105,0.355713,0.365854,-1.585366,-0.731707
1548455952137,0.147278,-0.933716,0.355530,0.365854,-1.890244,-0.731707
1548455952160,0.149536,-0.937683,0.359009,0.609756,-2.134146,-0.670732
1548455952167,0.148132,-0.940613,0.360535,0.853659,-2.317073,-0.487805
1548455952174,0.148560,-0.940308,0.362732,0.975610,-2.378049,-0.365854
1548455952175,0.146484,-0.934570,0.364258,0.731707,-2.500000,-0.243902
1548455952197,0.145325,-0.936646,0.365540,0.487805,-2.743902,-0.060976
1548455952197,0.143555,-0.937805,0.366638,0.731707,-2.865854,0.121951
1548455952204,0.143188,-0.938965,0.362061,1.280488,-2.743902,0.182927
1548455952227,0.145142,-0.939697,0.359680,1.402439,-2.560976,0.060976
1548455952227,0.147095,-0.942444,0.359131,1.402439,-2.317073,0.000000
1548455952234,0.149658,-0.943542,0.360901,1.341463,-2.134146,-0.365854
1548455952242,0.150635,-0.941650,0.361938,0.853659,-1.890244,-0.426829
1548455952272,0.150696,-0.936340,0.362793,0.304878,-1.646341,-0.304878
1548455952302,0.147034,-0.933105,0.365051,0.121951,-1.646341,-0.121951
1548455952303,0.143921,-0.933716,0.365784,0.121951,-1.829268,0.000000
1548455952304,0.141113,-0.937195,0.365479,0.609756,-1.829268,0.060976
1548455952333,0.142883,-0.937500,0.364014,1.036585,-1.768293,0.000000
1548455952333,0.146667,-0.937866,0.362488,0.914634,-1.707317,-0.426829
1548455952334,0.149658,-0.937927,0.362610,0.548781,-1.707317,-0.670732
1548455952347,0.147034,-0.937500,0.361694,0.182927,-1.646341,-0.548781
1548455952348,0.147400,-0.937195,0.360840,0.060976,-1.524390,-0.365854
1548455952349,0.145325,-0.935852,0.360535,0.000000,-1.707317,-0.243902
1548455952370,0.146851,-0.936462,0.359497,0.000000,-1.707317,-0.182927
1548455952370,0.147888,-0.936768,0.359924,0.060976,-1.646341,-0.121951
1548455952377,0.146667,-0.937622,0.360291,0.060976,-1.524390,-0.182927
1548455952385,0.147095,-0.938782,0.361450,0.243902,-1.402439,0.000000
1548455952408,0.146912,-0.940369,0.366272,0.243902,-1.219512,0.121951
1548455952409,0.148315,-0.942200,0.368958,0.121951,-0.975610,0.365854
1548455952415,0.150757,-0.940063,0.368225,0.182927,-0.670732,0.609756
1548455952437,0.149658,-0.935913,0.368042,0.182927,-0.304878,0.731707
1548455952438,0.148804,-0.937195,0.363770,0.243902,-0.243902,0.548781
1548455952445,0.149719,-0.939392,0.358765,0.304878,-0.426829,0.060976
1548455952452,0.149902,-0.938904,0.356079,0.121951,-0.609756,-0.060976
1548455952475,0.150146,-0.939514,0.357910,-0.060976,-0.670732,-0.182927
1548455952476,0.151367,-0.939697,0.359680,-0.243902,-0.731707,-0.182927
1548455952483,0.153503,-0.936951,0.357544,-0.304878,-0.853659,-0.243902
1548455952505,0.154053,-0.935913,0.357483,-0.365854,-0.914634,-0.365854
1548455952505,0.152039,-0.935547,0.355896,-0.487805,-0.975610,-0.365854
1548455952542,0.147827,-0.937256,0.355164,-0.365854,-1.158537,-0.243902
1548455952543,0.145386,-0.939209,0.356445,0.000000,-1.219512,0.121951
1548455952544,0.145508,-0.938477,0.356873,0.304878,-1.280488,0.487805
1548455952550,0.143188,-0.936829,0.358704,0.487805,-1.280488,0.487805
1548455952558,0.148071,-0.940491,0.359009,0.731707,-1.280488,0.365854
1548455952580,0.150024,-0.941528,0.356995,0.792683,-1.219512,0.243902
1548455952581,0.148621,-0.939941,0.356445,0.853659,-1.097561,0.182927
1548455952587,0.149902,-0.939148,0.357422,0.731707,-1.280488,0.182927
1548455952610,0.151672,-0.937012,0.361084,0.548781,-1.463415,0.060976
1548455952617,0.148560,-0.935242,0.361450,0.243902,-1.585366,0.060976
1548455952618,0.150024,-0.935242,0.362061,0.000000,-1.646341,0.000000
1548455952626,0.148865,-0.935486,0.361511,0.000000,-1.585366,0.060976
1548455952648,0.149963,-0.933105,0.359985,0.121951,-1.463415,0.121951
1548455952648,0.149963,-0.935669,0.360413,0.060976,-1.280488,0.182927
1548455952656,0.148315,-0.936768,0.365540,0.304878,-1.097561,0.365854
1548455952663,0.149414,-0.938477,0.364685,0.548781,-0.914634,0.365854
1548455952685,0.149292,-0.938049,0.361511,0.670732,-0.853659,0.243902
1548455952685,0.150757,-0.938904,0.361633,0.792683,-0.731707,0.182927
1548455952692,0.149536,-0.938782,0.361206,0.792683,-0.792683,0.182927
1548455952715,0.150085,-0.936340,0.358704,0.548781,-0.792683,0.182927
1548455952716,0.147949,-0.936829,0.361450,0.365854,-0.731707,0.304878
1548455952722,0.149231,-0.936646,0.361389,0.243902,-0.609756,0.426829
1548455952753,0.149658,-0.937683,0.360596,0.243902,-0.792683,0.426829
1548455952753,0.148804,-0.933960,0.363037,0.243902,-0.853659,0.304878
1548455952753,0.149963,-0.933105,0.357117,0.243902,-1.036585,0.304878
1548455952790,0.150269,-0.935364,0.356567,0.304878,-1.036585,0.365854
1548455952790,0.148804,-0.936584,0.357178,0.426829,-0.975610,0.365854
1548455952797,0.149780,-0.937927,0.359741,0.609756,-0.853659,0.426829
1548455952798,0.147156,-0.939270,0.363586,0.914634,-0.731707,0.548781
1548455952820,0.146545,-0.940002,0.361450,0.975610,-0.670732,0.548781
1548455952820,0.150635,-0.942200,0.362488,0.853659,-0.609756,0.426829
1548455952835,0.151733,-0.941223,0.361633,0.731707,-0.670732,0.304878
1548455952835,0.151123,-0.941345,0.360046,0.609756,-0.609756,0.121951
1548455952858,0.151611,-0.941345,0.357422,0.365854,-0.792683,0.243902
1548455952858,0.150269,-0.939453,0.356750,0.182927,-0.731707,0.426829
1548455952865,0.151794,-0.936401,0.357117,0.121951,-0.426829,0.548781
1548455952888,0.151367,-0.933167,0.356934,0.000000,-0.426829,0.548781
1548455952888,0.148621,-0.933228,0.355591,0.000000,-0.182927,0.792683
1548455952895,0.146362,-0.931580,0.358643,0.487805,-0.121951,1.036585
1548455952903,0.143616,-0.931152,0.359863,0.914634,-0.060976,1.158537
1548455952926,0.144897,-0.936584,0.358704,1.280488,0.060976,0.975610
1548455952926,0.146973,-0.937866,0.360229,1.524390,0.182927,0.731707
1548455952932,0.147888,-0.936951,0.361816,1.280488,0.487805,0.548781
1548455952955,0.148499,-0.938293,0.360413,0.914634,0.548781,0.487805
1548455952962,0.147644,-0.939453,0.366333,0.609756,0.609756,0.548781
1548455952963,0.144043,-0.940247,0.369934,0.243902,0.670732,0.609756
1548455952993,0.140808,-0.936646,0.368835,0.000000,0.548781,0.792683
1548455952994,0.145752,-0.932007,0.368530,-0.060976,0.548781,0.914634
1548455952994,0.153259,-0.931091,0.368225,0.121951,0.548781,1.097561
1548455953007,0.155212,-0.936707,0.362976,0.365854,0.731707,1.097561
1548455953030,0.154175,-0.937012,0.357544,0.304878,1.036585,1.036585
1548455953030,0.151123,-0.934814,0.358398,0.365854,0.975610,1.158537
1548455953038,0.143372,-0.933350,0.361450,0.548781,0.731707,1.280488
1548455953061,0.136597,-0.933838,0.361511,0.853659,0.548781,1.219512
1548455953061,0.132080,-0.937012,0.363464,1.158537,0.487805,1.158537
1548455953067,0.130615,-0.941711,0.361511,1.341463,0.609756,0.914634
1548455953075,0.130737,-0.943298,0.360718,1.219512,1.036585,0.548781
1548455953098,0.134460,-0.944092,0.359985,0.914634,1.463415,0.304878
1548455953099,0.139160,-0.944946,0.359741,0.426829,1.646341,0.060976
1548455953105,0.141724,-0.943726,0.361572,-0.060976,1.768293,-0.060976
1548455953115,0.142517,-0.941650,0.361328,-0.731707,1.646341,0.121951
1548455953148,0.141052,-0.938416,0.361145,-1.097561,1.646341,0.304878
1548455953148,0.142395,-0.937683,0.362976,-0.792683,1.890244,0.548781
1548455953149,0.146545,-0.938538,0.364014,-0.243902,2.317073,0.731707
1548455953165,0.145630,-0.940063,0.361633,0.487805,2.682927,0.853659
1548455953166,0.147217,-0.940979,0.359680,0.975610,2.743902,0.853659
1548455953172,0.145813,-0.944580,0.362305,1.036585,2.743902,0.792683
1548455953202,0.143738,-0.947144,0.365234,1.341463,2.560976,0.792683
1548455953203,0.144104,-0.944397,0.368591,1.524390,2.621951,1.036585
1548455953204,0.141235,-0.945190,0.367188,1.646341,2.621951,1.402439
1548455953217,0.141479,-0.947083,0.368713,2.195122,2.743902,1.646341
1548455953232,0.140320,-0.951538,0.369507,2.987805,3.231707,2.012195
1548455953233,0.135559,-0.952271,0.370850,3.475610,3.597561,2.560976
1548455953247,0.132019,-0.947693,0.368896,3.475610,3.780488,3.292683
1548455953270,0.126587,-0.941223,0.367371,3.597561,3.902439,3.780488
1548455953270,0.128052,-0.934631,0.371643,4.146341,4.573171,4.207317
1548455953277,0.128357,-0.933838,0.373657,5.060976,5.304878,4.817073
1548455953284,0.128784,-0.933289,0.372864,5.975610,5.548780,5.243903
1548455953307,0.128357,-0.932251,0.369568,6.707317,5.548780,5.426829
1548455953307,0.124878,-0.935608,0.370300,7.134147,5.792683,5.731708
1548455953315,0.124329,-0.939026,0.375427,7.560976,6.463415,6.524390
1548455953337,0.126343,-0.941406,0.378662,7.743903,7.012195,7.317073
1548455953338,0.125977,-0.937317,0.380615,7.500000,7.439024,7.926829
1548455953345,0.126587,-0.934326,0.387390,6.707317,7.682927,8.292683
1548455953352,0.123596,-0.933228,0.392395,6.097561,7.987805,8.658537
1548455953375,0.116699,-0.931824,0.391785,5.853659,8.292683,9.329268
1548455953376,0.108459,-0.929871,0.387573,5.853659,8.719512,10.121951
1548455953383,0.101440,-0.929016,0.392761,5.792683,9.329268,10.975610
