timestamp, accel_x, accel_y, accel_z, gyro_x, gyro_y, gyro_z
1548455754891,0.072693,-0.876099,0.497986,-0.060976,-1.158537,0.304878
1548455754892,0.074219,-0.886658,0.507141,0.182927,-0.975610,0.304878
1548455754892,0.075562,-0.884033,0.504150,0.487805,-0.914634,0.304878
1548455754892,0.072571,-0.882996,0.505432,0.487805,-1.158537,0.304878
1548455754905,0.070862,-0.881775,0.504639,0.487805,-1.158537,0.365854
1548455754924,0.071350,-0.881958,0.503601,0.426829,-1.158537,0.304878
1548455754924,0.071960,-0.883179,0.502808,0.365854,-1.036585,0.365854
1548455754934,0.072571,-0.885376,0.503296,0.304878,-0.670732,0.304878
1548455754938,0.073608,-0.886597,0.501221,0.365854,-0.609756,0.243902
1548455754946,0.072937,-0.888977,0.501953,0.243902,-0.731707,0.121951
1548455754983,0.073425,-0.889038,0.499756,0.121951,-0.731707,0.121951
1548455754984,0.071594,-0.887024,0.500671,-0.060976,-0.853659,0.182927
1548455754984,0.072021,-0.883667,0.499634,-0.304878,-0.792683,0.182927
1548455754991,0.071594,-0.882812,0.497742,-0.182927,-0.670732,0.000000
1548455754998,0.075195,-0.883057,0.499878,0.121951,-0.609756,-0.060976
1548455755006,0.077332,-0.882874,0.500916,0.487805,-0.548781,0.060976
1548455755043,0.076233,-0.883789,0.499634,0.792683,-0.548781,0.121951
1548455755043,0.075684,-0.888062,0.503601,0.975610,-0.609756,0.000000
1548455755043,0.077454,-0.892395,0.505798,1.097561,-0.670732,0.121951
1548455755051,0.075989,-0.890747,0.501465,0.792683,-0.731707,0.000000
1548455755058,0.076965,-0.889465,0.499451,0.243902,-0.670732,0.182927
1548455755066,0.072021,-0.886292,0.498474,-0.243902,-0.731707,0.243902
1548455755081,0.070312,-0.882935,0.498230,-0.487805,-0.914634,0.365854
1548455755088,0.070679,-0.881531,0.498779,-0.426829,-0.975610,0.243902
1548455755096,0.071716,-0.881042,0.499573,0.000000,-0.731707,0.121951
1548455755111,0.075195,-0.886902,0.499329,0.487805,-0.609756,0.060976
1548455755118,0.079468,-0.890625,0.499817,1.097561,-0.426829,0.000000
1548455755126,0.080811,-0.889221,0.502991,1.280488,-0.487805,0.182927
1548455755149,0.079163,-0.886475,0.505188,1.280488,-0.792683,0.548781
1548455755149,0.075928,-0.888306,0.503845,0.914634,-1.280488,0.914634
1548455755155,0.072083,-0.891052,0.503418,0.609756,-1.524390,1.097561
1548455755171,0.072632,-0.893982,0.505371,0.365854,-1.158537,0.792683
1548455755178,0.074341,-0.892456,0.505310,-0.121951,-0.670732,0.609756
1548455755193,0.073792,-0.888245,0.501526,-0.975610,-0.487805,0.792683
1548455755201,0.071838,-0.884827,0.502747,-1.585366,-0.487805,0.975610
1548455755208,0.071777,-0.884827,0.501282,-1.707317,-0.609756,1.036585
1548455755216,0.071777,-0.885437,0.497864,-1.402439,-0.609756,0.914634
1548455755231,0.073730,-0.886963,0.499451,-1.097561,-0.487805,0.853659
1548455755253,0.077637,-0.883728,0.499329,-0.914634,-0.365854,1.036585
1548455755254,0.079346,-0.884399,0.499695,-0.914634,-0.426829,1.341463
1548455755261,0.078064,-0.885620,0.499634,-0.792683,-0.853659,1.707317
1548455755268,0.074402,-0.887756,0.500732,-0.609756,-1.280488,1.890244
1548455755276,0.069214,-0.889282,0.503601,-0.670732,-1.524390,2.073171
1548455755291,0.066162,-0.890991,0.503235,-0.853659,-1.158537,2.012195
1548455755315,0.068054,-0.891479,0.504700,-0.914634,-0.426829,2.012195
1548455755316,0.070679,-0.888550,0.506042,-1.097561,0.060976,2.012195
1548455755322,0.074158,-0.889893,0.502502,-1.402439,0.060976,1.768293
1548455755328,0.073853,-0.889160,0.501099,-1.768293,-0.182927,1.585366
1548455755336,0.072144,-0.892029,0.500854,-2.378049,-0.609756,1.463415
1548455755365,0.069702,-0.894104,0.498474,-2.560976,-0.792683,1.646341
1548455755366,0.067017,-0.898254,0.500610,-2.621951,-0.914634,1.768293
1548455755373,0.067993,-0.896545,0.501099,-2.987805,-0.731707,2.012195
1548455755381,0.068481,-0.892578,0.497070,-3.536585,-0.304878,2.073171
1548455755388,0.068298,-0.893311,0.494507,-4.329268,-0.243902,2.134146
1548455755396,0.065491,-0.894531,0.495728,-4.817073,-0.243902,2.256098
1548455755426,0.065308,-0.894470,0.497498,-4.817073,-0.182927,2.317073
1548455755426,0.067627,-0.895386,0.496643,-4.695122,0.060976,2.256098
1548455755427,0.067871,-0.897034,0.493958,-4.573171,0.365854,2.439024
1548455755441,0.068909,-0.898926,0.491516,-4.695122,0.304878,2.439024
1548455755448,0.067688,-0.898499,0.491455,-5.000000,0.304878,2.439024
1548455755466,0.066650,-0.899963,0.489990,-5.304878,0.121951,2.926829
1548455755482,0.066711,-0.902710,0.491577,-5.670732,0.060976,3.536585
1548455755483,0.064087,-0.902893,0.489319,-5.914634,0.121951,4.085366
1548455755486,0.060364,-0.902344,0.490112,-6.585366,0.182927,4.329268
1548455755501,0.062622,-0.902954,0.487549,-7.621952,0.182927,4.573171
1548455755508,0.062683,-0.900574,0.481567,-8.292683,0.731707,5.243903
1548455755538,0.062988,-0.901855,0.481567,-8.048780,1.219512,5.975610
1548455755539,0.061768,-0.902649,0.482422,-8.597561,1.219512,6.463415
1548455755539,0.057129,-0.899170,0.477417,-8.597561,0.914634,6.524390
1548455755547,0.055603,-0.898438,0.474548,-8.048780,0.426829,6.829268
1548455755565,0.058472,-0.897949,0.474182,-7.743903,0.731707,7.500000
1548455755568,0.059692,-0.899231,0.468445,-7.621952,1.219512,8.048780
1548455755591,0.058472,-0.900146,0.469421,-7.317073,1.341463,8.292683
1548455755591,0.054932,-0.900818,0.471436,-7.012195,1.097561,8.292683
1548455755599,0.055054,-0.901245,0.466492,-6.768293,0.731707,8.353659
1548455755606,0.053162,-0.901245,0.463440,-6.463415,0.792683,8.841464
1548455755622,0.049438,-0.907349,0.465576,-5.853659,0.121951,9.634147
1548455755628,0.046082,-0.912354,0.466675,-5.304878,-0.426829,10.304878
1548455755651,0.040955,-0.911255,0.464355,-4.939024,-0.853659,10.365854
1548455755651,0.035522,-0.910217,0.471863,-4.817073,-1.341463,10.426829
1548455755662,0.035950,-0.915100,0.459045,-4.451220,-1.036585,10.853659
1548455755666,0.034241,-0.908691,0.464600,-3.780488,0.304878,11.524390
1548455755682,0.035767,-0.907043,0.468689,-3.902439,0.609756,12.378049
1548455755706,0.041809,-0.915466,0.465820,-4.268293,1.097561,12.926829
1548455755706,0.040894,-0.922485,0.467957,-4.329268,1.158537,13.048780
1548455755711,0.033325,-0.927551,0.470642,-3.963415,0.609756,13.170732
1548455755719,0.024292,-0.924133,0.470032,-4.573171,-0.182927,13.902439
1548455755733,0.018799,-0.921875,0.464355,-5.304878,-0.060976,14.939025
1548455755741,0.015869,-0.917419,0.466125,-6.341464,0.548781,16.158537
1548455755749,0.012695,-0.912842,0.469055,-6.646342,0.853659,17.195122
1548455755759,0.009155,-0.911682,0.463440,-6.402439,0.914634,17.743902
1548455755771,0.010193,-0.919189,0.457642,-6.036585,1.463415,18.231709
1548455755778,0.010010,-0.929565,0.464966,-5.914634,2.621951,18.719513
1548455755786,0.005005,-0.931641,0.471436,-5.426829,2.743902,20.060976
1548455755801,-0.001038,-0.932678,0.469421,-4.329268,3.292683,21.463415
1548455755815,0.001587,-0.930054,0.461304,-3.658537,4.207317,22.804878
1548455755816,-0.002136,-0.912476,0.465881,-2.682927,5.121951,24.024391
1548455755831,-0.002136,-0.915039,0.461548,-0.731707,5.060976,25.000000
1548455755838,-0.001221,-0.919250,0.457458,0.487805,5.487805,25.426830
1548455755846,-0.010498,-0.918762,0.460266,1.158537,5.182927,26.158537
1548455755861,-0.022034,-0.916809,0.464233,2.804878,3.719512,26.707317
1548455755868,-0.026855,-0.926331,0.460938,4.268293,4.207317,26.768293
1548455755876,-0.033081,-0.927368,0.467712,4.512195,4.573171,27.195122
1548455755891,-0.038086,-0.925476,0.465149,4.451220,4.634146,28.048780
1548455755898,-0.051758,-0.920288,0.471191,5.000000,4.451220,28.292683
1548455755905,-0.056152,-0.919189,0.467773,4.207317,4.146341,28.902439
1548455755922,-0.057861,-0.930786,0.457092,3.902439,6.768293,28.658537
1548455755928,-0.065430,-0.936523,0.458252,3.353659,6.707317,30.121952
1548455755936,-0.065186,-0.944336,0.453979,1.158537,7.073171,30.914635
1548455755951,-0.060059,-0.924622,0.463928,-3.048780,8.597561,30.060976
1548455755958,-0.060181,-0.900513,0.458740,-6.585366,8.292683,29.573172
1548455755966,-0.069458,-0.896606,0.460876,-7.560976,7.134147,28.536587
1548455755981,-0.079041,-0.888977,0.464355,-8.170732,5.914634,27.682928
1548455755988,-0.091797,-0.879211,0.461060,-5.609756,5.426829,27.378050
1548455755996,-0.101013,-0.877502,0.456299,-1.280488,4.390244,27.560976
1548455756010,-0.101685,-0.896851,0.456848,2.682927,4.634146,27.256098
1548455756018,-0.101379,-0.895386,0.460205,4.207317,6.097561,26.585367
1548455756026,-0.102661,-0.895752,0.458801,5.914634,7.195122,25.792683
1548455756041,-0.104126,-0.899109,0.457886,6.219512,7.317073,24.878050
1548455756048,-0.108765,-0.901978,0.454346,5.914634,7.073171,23.963415
1548455756056,-0.122620,-0.907043,0.455566,5.060976,6.402439,23.048780
1548455756071,-0.129700,-0.914001,0.459839,2.926829,6.341464,22.134148
1548455756078,-0.133606,-0.910156,0.458069,1.219512,6.951220,21.402439
1548455756086,-0.135803,-0.903259,0.456116,-0.121951,6.829268,21.097561
1548455756101,-0.136108,-0.893250,0.462402,-1.219512,7.439024,20.609756
1548455756108,-0.137085,-0.896362,0.457764,-1.341463,7.987805,19.817074
1548455756116,-0.142822,-0.904663,0.455627,-0.426829,7.682927,19.329269
1548455756131,-0.144958,-0.905212,0.460754,-0.121951,7.560976,18.719513
1548455756138,-0.145386,-0.904053,0.457825,-1.036585,7.987805,18.170732
1548455756146,-0.145081,-0.903748,0.454102,-1.646341,8.292683,17.560976
1548455756160,-0.148193,-0.904968,0.450317,-2.439024,7.987805,16.951220
1548455756168,-0.154846,-0.901855,0.451416,-3.414634,7.134147,16.524391
1548455756175,-0.165344,-0.906189,0.453369,-3.719512,6.585366,16.402439
1548455756190,-0.174744,-0.905884,0.455322,-3.475610,6.280488,16.585365
1548455756198,-0.178711,-0.904358,0.455994,-2.743902,6.707317,17.073172
1548455756205,-0.184631,-0.909790,0.451782,-1.707317,7.682927,17.500000
1548455756220,-0.181946,-0.911072,0.450256,-1.097561,8.780488,17.500000
1548455756228,-0.180481,-0.913391,0.450012,-0.548781,9.878049,17.378050
1548455756236,-0.180847,-0.916870,0.451721,-0.182927,10.243902,17.621952
1548455756250,-0.181091,-0.911438,0.447815,-0.670732,10.426829,17.926830
1548455756258,-0.186340,-0.906128,0.449585,-1.097561,10.609756,18.475611
1548455756266,-0.190796,-0.901611,0.447144,-1.707317,10.426829,18.597561
1548455756280,-0.194763,-0.907288,0.442566,-1.890244,10.670732,18.658537
1548455756288,-0.197876,-0.909912,0.445496,-2.439024,10.548780,18.658537
1548455756295,-0.204590,-0.904541,0.441406,-2.743902,10.670732,18.475611
1548455756310,-0.211243,-0.893677,0.443420,-3.048780,10.853659,18.536585
1548455756318,-0.216431,-0.890869,0.442383,-2.926829,10.792684,18.658537
1548455756325,-0.215576,-0.891174,0.441223,-1.829268,10.914635,18.353659
1548455756341,-0.214417,-0.895508,0.439697,-0.914634,11.402439,17.804878
1548455756348,-0.215576,-0.894897,0.442078,-0.060976,11.341464,17.256098
1548455756355,-0.218018,-0.895569,0.437927,0.670732,10.975610,17.012196
1548455756370,-0.226135,-0.896606,0.437683,1.402439,10.487805,16.524391
1548455756378,-0.233765,-0.894836,0.438843,1.463415,9.695122,16.646341
1548455756385,-0.238464,-0.897400,0.436951,1.402439,9.329268,16.524391
1548455756400,-0.238342,-0.890564,0.436890,1.341463,9.329268,16.219513
1548455756408,-0.240906,-0.887268,0.439514,1.036585,9.146341,16.036585
1548455756415,-0.243958,-0.884644,0.438904,1.280488,9.024390,15.670732
1548455756430,-0.245605,-0.887817,0.435486,2.012195,8.841464,15.182927
1548455756438,-0.247314,-0.894470,0.434204,2.439024,8.719512,14.939025
1548455756446,-0.250854,-0.900208,0.438171,2.804878,8.170732,15.304878
1548455756460,-0.257385,-0.897217,0.438904,2.865854,7.621952,15.670732
1548455756468,-0.263245,-0.890564,0.438477,2.195122,7.621952,15.670732
1548455756476,-0.268066,-0.887085,0.437805,1.646341,7.621952,15.426829
1548455756490,-0.265930,-0.887024,0.440125,1.585366,7.256098,15.000000
1548455756498,-0.264099,-0.884216,0.440247,2.073171,7.256098,14.390244
1548455756506,-0.269043,-0.888489,0.439880,2.682927,6.829268,13.963415
1548455756520,-0.274658,-0.888611,0.437378,2.073171,6.646342,13.902439
1548455756528,-0.280457,-0.888306,0.437744,2.560976,6.402439,14.146341
1548455756535,-0.285645,-0.881409,0.439941,2.682927,6.463415,14.451220
1548455756551,-0.286621,-0.879578,0.441589,3.597561,6.585366,14.512196
1548455756558,-0.286316,-0.879578,0.442261,4.695122,6.585366,13.902439
1548455756565,-0.282288,-0.883240,0.445557,5.365854,6.402439,13.475610
1548455756580,-0.280396,-0.885681,0.442078,4.695122,6.524390,13.048780
1548455756588,-0.284973,-0.891602,0.436768,3.719512,6.585366,12.865854
1548455756595,-0.295471,-0.882629,0.441223,2.378049,6.280488,13.353659
1548455756610,-0.303528,-0.874268,0.438354,1.463415,5.792683,14.024390
1548455756618,-0.308289,-0.873535,0.438049,1.646341,5.670732,13.780488
1548455756626,-0.309998,-0.869751,0.442017,1.829268,5.914634,13.170732
1548455756640,-0.304871,-0.871216,0.441528,2.317073,5.914634,12.500000
1548455756648,-0.299561,-0.883484,0.437439,3.292683,6.341464,11.768293
1548455756656,-0.302429,-0.887451,0.441467,3.841464,6.463415,11.463415
1548455756671,-0.309143,-0.885925,0.442200,3.963415,5.670732,11.890244
1548455756678,-0.315308,-0.878357,0.441772,3.109756,5.487805,12.439025
1548455756685,-0.316956,-0.868591,0.445374,2.012195,5.914634,12.560976
1548455756700,-0.320496,-0.866882,0.441406,2.012195,6.158537,12.134147
1548455756708,-0.322205,-0.869019,0.441650,2.378049,6.585366,11.280488
1548455756716,-0.324280,-0.870972,0.440247,2.682927,6.768293,10.975610
1548455756738,-0.327637,-0.869995,0.439758,2.865854,7.073171,11.158537
1548455756739,-0.330505,-0.863831,0.437744,3.292683,7.195122,11.036586
1548455756746,-0.335327,-0.866577,0.441162,3.658537,7.195122,10.853659
1548455756761,-0.328735,-0.871094,0.438477,3.658537,7.073171,10.365854
1548455756768,-0.326416,-0.869751,0.440186,3.231707,6.951220,10.182927
1548455756776,-0.329529,-0.865417,0.440125,2.560976,6.585366,10.609756
1548455756791,-0.336243,-0.866150,0.436279,2.439024,5.975610,10.548780
1548455756798,-0.342102,-0.860596,0.442627,2.439024,5.548780,10.000000
1548455756806,-0.345581,-0.858093,0.444214,2.621951,5.487805,9.756098
1548455756821,-0.343750,-0.859070,0.442688,3.048780,6.036585,9.634147
1548455756828,-0.340393,-0.863892,0.448853,3.719512,6.585366,9.268292
1548455756835,-0.341431,-0.869995,0.450256,3.963415,6.524390,9.146341
1548455756851,-0.348145,-0.872681,0.447693,3.658537,6.341464,9.268292
1548455756858,-0.356262,-0.870239,0.447388,3.048780,5.975610,9.756098
1548455756865,-0.364990,-0.864502,0.450745,2.378049,6.097561,10.548780
1548455756880,-0.370544,-0.865601,0.443909,2.439024,6.829268,10.792684
1548455756888,-0.368896,-0.861450,0.447754,3.475610,7.926829,10.914635
1548455756895,-0.361206,-0.864319,0.443970,4.268293,8.475610,10.609756
1548455756910,-0.355408,-0.875427,0.435913,4.573171,9.085366,10.243902
1548455756918,-0.360352,-0.878967,0.438660,4.024390,8.963415,10.426829
1548455756925,-0.362305,-0.872925,0.436890,2.682927,8.353659,11.341464
1548455756940,-0.370483,-0.870483,0.434265,1.463415,8.353659,12.256098
1548455756948,-0.381653,-0.868408,0.438477,0.304878,8.048780,13.231708
1548455756955,-0.383972,-0.861816,0.438049,-1.463415,8.292683,13.719513
1548455756970,-0.378601,-0.850525,0.436829,-3.231707,8.841464,13.231708
1548455756978,-0.373535,-0.839844,0.431580,-4.451220,9.390244,12.256098
1548455756986,-0.374695,-0.840088,0.425232,-3.780488,9.817074,11.463415
1548455757001,-0.378174,-0.835693,0.431519,-2.317073,9.268292,11.158537
1548455757008,-0.381287,-0.831543,0.425964,-1.097561,8.170732,10.304878
1548455757016,-0.380981,-0.834290,0.430725,0.121951,7.439024,8.780488
1548455757030,-0.379089,-0.838867,0.429321,0.853659,7.073171,7.926829
1548455757038,-0.381287,-0.835815,0.426208,1.890244,7.195122,7.926829
1548455757045,-0.389893,-0.836670,0.427246,2.560976,6.768293,8.170732
1548455757061,-0.397461,-0.833984,0.426636,3.231707,5.975610,8.292683
1548455757068,-0.399658,-0.831299,0.423340,3.414634,5.487805,7.682927
1548455757076,-0.395508,-0.835938,0.426758,3.170732,5.548780,6.524390
1548455757091,-0.391418,-0.841614,0.428650,3.292683,5.243903,5.609756
1548455757098,-0.393127,-0.838135,0.426025,3.048780,4.451220,4.756098
1548455757106,-0.395447,-0.835571,0.425659,2.134146,3.536585,3.963415
1548455757120,-0.399414,-0.835449,0.426147,1.280488,2.682927,3.536585
1548455757128,-0.403809,-0.832092,0.427673,0.853659,1.951220,2.987805
1548455757135,-0.404297,-0.828857,0.428894,0.853659,1.097561,1.951220
1548455757151,-0.400146,-0.836548,0.427734,0.975610,0.487805,0.487805
1548455757158,-0.395691,-0.838684,0.428101,0.975610,0.121951,-0.975610
1548455757166,-0.394836,-0.836243,0.428345,1.158537,-0.243902,-1.585366
1548455757181,-0.401794,-0.836975,0.429688,1.585366,-0.548781,-1.463415
1548455757188,-0.407410,-0.839050,0.431458,1.951220,-0.853659,-0.975610
1548455757195,-0.409973,-0.842834,0.438965,2.195122,-0.792683,-0.731707
1548455757211,-0.406372,-0.845337,0.439758,2.621951,-0.426829,-0.670732
1548455757218,-0.401367,-0.847473,0.435791,2.743902,0.060976,-0.975610
1548455757226,-0.398926,-0.852234,0.433960,2.378049,0.365854,-1.341463
1548455757240,-0.398865,-0.852112,0.435669,1.707317,0.182927,-1.341463
1548455757248,-0.399353,-0.847412,0.435364,1.402439,-0.060976,-1.219512
1548455757256,-0.402405,-0.841370,0.433105,1.280488,-0.243902,-1.524390
1548455757271,-0.398132,-0.843140,0.433655,1.280488,-0.304878,-1.646341
1548455757278,-0.398071,-0.847351,0.434753,1.341463,-0.060976,-1.341463
1548455757285,-0.397095,-0.847412,0.437927,1.829268,0.182927,-1.463415
1548455757301,-0.397034,-0.848755,0.435608,2.073171,0.304878,-1.524390
1548455757308,-0.393188,-0.849731,0.432495,1.646341,0.487805,-1.524390
1548455757315,-0.388672,-0.847168,0.434998,0.975610,0.487805,-1.585366
1548455757331,-0.393738,-0.845581,0.430969,0.670732,0.426829,-1.402439
1548455757338,-0.399902,-0.841980,0.433105,0.975610,0.121951,-1.036585
1548455757353,-0.404785,-0.842957,0.434387,1.280488,-0.365854,-0.975610
1548455757361,-0.401123,-0.845520,0.433044,1.585366,-0.365854,-1.402439
1548455757368,-0.393921,-0.849731,0.432861,1.707317,-0.243902,-1.707317
1548455757376,-0.393738,-0.854248,0.434570,1.890244,-0.243902,-1.829268
1548455757391,-0.392090,-0.853638,0.433655,1.829268,-0.487805,-1.890244
1548455757398,-0.393188,-0.851685,0.434326,1.829268,-0.792683,-1.707317
1548455757406,-0.392761,-0.850891,0.436707,1.585366,-0.975610,-1.524390
1548455757421,-0.393677,-0.853271,0.437012,1.463415,-0.914634,-0.975610
1548455757428,-0.401489,-0.851929,0.438477,1.463415,-0.914634,-0.548781
1548455757436,-0.404358,-0.853333,0.440247,1.890244,-1.036585,-0.121951
1548455757450,-0.402954,-0.855774,0.436584,2.195122,-0.731707,0.121951
1548455757458,-0.398865,-0.853210,0.436829,1.951220,-0.365854,0.121951
1548455757466,-0.395752,-0.849365,0.437744,1.707317,-0.060976,0.182927
1548455757481,-0.397461,-0.847595,0.435486,1.402439,-0.060976,0.365854
1548455757488,-0.395386,-0.844910,0.433411,1.097561,-0.121951,0.609756
1548455757495,-0.393555,-0.845642,0.437439,1.036585,-0.243902,0.670732
1548455757511,-0.390564,-0.848999,0.441528,1.036585,-0.365854,0.914634
1548455757518,-0.393433,-0.849121,0.444885,1.097561,-0.548781,1.341463
1548455757526,-0.397766,-0.847656,0.443298,0.975610,-0.853659,1.524390
1548455757540,-0.400146,-0.844421,0.443542,0.548781,-1.097561,1.463415
1548455757548,-0.398865,-0.841553,0.444519,0.121951,-0.853659,1.341463
1548455757555,-0.395630,-0.841553,0.440613,0.060976,-0.609756,1.036585
1548455757593,-0.396912,-0.844543,0.439819,0.304878,-0.548781,0.609756
1548455757593,-0.397888,-0.845337,0.441406,0.670732,-0.670732,0.426829
1548455757594,-0.400391,-0.843811,0.442078,0.792683,-0.792683,0.426829
1548455757600,-0.401306,-0.845093,0.440857,0.670732,-0.853659,0.304878
1548455757608,-0.396973,-0.848694,0.437744,0.853659,-0.670732,-0.182927
1548455757615,-0.394287,-0.847534,0.435242,0.853659,-0.731707,-0.548781
1548455757631,-0.396301,-0.844971,0.436646,0.548781,-0.853659,-0.853659
1548455757638,-0.397217,-0.842957,0.438232,0.182927,-1.036585,-0.670732
1548455757645,-0.400330,-0.841492,0.436218,0.304878,-1.158537,-0.365854
1548455757661,-0.403076,-0.838989,0.437500,0.548781,-1.158537,-0.243902
1548455757668,-0.398621,-0.841980,0.440186,0.853659,-1.036585,-0.060976
1548455757698,-0.395569,-0.844055,0.440369,1.158537,-0.853659,-0.304878
1548455757698,-0.395996,-0.846741,0.440796,1.524390,-0.731707,-0.670732
1548455757699,-0.393860,-0.847778,0.439270,1.646341,-0.975610,-0.670732
1548455757705,-0.392090,-0.848267,0.438538,1.524390,-1.097561,-0.792683
1548455757721,-0.393677,-0.846802,0.438354,1.463415,-1.097561,-0.609756
1548455757728,-0.397156,-0.844177,0.438843,1.280488,-1.402439,-0.365854
1548455757735,-0.399780,-0.842651,0.437988,1.097561,-1.646341,-0.426829
1548455757751,-0.396362,-0.842163,0.440308,1.158537,-1.646341,-0.731707
1548455757758,-0.395569,-0.843384,0.441956,1.463415,-1.524390,-1.036585
1548455757765,-0.391846,-0.844360,0.439575,1.646341,-1.524390,-1.219512
1548455757781,-0.392334,-0.844910,0.441162,1.768293,-1.524390,-1.280488
1548455757788,-0.393433,-0.844849,0.440613,1.890244,-1.768293,-1.280488
1548455757795,-0.393982,-0.842834,0.442505,1.829268,-2.012195,-1.341463
1548455757810,-0.395447,-0.840759,0.444519,1.890244,-2.073171,-1.402439
1548455757818,-0.393372,-0.836975,0.442932,1.890244,-1.951220,-1.707317
1548455757825,-0.391113,-0.836243,0.439087,2.195122,-1.768293,-2.073171
1548455757840,-0.385376,-0.836975,0.441772,2.439024,-1.951220,-2.560976
1548455757848,-0.382202,-0.834290,0.440735,2.439024,-2.317073,-3.109756
1548455757855,-0.382812,-0.836487,0.440857,2.865854,-2.987805,-3.841464
1548455757870,-0.387207,-0.835327,0.440552,3.353659,-3.475610,-4.207317
1548455757878,-0.388184,-0.832458,0.442871,3.719512,-3.963415,-4.329268
1548455757886,-0.389282,-0.832520,0.443726,3.963415,-4.268293,-4.695122
1548455757908,-0.388367,-0.831482,0.443970,4.451220,-4.329268,-5.182927
1548455757909,-0.384216,-0.831787,0.444031,4.939024,-4.512195,-5.914634
1548455757915,-0.379944,-0.832581,0.443970,5.243903,-4.878049,-6.768293
1548455757931,-0.376892,-0.836365,0.446960,5.731708,-5.060976,-7.560976
1548455757938,-0.374939,-0.837830,0.450684,6.280488,-5.548780,-8.170732
1548455757946,-0.372253,-0.835083,0.452881,6.585366,-6.158537,-8.597561
1548455757968,-0.373291,-0.838501,0.453247,6.707317,-6.585366,-9.146341
1548455757983,-0.376343,-0.839111,0.455383,6.768293,-6.829268,-9.512196
1548455757983,-0.374756,-0.836365,0.456604,7.073171,-6.707317,-9.695122
1548455757990,-0.373413,-0.837708,0.456360,7.682927,-6.890244,-9.878049
1548455757998,-0.371643,-0.835205,0.453186,8.109756,-6.829268,-10.304878
1548455758006,-0.365967,-0.835999,0.453003,8.597561,-7.195122,-11.158537
1548455758021,-0.361206,-0.840881,0.454956,8.841464,-7.865854,-12.256098
1548455758028,-0.357788,-0.843018,0.463074,9.024390,-8.414635,-13.414635
1548455758036,-0.351562,-0.846619,0.467529,9.085366,-8.780488,-14.146341
1548455758051,-0.346252,-0.848511,0.465332,9.024390,-9.146341,-14.634147
1548455758058,-0.346313,-0.851196,0.470642,8.475610,-9.634147,-14.695123
1548455758066,-0.348999,-0.851318,0.470581,7.500000,-10.000000,-14.207317
1548455758081,-0.353577,-0.843567,0.472778,6.890244,-10.243902,-13.963415
1548455758088,-0.352417,-0.838745,0.472534,6.707317,-10.243902,-13.963415
1548455758096,-0.346252,-0.841309,0.470337,6.768293,-9.695122,-14.390244
1548455758111,-0.336121,-0.841858,0.472656,7.012195,-9.085366,-14.939025
1548455758118,-0.325439,-0.845459,0.474854,7.500000,-9.329268,-15.060976
1548455758125,-0.316467,-0.854309,0.477356,7.926829,-10.243902,-15.304878
1548455758141,-0.314026,-0.859985,0.481079,7.804878,-11.036586,-15.914635
1548455758148,-0.316833,-0.856750,0.483521,6.890244,-11.951220,-16.036585
1548455758155,-0.320984,-0.853577,0.482422,5.548780,-12.560976,-15.487805
1548455758170,-0.322815,-0.851868,0.482483,4.634146,-12.865854,-15.182927
1548455758178,-0.325012,-0.841309,0.490112,4.146341,-12.926829,-15.365854
1548455758185,-0.319519,-0.839111,0.491150,4.390244,-12.500000,-15.975610
1548455758200,-0.309204,-0.842834,0.484009,5.243903,-12.073171,-17.134148
1548455758208,-0.296509,-0.847351,0.481812,5.853659,-11.646341,-18.109756
1548455758215,-0.286438,-0.850708,0.486877,5.792683,-11.890244,-18.780489
1548455758230,-0.284180,-0.852661,0.487549,5.243903,-12.743903,-19.085367
1548455758238,-0.281372,-0.852356,0.487732,4.512195,-13.841464,-19.451220
1548455758245,-0.279602,-0.848694,0.492737,3.780488,-14.695123,-19.512196
1548455758260,-0.275024,-0.851990,0.495056,3.048780,-15.304878,-19.634148
1548455758268,-0.270813,-0.856384,0.492859,2.865854,-15.609756,-19.756098
1548455758275,-0.270081,-0.863892,0.494873,2.256098,-16.097561,-19.878050
1548455758290,-0.269897,-0.867188,0.499634,1.280488,-17.012196,-19.756098
1548455758298,-0.273315,-0.864502,0.504761,0.365854,-17.439024,-19.939024
1548455758305,-0.270447,-0.862000,0.510498,0.000000,-17.560976,-20.243902
1548455758320,-0.259155,-0.859558,0.514526,0.060976,-17.012196,-20.914635
1548455758328,-0.248230,-0.864136,0.513733,0.182927,-16.280489,-21.280489
1548455758335,-0.240417,-0.869995,0.509216,0.487805,-15.792684,-21.585367
1548455758350,-0.237183,-0.874512,0.511536,0.548781,-15.426829,-21.036587
1548455758358,-0.243591,-0.874207,0.514160,0.243902,-15.670732,-19.878050
1548455758366,-0.251465,-0.872437,0.516235,0.182927,-15.792684,-18.719513
1548455758380,-0.253540,-0.870605,0.516846,0.731707,-15.000000,-18.048780
1548455758388,-0.249756,-0.873962,0.520081,0.975610,-13.292684,-17.560976
1548455758395,-0.234497,-0.875671,0.514160,1.524390,-11.524390,-17.743902
1548455758410,-0.211670,-0.869812,0.509399,1.341463,-10.121951,-18.048780
1548455758418,-0.197021,-0.872375,0.509583,0.548781,-9.451220,-17.804878
1548455758426,-0.194641,-0.870667,0.512634,-0.060976,-10.365854,-17.256098
1548455758440,-0.204834,-0.867310,0.514343,-0.243902,-12.012196,-16.524391
1548455758448,-0.212708,-0.866333,0.516296,-0.182927,-13.109756,-16.219513
1548455758455,-0.214478,-0.866089,0.512817,-0.060976,-12.987805,-16.097561
1548455758470,-0.206055,-0.868652,0.507019,0.243902,-11.768293,-16.036585
1548455758478,-0.197571,-0.871521,0.505798,0.487805,-10.426829,-16.097561
1548455758485,-0.187622,-0.865723,0.504456,0.731707,-9.817074,-16.524391
1548455758500,-0.176636,-0.861267,0.505188,0.670732,-9.939025,-17.134148
1548455758508,-0.169006,-0.861389,0.502380,0.304878,-11.036586,-17.926830
1548455758516,-0.164795,-0.861328,0.504395,0.304878,-12.439025,-19.146341
1548455758531,-0.163208,-0.863647,0.508362,0.731707,-13.780488,-19.756098
1548455758538,-0.169128,-0.872925,0.513367,1.524390,-14.756098,-19.085367
1548455758545,-0.182922,-0.878662,0.517761,2.560976,-15.060976,-17.743902
1548455758560,-0.188965,-0.874207,0.523376,3.292683,-14.878049,-16.463415
1548455758568,-0.187012,-0.868774,0.521790,3.658537,-13.780488,-15.792684
1548455758575,-0.174438,-0.870850,0.519531,3.963415,-11.890244,-16.158537
1548455758590,-0.150818,-0.869263,0.514282,3.658537,-10.182927,-17.256098
1548455758598,-0.131348,-0.871460,0.509521,3.292683,-9.390244,-18.475611
1548455758605,-0.116516,-0.873901,0.514648,3.170732,-10.121951,-19.512196
1548455758620,-0.112549,-0.875977,0.513794,2.621951,-12.134147,-19.939024
1548455758635,-0.116272,-0.878845,0.515015,1.341463,-14.329268,-19.634148
1548455758636,-0.129822,-0.880310,0.518066,0.000000,-16.463415,-18.719513
1548455758651,-0.146484,-0.876831,0.519348,-0.975610,-17.987804,-17.926830
1548455758658,-0.156982,-0.875671,0.522583,-0.975610,-18.231709,-17.621952
1548455758666,-0.154785,-0.873657,0.524536,-0.548781,-17.195122,-17.926830
1548455758681,-0.136536,-0.871216,0.525085,-0.426829,-14.817074,-18.719513
1548455758688,-0.107300,-0.870789,0.524475,-0.243902,-12.012196,-19.573172
1548455758696,-0.088745,-0.880920,0.524231,-0.121951,-10.792684,-20.000000
1548455758710,-0.084045,-0.883911,0.525208,0.000000,-11.402439,-19.573172
1548455758718,-0.090942,-0.883179,0.528992,0.304878,-13.414635,-18.597561
1548455758725,-0.107117,-0.883850,0.531006,0.426829,-15.182927,-17.500000
1548455758748,-0.117004,-0.886597,0.532837,0.304878,-15.548780,-16.890244
1548455758749,-0.112305,-0.883545,0.532349,0.365854,-14.146341,-16.646341
1548455758756,-0.096191,-0.878906,0.527832,0.426829,-11.951220,-16.341463
1548455758771,-0.078186,-0.881348,0.520508,-0.243902,-9.634147,-16.646341
1548455758778,-0.068726,-0.884094,0.520325,-0.548781,-8.536586,-17.073172
1548455758785,-0.070862,-0.884033,0.523193,-0.548781,-9.390244,-17.195122
1548455758800,-0.075317,-0.879639,0.526001,-0.609756,-10.792684,-17.073172
1548455758808,-0.075012,-0.879089,0.526367,-0.731707,-11.219512,-16.890244
1548455758816,-0.070435,-0.876770,0.524780,-0.975610,-11.280488,-16.707317
1548455758831,-0.062805,-0.872742,0.525879,-1.097561,-10.304878,-16.646341
1548455758838,-0.056274,-0.873596,0.524597,-0.914634,-9.512196,-16.890244
1548455758845,-0.047241,-0.880798,0.524048,-0.487805,-9.268292,-16.890244
1548455758860,-0.047852,-0.884521,0.525024,-0.060976,-9.451220,-16.524391
1548455758868,-0.054077,-0.884766,0.529419,0.060976,-10.243902,-16.097561
1548455758876,-0.060852,-0.886292,0.529663,0.000000,-10.426829,-15.487805
1548455758891,-0.060852,-0.888428,0.527893,0.060976,-9.939025,-14.817074
1548455758898,-0.056519,-0.884338,0.523560,-0.182927,-9.146341,-14.756098
1548455758906,-0.045715,-0.883728,0.519958,-0.365854,-7.682927,-14.817074
1548455758921,-0.033203,-0.885925,0.521729,-0.060976,-6.646342,-14.939025
1548455758928,-0.020996,-0.881958,0.520386,0.121951,-6.280488,-14.756098
1548455758935,-0.017944,-0.884949,0.519958,0.487805,-6.463415,-14.085366
1548455758951,-0.016724,-0.886108,0.523010,0.670732,-7.256098,-13.170732
1548455758958,-0.017578,-0.885376,0.524963,0.731707,-7.987805,-12.865854
1548455758965,-0.021912,-0.891541,0.527100,0.914634,-8.780488,-12.743903
1548455758980,-0.027161,-0.897827,0.528015,0.975610,-8.719512,-12.195122
1548455758988,-0.034668,-0.897522,0.529785,0.792683,-7.743903,-11.341464
1548455758996,-0.035034,-0.889648,0.526855,0.121951,-6.768293,-10.731708
1548455759010,-0.025146,-0.880615,0.517090,-0.304878,-5.609756,-10.243902
1548455759018,-0.011719,-0.877380,0.516174,-0.731707,-4.573171,-10.548780
1548455759026,-0.003845,-0.875793,0.516846,-0.914634,-4.390244,-11.280488
1548455759041,0.006714,-0.873352,0.513550,-0.914634,-5.060976,-12.012196
1548455759048,0.016541,-0.870972,0.511536,-0.792683,-5.548780,-12.378049
1548455759056,0.019653,-0.870239,0.513611,-0.487805,-6.219512,-12.256098
1548455759071,0.014893,-0.878418,0.526917,-1.097561,-8.048780,-11.585366
1548455759078,0.006836,-0.881409,0.530518,-1.768293,-9.024390,-11.280488
1548455759085,-0.003540,-0.880188,0.527100,-1.341463,-9.390244,-11.036586
1548455759101,-0.008362,-0.878113,0.527222,-0.670732,-8.963415,-10.670732
1548455759108,-0.005920,-0.880127,0.522522,-0.060976,-8.109756,-10.487805
1548455759115,0.000854,-0.887573,0.521423,0.609756,-6.829268,-10.487805
1548455759131,0.011047,-0.891418,0.523010,0.914634,-5.365854,-10.731708
1548455759138,0.021851,-0.890686,0.523804,1.158537,-4.451220,-10.731708
1548455759146,0.027710,-0.892334,0.526001,0.853659,-4.085366,-10.243902
1548455759161,0.023376,-0.894287,0.530334,0.121951,-4.756098,-9.451220
1548455759168,0.020813,-0.901306,0.527710,-0.243902,-5.243903,-8.353659
1548455759176,0.018188,-0.898438,0.527222,-1.158537,-5.060976,-7.439024
1548455759191,0.010010,-0.892151,0.523621,-2.012195,-5.304878,-7.134147
1548455759198,0.007385,-0.885925,0.524719,-2.865854,-4.878049,-6.768293
1548455759206,0.016785,-0.876709,0.520752,-2.682927,-3.414634,-6.402439
1548455759221,0.029846,-0.877014,0.519409,-1.768293,-1.890244,-5.853659
1548455759228,0.034424,-0.881104,0.520081,-1.036585,-1.158537,-6.036585
1548455759236,0.038391,-0.884949,0.515686,-0.243902,-1.646341,-6.280488
1548455759258,0.037964,-0.888062,0.517090,0.000000,-2.012195,-5.731708
1548455759259,0.035034,-0.880615,0.517822,-0.365854,-2.560976,-5.487805
1548455759265,0.031006,-0.876892,0.514160,-0.731707,-3.048780,-5.426829
1548455759281,0.035583,-0.873779,0.509705,-0.975610,-2.987805,-5.609756
1548455759288,0.040466,-0.868469,0.512756,-1.280488,-2.865854,-5.914634
1548455759296,0.043884,-0.866638,0.513916,-1.158537,-3.353659,-6.463415
1548455759311,0.044678,-0.876892,0.511047,-0.853659,-3.963415,-6.829268
1548455759318,0.037415,-0.876404,0.513062,0.121951,-4.207317,-7.134147
1548455759326,0.033020,-0.879333,0.522461,0.243902,-5.243903,-6.341464
1548455759341,0.034119,-0.881470,0.519287,-0.426829,-4.512195,-6.280488
1548455759348,0.039429,-0.878540,0.511414,-0.182927,-3.109756,-6.524390
1548455759356,0.047852,-0.877502,0.514221,0.060976,-2.682927,-6.585366
1548455759371,0.049927,-0.874817,0.515320,0.365854,-2.804878,-6.890244
1548455759378,0.050476,-0.878967,0.516296,1.158537,-3.292683,-7.134147
1548455759386,0.054382,-0.883545,0.516113,1.829268,-3.780488,-6.951220
1548455759401,0.055725,-0.887878,0.519714,1.768293,-3.658537,-6.829268
1548455759415,0.057678,-0.888062,0.520142,1.402439,-4.146341,-6.524390
1548455759416,0.052734,-0.883240,0.515686,1.097561,-4.756098,-6.280488
1548455759430,0.050232,-0.880249,0.515503,1.158537,-5.365854,-5.792683
1548455759438,0.050720,-0.883545,0.515930,1.219512,-4.817073,-5.426829
1548455759445,0.047363,-0.885193,0.521118,1.219512,-4.085366,-5.121951
1548455759468,0.051147,-0.884277,0.518982,1.646341,-3.841464,-4.817073
1548455759475,0.055176,-0.888855,0.520325,2.500000,-3.292683,-4.451220
1548455759476,0.059509,-0.890686,0.521362,2.134146,-3.109756,-4.573171
1548455759490,0.060425,-0.884399,0.521912,1.646341,-3.048780,-4.756098
1548455759498,0.064819,-0.883057,0.521423,0.914634,-3.109756,-4.390244
1548455759505,0.065979,-0.885193,0.516052,0.609756,-2.621951,-3.658537
1548455759521,0.065125,-0.880005,0.519531,0.182927,-2.865854,-3.170732
1548455759535,0.060486,-0.877319,0.514771,0.487805,-3.597561,-3.292683
1548455759536,0.064636,-0.884094,0.516785,0.975610,-3.841464,-3.170732
1548455759551,0.068848,-0.882874,0.522339,0.426829,-3.170732,-2.926829
1548455759558,0.066711,-0.883362,0.521606,0.426829,-3.231707,-2.804878
1548455759566,0.060669,-0.883606,0.523254,0.365854,-3.353659,-2.804878
1548455759588,0.060730,-0.880920,0.519775,0.243902,-3.353659,-2.500000
1548455759588,0.065247,-0.877319,0.516907,0.304878,-2.804878,-2.256098
1548455759595,0.070312,-0.873962,0.519836,0.121951,-2.012195,-2.073171
1548455759611,0.070862,-0.874695,0.519104,0.182927,-2.012195,-2.195122
1548455759618,0.068848,-0.872437,0.521484,0.182927,-2.378049,-2.134146
1548455759641,0.066650,-0.878479,0.522522,0.548781,-2.621951,-2.073171
1548455759641,0.069153,-0.882202,0.521423,1.097561,-2.500000,-1.829268
1548455759648,0.070435,-0.877869,0.521545,0.853659,-1.768293,-1.829268
1548455759655,0.073120,-0.874512,0.519470,0.426829,-1.646341,-1.768293
1548455759670,0.072937,-0.873962,0.519043,0.060976,-1.707317,-1.646341
1548455759678,0.068481,-0.875000,0.518494,0.243902,-2.012195,-1.463415
1548455759686,0.063904,-0.875549,0.523376,0.487805,-2.073171,-1.097561
1548455759701,0.063721,-0.877686,0.521973,0.914634,-1.829268,-1.036585
1548455759708,0.066345,-0.882385,0.521240,1.219512,-1.463415,-1.097561
1548455759716,0.072876,-0.883362,0.519470,1.402439,-0.792683,-1.219512
1548455759731,0.078369,-0.879578,0.518982,1.219512,-0.304878,-1.036585
1548455759738,0.080566,-0.879028,0.519531,0.792683,-0.487805,-0.670732
1548455759746,0.073853,-0.882812,0.521362,0.365854,-1.341463,-0.365854
1548455759761,0.063782,-0.883789,0.522827,0.304878,-2.134146,-0.121951
1548455759768,0.059326,-0.881287,0.522949,0.365854,-2.073171,0.000000
1548455759776,0.063660,-0.880920,0.520691,-0.060976,-0.853659,0.000000
1548455759813,0.070740,-0.880676,0.515869,-0.609756,0.426829,0.000000
1548455759813,0.075623,-0.875549,0.516357,-0.853659,1.036585,-0.304878
1548455759814,0.076294,-0.876343,0.516357,-0.853659,0.792683,-0.426829
1548455759820,0.076416,-0.877502,0.517456,-0.670732,0.060976,-0.304878
1548455759828,0.072205,-0.879761,0.521118,-0.426829,-0.243902,0.000000
1548455759836,0.074402,-0.875977,0.518555,-0.304878,-0.304878,0.243902
1548455759851,0.075134,-0.872986,0.518188,-0.670732,-0.304878,0.304878
1548455759858,0.076172,-0.869751,0.513428,-0.914634,-0.365854,0.426829
1548455759866,0.075867,-0.872437,0.514160,-0.731707,-0.487805,0.487805
1548455759881,0.071228,-0.878662,0.519104,-0.365854,-0.853659,0.548781
1548455759888,0.069519,-0.880432,0.521790,-0.243902,-0.914634,0.243902
1548455759896,0.075012,-0.883057,0.518555,-0.182927,-0.060976,0.426829
1548455759918,0.073120,-0.884827,0.519897,-0.304878,0.426829,0.609756
1548455759919,0.072144,-0.883423,0.522278,-0.487805,0.182927,0.670732
1548455759926,0.071716,-0.878357,0.519409,-1.036585,-0.304878,0.609756
1548455759940,0.072083,-0.875427,0.517517,-1.402439,-0.365854,0.670732
1548455759948,0.070923,-0.880127,0.514832,-1.402439,-0.365854,0.792683
1548455759956,0.067627,-0.887207,0.517456,-1.219512,-0.548781,1.036585
1548455759971,0.067261,-0.886902,0.515442,-1.097561,-0.548781,0.853659
1548455759978,0.069641,-0.881287,0.515808,-1.402439,-0.060976,0.975610
1548455759986,0.068481,-0.876282,0.516907,-2.134146,0.426829,1.097561
1548455760002,0.067871,-0.873718,0.515381,-2.317073,0.121951,1.097561
1548455760016,0.066406,-0.876770,0.516968,-2.195122,-0.060976,1.158537
1548455760030,0.067322,-0.881409,0.517456,-1.829268,0.304878,1.036585
1548455760031,0.068115,-0.879822,0.514648,-1.768293,0.670732,1.036585
1548455760038,0.072693,-0.881042,0.514099,-1.829268,0.731707,0.975610
1548455760045,0.072205,-0.885620,0.513184,-2.073171,0.548781,0.792683
1548455760061,0.069824,-0.882507,0.509827,-2.317073,0.243902,0.914634
1548455760068,0.068420,-0.881958,0.509460,-2.439024,0.060976,1.097561
1548455760083,0.067200,-0.879700,0.507874,-2.500000,-0.060976,1.219512
1548455760091,0.066162,-0.880188,0.509399,-2.560976,-0.060976,1.219512
1548455760098,0.065552,-0.878357,0.507690,-2.500000,0.060976,1.097561
1548455760106,0.066589,-0.878723,0.508423,-2.560976,0.182927,0.914634
1548455760121,0.066711,-0.878601,0.508423,-2.560976,0.365854,0.792683
1548455760143,0.067871,-0.880371,0.506836,-2.378049,0.731707,1.036585
1548455760143,0.069580,-0.880615,0.507446,-1.890244,0.609756,0.975610
1548455760144,0.068604,-0.880676,0.508606,-1.707317,0.304878,0.670732
1548455760158,0.069153,-0.882324,0.511658,-1.768293,-0.182927,0.548781
1548455760165,0.068909,-0.883667,0.511475,-2.012195,-0.243902,0.670732
1548455760181,0.068298,-0.883728,0.509155,-2.195122,0.000000,0.731707
1548455760188,0.068970,-0.884155,0.509399,-2.378049,0.182927,0.853659
1548455760196,0.067505,-0.881592,0.507141,-2.560976,0.060976,0.853659
1548455760210,0.066345,-0.882874,0.509033,-2.682927,-0.182927,0.731707
1548455760218,0.065674,-0.884644,0.507080,-2.500000,-0.121951,0.792683
1548455760226,0.063110,-0.886230,0.505981,-2.073171,-0.060976,0.853659
1548455760255,0.061768,-0.885986,0.504822,-1.768293,-0.060976,0.914634
1548455760256,0.061768,-0.885864,0.507141,-1.829268,-0.121951,0.914634
1548455760257,0.063721,-0.885193,0.506592,-1.890244,-0.121951,0.792683
1548455760271,0.068481,-0.887207,0.504333,-1.951220,0.182927,0.792683
1548455760278,0.067566,-0.886108,0.506165,-2.073171,0.426829,0.975610
1548455760286,0.065613,-0.886902,0.507263,-2.317073,0.365854,1.158537
1548455760300,0.061584,-0.887939,0.507935,-2.317073,0.000000,1.402439
1548455760308,0.059326,-0.887451,0.505188,-2.317073,0.060976,1.402439
1548455760315,0.061401,-0.887756,0.503540,-2.439024,0.426829,1.402439
1548455760331,0.066467,-0.886780,0.501160,-2.439024,0.731707,1.219512
1548455760338,0.065735,-0.886536,0.502319,-2.439024,0.731707,1.158537
1548455760346,0.065063,-0.887207,0.500671,-2.500000,0.487805,1.219512
1548455760368,0.063721,-0.884827,0.500488,-2.439024,0.243902,1.524390
1548455760369,0.061340,-0.885620,0.502075,-2.439024,-0.121951,1.707317
1548455760376,0.059937,-0.887268,0.501099,-2.317073,-0.182927,1.463415
1548455760390,0.060059,-0.887756,0.498840,-2.378049,0.060976,0.975610
1548455760398,0.061584,-0.882568,0.496765,-2.317073,0.365854,0.853659
1548455760421,0.062866,-0.877197,0.497375,-2.012195,0.548781,0.853659
1548455760421,0.064331,-0.879211,0.499634,-1.768293,0.487805,0.853659
1548455760428,0.061646,-0.884827,0.498474,-1.097561,0.182927,0.975610
1548455760436,0.059082,-0.890686,0.498657,-0.731707,-0.121951,1.158537
1548455760451,0.058350,-0.887390,0.499146,-0.853659,0.182927,0.731707
1548455760458,0.063904,-0.885376,0.494995,-0.853659,0.609756,0.731707
1548455760473,0.061707,-0.888367,0.495300,-0.853659,0.548781,0.853659
1548455760481,0.054138,-0.889954,0.496887,-0.853659,-0.121951,0.426829
1548455760488,0.053284,-0.889954,0.498596,-0.792683,-0.426829,0.243902
1548455760496,0.057251,-0.890259,0.497437,-0.670732,0.060976,0.304878
1548455760511,0.063171,-0.889221,0.497253,-0.609756,0.243902,0.121951
1548455760533,0.067139,-0.894043,0.497559,-0.365854,0.182927,0.000000
1548455760534,0.065552,-0.896606,0.497192,-0.304878,0.060976,0.000000
1548455760534,0.062317,-0.892029,0.499634,-0.304878,-0.182927,0.182927
1548455760548,0.057556,-0.891663,0.499756,-0.548781,-0.426829,0.548781
1548455760555,0.053284,-0.893982,0.498230,-0.609756,-0.365854,0.792683
1548455760578,0.052551,-0.895020,0.501160,-0.670732,-0.060976,0.426829
1548455760586,0.057678,-0.890686,0.498840,-0.975610,0.548781,-0.121951
1548455760586,0.063049,-0.890625,0.498779,-1.402439,1.219512,-0.426829
1548455760601,0.066956,-0.891541,0.496216,-1.951220,1.524390,-0.304878
1548455760608,0.067078,-0.892639,0.498047,-2.012195,1.219512,-0.060976
1548455760616,0.060974,-0.889648,0.496826,-2.134146,0.609756,0.243902
1548455760645,0.053101,-0.887207,0.495911,-1.951220,0.060976,0.365854
1548455760646,0.054077,-0.884888,0.496338,-1.890244,-0.060976,0.548781
1548455760647,0.058350,-0.886658,0.493347,-1.829268,0.304878,0.487805
1548455760661,0.060791,-0.888916,0.494568,-1.646341,0.670732,0.304878
1548455760668,0.062683,-0.888672,0.495361,-1.646341,0.792683,0.182927
1548455760676,0.065063,-0.894165,0.495605,-1.524390,0.792683,0.243902
1548455760698,0.063477,-0.897888,0.499329,-1.524390,0.548781,0.365854
1548455760705,0.060791,-0.901367,0.501038,-1.646341,0.182927,0.487805
1548455760706,0.059082,-0.901978,0.499390,-2.073171,-0.121951,0.609756
1548455760721,0.058044,-0.899475,0.494141,-2.560976,-0.304878,0.609756
1548455760728,0.057495,-0.897522,0.495117,-2.987805,-0.304878,0.426829
1548455760736,0.055908,-0.894592,0.495361,-3.231707,-0.121951,0.243902
1548455760751,0.057129,-0.899597,0.493469,-3.170732,0.060976,0.121951
1548455760758,0.059082,-0.901428,0.494385,-3.048780,0.000000,0.060976
1548455760766,0.060730,-0.899719,0.491821,-3.109756,0.000000,0.000000
1548455760803,0.062256,-0.900208,0.489136,-3.536585,0.182927,0.304878
1548455760818,0.059143,-0.900940,0.491150,-4.146341,0.182927,0.670732
1548455760818,0.054565,-0.897705,0.491699,-4.329268,-0.121951,1.158537
1548455760819,0.052490,-0.892639,0.489258,-4.268293,-0.365854,1.280488
1548455760825,0.052124,-0.897583,0.486450,-4.146341,0.000000,1.341463
1548455760826,0.056458,-0.899475,0.488708,-4.451220,0.670732,0.792683
1548455760841,0.061951,-0.897827,0.488403,-4.695122,0.975610,0.487805
1548455760863,0.063782,-0.898010,0.487427,-4.695122,0.975610,0.121951
1548455760863,0.061768,-0.898621,0.485168,-4.939024,0.731707,0.000000
1548455760864,0.058960,-0.896973,0.483582,-5.609756,0.426829,0.548781
1548455760878,0.056580,-0.893311,0.481323,-6.097561,0.060976,0.609756
1548455760885,0.052368,-0.890076,0.477661,-6.280488,-0.060976,0.487805
1548455760901,0.050293,-0.889465,0.478638,-6.341464,-0.060976,0.426829
1548455760908,0.048340,-0.892395,0.480652,-6.097561,-0.060976,0.182927
1548455760923,0.051758,-0.899292,0.478455,-5.792683,0.304878,-0.243902
1548455760931,0.057556,-0.904541,0.477234,-5.609756,0.792683,-0.609756
1548455760938,0.060852,-0.905823,0.476746,-5.792683,1.036585,-0.609756
1548455760946,0.063782,-0.903625,0.475586,-5.914634,0.914634,-0.426829
1548455760976,0.061279,-0.903076,0.473572,-6.158537,0.243902,-0.243902
1548455760976,0.055420,-0.902039,0.470215,-6.341464,-0.548781,-0.182927
1548455760977,0.052429,-0.900879,0.470825,-6.219512,-1.036585,0.000000
1548455760991,0.050171,-0.902222,0.469055,-5.792683,-0.914634,0.060976
1548455760998,0.051086,-0.905090,0.465820,-5.609756,-0.487805,-0.182927
1548455761006,0.050049,-0.905212,0.464478,-5.548780,-0.121951,-0.365854
1548455761028,0.052490,-0.903748,0.463013,-5.609756,0.243902,-0.243902
1548455761029,0.054260,-0.896179,0.464172,-5.487805,0.365854,0.000000
1548455761036,0.054810,-0.891663,0.462646,-5.182927,0.060976,-0.121951
1548455761051,0.056335,-0.887756,0.456665,-4.939024,-0.060976,-0.365854
1548455761058,0.061523,-0.886292,0.460388,-4.085366,0.000000,-0.365854
1548455761066,0.059082,-0.886230,0.459900,-2.804878,0.121951,0.121951
1548455761089,0.055176,-0.883911,0.458984,-1.768293,0.060976,0.731707
1548455761089,0.053345,-0.886719,0.458252,-0.731707,0.060976,0.975610
1548455761096,0.052673,-0.890015,0.458252,0.060976,0.487805,0.792683
1548455761111,0.052673,-0.896973,0.458435,1.219512,0.914634,0.975610
1548455761118,0.051941,-0.904053,0.455994,1.890244,1.158537,0.792683
1548455761140,0.053894,-0.902832,0.453186,2.378049,1.402439,0.365854
1548455761141,0.058044,-0.898621,0.452942,2.500000,1.951220,-0.121951
1548455761148,0.064514,-0.893799,0.450684,2.865854,2.682927,-0.243902
1548455761156,0.063782,-0.893311,0.455322,3.841464,2.804878,0.060976
1548455761171,0.057251,-0.894775,0.459656,4.756098,1.097561,0.426829
1548455761178,0.051819,-0.898804,0.460754,5.914634,0.670732,-0.121951
1548455761201,0.048828,-0.905457,0.462402,7.073171,0.914634,-0.365854
1548455761201,0.052551,-0.909302,0.466492,7.621952,1.158537,0.182927
1548455761208,0.052307,-0.911316,0.469910,7.804878,1.585366,0.487805
1548455761216,0.051819,-0.912903,0.470703,7.439024,1.280488,0.000000
1548455761231,0.054504,-0.914001,0.474121,7.012195,1.341463,-0.182927
1548455761253,0.056335,-0.913147,0.471680,6.341464,1.951220,0.000000
1548455761253,0.056641,-0.913696,0.473694,5.731708,2.073171,0.182927
1548455761255,0.055115,-0.909424,0.475586,5.121951,1.829268,0.243902
1548455761268,0.050293,-0.904541,0.479065,4.695122,1.463415,0.548781
1548455761276,0.048950,-0.903198,0.483154,4.573171,1.524390,0.792683
1548455761291,0.048035,-0.902222,0.483643,4.634146,1.707317,0.853659
1548455761305,0.050842,-0.906006,0.485229,4.817073,2.134146,0.975610
1548455761306,0.053650,-0.906494,0.484314,4.756098,2.500000,1.097561
1548455761321,0.053589,-0.905762,0.487183,4.512195,2.256098,1.280488
1548455761328,0.051758,-0.907227,0.489075,4.146341,1.951220,1.585366
1548455761336,0.048218,-0.905029,0.489075,3.475610,1.829268,2.012195
1548455761365,0.046021,-0.904480,0.487244,2.804878,1.829268,2.317073
1548455761366,0.044128,-0.903687,0.486755,2.256098,1.890244,2.621951
1548455761367,0.046997,-0.899841,0.485718,1.707317,2.378049,2.865854
1548455761381,0.049316,-0.897095,0.486145,1.463415,2.621951,3.109756
1548455761388,0.046021,-0.900818,0.487427,1.646341,2.317073,3.170732
1548455761396,0.043457,-0.903564,0.491150,1.707317,1.646341,3.231707
1548455761418,0.046997,-0.900452,0.490967,1.768293,1.951220,3.414634
1548455761419,0.049011,-0.900574,0.485840,1.646341,2.621951,3.841464
1548455761426,0.049805,-0.902405,0.487915,1.280488,2.621951,4.085366
1548455761441,0.045105,-0.902466,0.489197,1.158537,2.012195,4.390244
1548455761448,0.044006,-0.901611,0.490173,1.036585,1.890244,4.573171
1548455761456,0.042236,-0.900635,0.489258,0.609756,1.951220,5.121951
1548455761478,0.039673,-0.901794,0.490784,0.487805,1.829268,5.121951
1548455761479,0.037231,-0.904541,0.492310,0.121951,1.341463,5.182927
1548455761486,0.037476,-0.906860,0.488220,-0.121951,1.585366,5.000000
1548455761501,0.037109,-0.904724,0.487671,-0.487805,1.768293,5.060976
1548455761508,0.038635,-0.903564,0.488831,-1.036585,1.646341,5.060976
1548455761531,0.040100,-0.904724,0.485291,-1.341463,2.073171,5.000000
1548455761531,0.041138,-0.907227,0.483276,-1.524390,2.012195,4.756098
1548455761538,0.036621,-0.908569,0.486084,-1.768293,1.280488,4.939024
1548455761546,0.031738,-0.904541,0.483948,-2.256098,0.548781,5.182927
1548455761561,0.026367,-0.901794,0.485046,-2.560976,0.365854,5.548780
1548455761568,0.025391,-0.902161,0.486450,-2.439024,0.487805,5.853659
1548455761583,0.026428,-0.904419,0.485352,-2.317073,0.853659,5.853659
1548455761591,0.026917,-0.907104,0.483887,-2.500000,1.219512,5.731708
1548455761598,0.023743,-0.907898,0.485352,-2.865854,1.585366,5.792683
1548455761606,0.023071,-0.908752,0.485596,-3.048780,1.463415,6.402439
1548455761621,0.022583,-0.910706,0.484802,-3.536585,1.707317,7.073171
1548455761643,0.023682,-0.911438,0.480591,-3.841464,2.073171,7.439024
1548455761650,0.023804,-0.911804,0.477478,-4.451220,2.317073,7.439024
1548455761651,0.019897,-0.911499,0.477417,-4.817073,1.768293,7.500000
1548455761658,0.019104,-0.909668,0.478394,-5.060976,1.707317,7.865854
1548455761666,0.019104,-0.908813,0.478271,-5.487805,2.012195,8.353659
1548455761681,0.017639,-0.910828,0.473022,-5.731708,2.012195,8.780488
1548455761695,0.010803,-0.918274,0.473999,-5.792683,1.768293,9.268292
1548455761696,0.009338,-0.919556,0.477051,-5.731708,1.585366,9.878049
1548455761711,0.008850,-0.919312,0.471497,-6.097561,1.951220,10.426829
1548455761718,0.004700,-0.917114,0.471130,-6.524390,2.621951,10.792684
1548455761726,0.008667,-0.919495,0.469421,-6.646342,2.621951,11.768293
1548455761741,0.004944,-0.919373,0.470398,-7.012195,3.292683,12.804878
1548455761756,0.002625,-0.921082,0.467102,-6.585366,2.987805,13.475610
1548455761756,0.000671,-0.924255,0.465332,-6.646342,3.292683,13.902439
1548455761771,-0.003174,-0.922729,0.467957,-7.012195,3.353659,14.451220
1548455761778,-0.006409,-0.922852,0.462585,-6.829268,2.743902,15.304878
1548455761786,-0.011963,-0.918335,0.464844,-7.256098,3.658537,16.097561
1548455761801,-0.019043,-0.912415,0.466736,-7.317073,3.841464,16.707317
1548455761808,-0.021057,-0.916138,0.461609,-6.219512,4.024390,17.621952
1548455761816,-0.020874,-0.923462,0.461060,-5.243903,4.695122,18.841463
1548455761831,-0.023438,-0.923401,0.458618,-4.634146,4.939024,19.207317
1548455761838,-0.029663,-0.918640,0.464905,-4.024390,4.878049,19.146341
1548455761853,-0.030396,-0.913757,0.461975,-3.841464,5.121951,19.451220
1548455761861,-0.033203,-0.912170,0.463135,-3.109756,5.792683,19.573172
1548455761869,-0.034180,-0.914917,0.459534,-2.682927,6.280488,20.365854
1548455761876,-0.039612,-0.912292,0.460083,-2.317073,6.585366,20.792683
1548455761891,-0.045959,-0.914795,0.456177,-1.341463,6.524390,20.609756
1548455761898,-0.049316,-0.917419,0.455078,-1.097561,6.829268,20.792683
1548455761906,-0.053467,-0.910950,0.461426,-1.402439,7.012195,20.670732
1548455761921,-0.056335,-0.908020,0.455017,-0.914634,6.829268,20.487804
1548455761928,-0.064087,-0.907532,0.456238,-0.121951,7.012195,20.182928
1548455761936,-0.063904,-0.909485,0.452271,-0.304878,7.134147,19.939024
1548455761951,-0.062378,-0.919067,0.451599,-0.304878,8.292683,19.512196
1548455761958,-0.066772,-0.917236,0.458130,-1.158537,7.987805,19.634148
1548455761966,-0.071533,-0.919922,0.456116,-1.402439,7.743903,19.146341
1548455761981,-0.071167,-0.919678,0.458801,-2.682927,7.560976,18.475611
1548455761988,-0.076050,-0.908081,0.463806,-4.207317,7.195122,17.926830
1548455761996,-0.086548,-0.908386,0.457642,-4.024390,6.219512,17.500000
1548455762011,-0.088440,-0.911865,0.454529,-3.475610,6.280488,17.682928
1548455762018,-0.094116,-0.914062,0.449402,-2.865854,6.829268,18.109756
1548455762026,-0.102844,-0.915405,0.447205,-2.256098,6.463415,18.353659
1548455762041,-0.105774,-0.910461,0.454529,-2.256098,6.524390,18.353659
1548455762048,-0.101135,-0.914978,0.448730,-2.012195,7.378049,17.743902
1548455762056,-0.100647,-0.920837,0.447083,-1.280488,7.926829,17.439024
1548455762071,-0.099304,-0.917358,0.447083,-1.890244,7.682927,18.048780
1548455762078,-0.101013,-0.920105,0.447021,-1.829268,7.195122,18.231709
1548455762086,-0.106812,-0.922729,0.450500,-2.743902,6.341464,17.804878
1548455762101,-0.118896,-0.915527,0.452087,-3.597561,6.158537,17.500000
1548455762108,-0.126404,-0.906982,0.446472,-3.841464,6.219512,17.926830
1548455762116,-0.130676,-0.913513,0.443848,-3.170732,6.707317,18.475611
1548455762131,-0.138184,-0.910400,0.447388,-3.048780,7.012195,18.292683
1548455762138,-0.139221,-0.913818,0.439209,-2.134146,7.500000,18.109756
1548455762146,-0.136597,-0.908630,0.443237,-1.463415,7.987805,18.109756
1548455762161,-0.133972,-0.913818,0.442871,-0.609756,8.597561,18.048780
1548455762168,-0.134094,-0.913513,0.439636,0.000000,8.597561,17.804878
1548455762176,-0.137573,-0.909607,0.440491,0.548781,7.500000,17.926830
1548455762191,-0.140259,-0.909912,0.439514,0.609756,6.463415,17.865854
1548455762198,-0.142212,-0.910950,0.438354,0.121951,6.524390,17.865854
1548455762206,-0.152405,-0.912903,0.441711,-0.060976,6.097561,17.621952
1548455762221,-0.159668,-0.908020,0.445923,-0.060976,5.121951,17.621952
1548455762228,-0.163391,-0.906860,0.445190,-0.365854,5.670732,17.621952
1548455762243,-0.166199,-0.914062,0.438477,0.426829,5.975610,17.439024
1548455762244,-0.167297,-0.907410,0.447754,0.182927,6.341464,17.012196
1548455762258,-0.173462,-0.906860,0.445312,0.304878,6.036585,16.890244
1548455762266,-0.178406,-0.912903,0.442810,1.219512,5.853659,16.829269
1548455762273,-0.179504,-0.915771,0.435059,0.975610,6.097561,17.012196
1548455762288,-0.180420,-0.909424,0.442322,0.731707,6.036585,16.890244
1548455762296,-0.181091,-0.909180,0.439026,0.487805,5.609756,16.341463
1548455762303,-0.182800,-0.914490,0.439087,0.365854,5.731708,15.914635
1548455762318,-0.182434,-0.913208,0.437317,-0.304878,5.609756,15.792684
1548455762326,-0.186768,-0.906921,0.434814,-1.097561,5.670732,16.036585
1548455762333,-0.197876,-0.903015,0.440186,-1.524390,5.304878,16.524391
1548455762348,-0.206970,-0.908630,0.434875,-1.036585,4.512195,16.707317
1548455762356,-0.208923,-0.906921,0.439819,-0.792683,4.939024,16.585365
1548455762363,-0.210388,-0.899963,0.441528,-1.524390,5.792683,16.524391
1548455762385,-0.209778,-0.898438,0.438965,-0.914634,5.731708,16.341463
1548455762386,-0.210999,-0.903870,0.435730,-0.487805,6.097561,16.097561
1548455762393,-0.212463,-0.907654,0.438843,-0.365854,6.036585,15.731708
1548455762408,-0.215393,-0.902283,0.440796,-0.487805,5.792683,15.243903
1548455762416,-0.212036,-0.899048,0.435974,-0.304878,5.792683,14.817074
1548455762423,-0.214355,-0.900269,0.433716,-0.487805,6.219512,14.695123
1548455762438,-0.220642,-0.896301,0.430054,-0.487805,6.097561,15.060976
1548455762446,-0.226196,-0.895752,0.430115,-0.060976,5.548780,15.243903
1548455762461,-0.236084,-0.887634,0.434753,0.000000,4.756098,14.878049
1548455762468,-0.240173,-0.891418,0.431152,0.731707,4.695122,14.268293
1548455762475,-0.237854,-0.895691,0.432739,1.707317,5.487805,13.780488
1548455762483,-0.236389,-0.898010,0.436340,2.134146,6.341464,13.658537
1548455762498,-0.234192,-0.902893,0.433899,2.500000,6.280488,13.475610
1548455762506,-0.239014,-0.897583,0.435059,1.951220,6.036585,13.170732
1548455762513,-0.242737,-0.898926,0.431946,1.768293,5.548780,12.865854
1548455762528,-0.247192,-0.896545,0.434021,1.097561,4.939024,12.621951
1548455762536,-0.249756,-0.894165,0.436035,0.609756,4.634146,12.317074
1548455762543,-0.252502,-0.893311,0.434814,0.792683,5.000000,12.073171
1548455762558,-0.257935,-0.891602,0.436157,0.853659,4.939024,12.256098
1548455762566,-0.260498,-0.892883,0.436951,1.219512,5.121951,12.621951
1548455762573,-0.264465,-0.894165,0.435608,1.524390,5.731708,12.378049
1548455762588,-0.264282,-0.892639,0.434875,2.195122,5.853659,12.134147
1548455762596,-0.261292,-0.893677,0.435364,2.195122,6.097561,11.951220
1548455762603,-0.259338,-0.894714,0.431335,1.585366,6.036585,11.524390
1548455762618,-0.260925,-0.891663,0.430542,1.402439,5.792683,11.097561
1548455762626,-0.269531,-0.890259,0.433716,1.341463,5.243903,11.158537
1548455762633,-0.278870,-0.887329,0.435608,1.707317,4.573171,11.341464
1548455762648,-0.279602,-0.889954,0.432617,1.951220,4.695122,11.219512
1548455762656,-0.276733,-0.891357,0.435608,2.073171,5.304878,10.975610
1548455762663,-0.273560,-0.886780,0.434692,1.890244,5.609756,10.670732
1548455762679,-0.274719,-0.892456,0.431152,1.890244,5.670732,10.182927
1548455762686,-0.280273,-0.893738,0.430603,1.951220,5.182927,10.304878
1548455762693,-0.286194,-0.890320,0.431702,1.890244,5.121951,10.487805
1548455762708,-0.290894,-0.890686,0.433899,1.890244,4.634146,10.548780
1548455762716,-0.292847,-0.891235,0.435486,1.890244,4.512195,10.487805
1548455762723,-0.292419,-0.887207,0.433044,2.134146,5.121951,10.670732
1548455762738,-0.291931,-0.886047,0.436035,1.951220,5.731708,10.792684
1548455762746,-0.293335,-0.883850,0.436829,1.768293,5.792683,10.670732
1548455762753,-0.294373,-0.885681,0.430481,2.256098,5.487805,10.548780
1548455762768,-0.293579,-0.887512,0.431519,2.378049,5.426829,10.243902
1548455762776,-0.298889,-0.885254,0.433716,2.134146,5.304878,10.121951
1548455762783,-0.302185,-0.883484,0.432434,2.012195,4.634146,10.365854
1548455762798,-0.305359,-0.885010,0.433167,1.768293,4.695122,10.426829
1548455762806,-0.306030,-0.880615,0.433716,1.524390,4.878049,10.548780
1548455762813,-0.308655,-0.873596,0.430420,1.524390,5.243903,10.243902
1548455762828,-0.309143,-0.878296,0.429260,1.951220,5.304878,10.243902
1548455762836,-0.314087,-0.882385,0.433960,2.317073,5.000000,10.000000
1548455762843,-0.317505,-0.878479,0.434814,2.682927,4.451220,9.695122
1548455762858,-0.315308,-0.877136,0.430420,3.292683,4.512195,9.329268
1548455762866,-0.312317,-0.875061,0.431396,3.353659,4.634146,9.085366
1548455762873,-0.314941,-0.873901,0.433899,3.170732,4.085366,9.146341
1548455762888,-0.317261,-0.875244,0.434204,2.926829,3.902439,9.024390
1548455762896,-0.325195,-0.868713,0.433594,2.560976,3.902439,8.841464
1548455762903,-0.330444,-0.867554,0.434998,2.500000,3.597561,8.536586
1548455762918,-0.330383,-0.868164,0.433228,2.743902,3.902439,8.170732
1548455762926,-0.326538,-0.866089,0.430542,2.804878,4.268293,7.743903
1548455762933,-0.324097,-0.865112,0.428650,2.621951,4.451220,7.134147
1548455762948,-0.322937,-0.868347,0.428894,2.317073,4.024390,6.646342
1548455762956,-0.327148,-0.869141,0.425720,2.682927,3.109756,5.914634
1548455762963,-0.329041,-0.867676,0.428955,2.621951,2.378049,5.304878
1548455762978,-0.331116,-0.867920,0.431396,2.500000,2.134146,5.060976
1548455762986,-0.331970,-0.869629,0.434326,2.439024,2.134146,5.060976
1548455762993,-0.334961,-0.869568,0.436157,2.317073,2.195122,5.182927
1548455763008,-0.338196,-0.867676,0.435608,2.378049,2.073171,5.060976
1548455763016,-0.337585,-0.867371,0.434875,2.195122,2.012195,4.451220
1548455763023,-0.332703,-0.870605,0.435547,1.890244,2.134146,3.780488
1548455763038,-0.330200,-0.871216,0.439270,1.280488,2.073171,3.353659
1548455763046,-0.335449,-0.872986,0.437927,1.219512,1.585366,3.231707
1548455763053,-0.340820,-0.870056,0.433472,0.853659,0.853659,3.048780
1548455763076,-0.343872,-0.869629,0.434265,0.548781,0.548781,2.926829
1548455763076,-0.346741,-0.869019,0.433655,0.548781,0.914634,2.987805
1548455763083,-0.343384,-0.870605,0.435547,0.731707,1.585366,2.926829
1548455763098,-0.341919,-0.876648,0.434204,1.341463,2.195122,2.682927
1548455763106,-0.337646,-0.877869,0.433533,1.463415,2.378049,2.865854
1548455763113,-0.337708,-0.873230,0.436829,1.219512,2.256098,3.353659
1548455763128,-0.342163,-0.869873,0.436890,0.670732,2.134146,3.597561
1548455763136,-0.346863,-0.873291,0.437256,0.792683,1.829268,3.902439
1548455763143,-0.351868,-0.870300,0.437195,1.036585,1.707317,4.146341
1548455763158,-0.351196,-0.864990,0.436035,0.853659,1.890244,4.207317
1548455763166,-0.344238,-0.865051,0.433167,1.036585,2.378049,3.780488
1548455763173,-0.337585,-0.867737,0.430725,1.341463,2.500000,3.414634
1548455763189,-0.341797,-0.874084,0.430176,1.707317,2.134146,3.353659
1548455763196,-0.350098,-0.869690,0.433960,1.707317,1.524390,3.780488
1548455763203,-0.352539,-0.861816,0.434570,1.463415,1.280488,4.085366
1548455763218,-0.349243,-0.856567,0.432495,1.402439,1.402439,3.780488
1548455763226,-0.346191,-0.861023,0.428772,1.585366,1.707317,3.170732
1548455763233,-0.341858,-0.863037,0.429321,1.585366,1.585366,2.621951
1548455763248,-0.345154,-0.865540,0.429810,1.524390,0.914634,2.560976
1548455763256,-0.351501,-0.862549,0.434753,1.524390,0.243902,2.500000
1548455763263,-0.352600,-0.860901,0.435608,1.402439,-0.060976,2.560976
1548455763278,-0.353271,-0.859253,0.434265,1.524390,0.060976,2.439024
1548455763293,-0.354370,-0.857910,0.437805,1.646341,0.060976,2.012195
1548455763294,-0.350220,-0.858337,0.434387,1.585366,0.000000,1.341463
1548455763308,-0.348755,-0.861328,0.437256,1.646341,0.182927,0.731707
1548455763316,-0.346313,-0.862122,0.436462,1.585366,-0.121951,0.304878
1548455763323,-0.347473,-0.863342,0.434631,1.402439,-0.487805,0.000000
1548455763338,-0.349670,-0.861877,0.435852,1.280488,-0.853659,-0.365854
1548455763346,-0.351318,-0.859253,0.437988,0.914634,-1.097561,-0.426829
1548455763353,-0.351318,-0.859192,0.439148,1.036585,-1.097561,-0.426829
1548455763368,-0.355835,-0.858887,0.437439,1.280488,-1.158537,-0.487805
1548455763376,-0.356323,-0.860596,0.440186,1.646341,-1.158537,-0.609756
1548455763383,-0.353943,-0.862305,0.440247,1.829268,-0.853659,-0.670732
1548455763398,-0.353882,-0.866211,0.441101,1.890244,-0.853659,-0.914634
1548455763406,-0.349670,-0.864807,0.442810,1.707317,-0.975610,-1.158537
1548455763413,-0.348755,-0.865967,0.441101,1.707317,-0.853659,-1.158537
1548455763428,-0.347534,-0.866760,0.443787,1.707317,-0.853659,-1.036585
1548455763436,-0.348022,-0.865356,0.438782,1.585366,-0.853659,-0.792683
1548455763443,-0.352417,-0.862488,0.440857,1.463415,-0.914634,-0.487805
1548455763458,-0.351868,-0.865051,0.437866,1.097561,-0.975610,-0.426829
1548455763466,-0.352234,-0.867310,0.438721,1.036585,-0.731707,-0.609756
1548455763473,-0.352539,-0.867432,0.437744,1.402439,-0.731707,-0.548781
1548455763488,-0.351318,-0.868530,0.437622,1.463415,-0.853659,-0.426829
1548455763496,-0.349182,-0.869263,0.436768,1.280488,-0.853659,-0.609756
1548455763503,-0.346619,-0.866272,0.435852,1.097561,-0.853659,-0.731707
1548455763518,-0.343811,-0.864014,0.434265,1.219512,-1.036585,-0.975610
1548455763526,-0.342896,-0.864929,0.434387,1.219512,-1.219512,-1.158537
1548455763533,-0.341553,-0.864136,0.438110,1.463415,-1.402439,-1.097561
1548455763548,-0.347412,-0.863708,0.441101,1.524390,-1.585366,-1.036585
1548455763556,-0.349609,-0.865234,0.443237,1.585366,-1.829268,-1.036585
1548455763578,-0.347778,-0.866821,0.444275,1.829268,-1.829268,-1.097561
1548455763579,-0.346985,-0.869812,0.445496,1.829268,-1.646341,-1.036585
1548455763586,-0.347778,-0.869385,0.444458,1.524390,-1.585366,-0.792683
1548455763593,-0.349121,-0.867737,0.442810,1.097561,-1.524390,-0.487805
1548455763609,-0.349426,-0.865540,0.443604,0.853659,-1.402439,-0.243902
1548455763616,-0.350098,-0.864624,0.442810,0.609756,-1.158537,-0.182927
1548455763623,-0.348755,-0.865662,0.441956,0.426829,-0.853659,-0.182927
1548455763638,-0.344604,-0.868408,0.440979,0.548781,-0.731707,-0.121951
1548455763646,-0.345642,-0.870361,0.442200,0.731707,-0.792683,-0.060976
1548455763653,-0.344360,-0.868774,0.440552,0.670732,-0.975610,0.243902
1548455763668,-0.348022,-0.864624,0.442566,0.487805,-1.158537,0.487805
1548455763676,-0.353027,-0.860352,0.447388,0.121951,-1.280488,0.731707
1548455763683,-0.355835,-0.856873,0.447449,0.243902,-1.219512,0.670732
1548455763698,-0.351746,-0.860107,0.445007,0.609756,-0.914634,0.426829
1548455763706,-0.342957,-0.862122,0.443054,1.097561,-0.365854,0.060976
1548455763713,-0.341492,-0.861694,0.440369,1.341463,-0.060976,-0.304878
1548455763728,-0.347046,-0.860474,0.439026,1.463415,-0.304878,-0.548781
1548455763736,-0.347473,-0.858582,0.440674,1.402439,-0.792683,-0.670732
1548455763743,-0.346680,-0.858276,0.440186,1.402439,-1.036585,-0.853659
1548455763758,-0.342468,-0.859131,0.439148,1.524390,-1.097561,-1.158537
1548455763766,-0.338379,-0.860229,0.439087,1.707317,-1.097561,-1.585366
1548455763773,-0.335999,-0.861206,0.441101,1.707317,-1.341463,-1.829268
1548455763788,-0.337646,-0.862061,0.446106,1.646341,-1.707317,-1.890244
1548455763803,-0.346252,-0.861389,0.450562,1.524390,-2.073171,-1.707317
1548455763804,-0.350952,-0.861755,0.453735,1.524390,-2.195122,-1.341463
1548455763818,-0.349792,-0.863953,0.452515,1.585366,-1.890244,-1.280488
1548455763826,-0.349304,-0.863220,0.452881,1.585366,-1.463415,-1.219512
1548455763833,-0.344421,-0.866516,0.451721,1.524390,-0.975610,-1.402439
1548455763848,-0.341797,-0.868591,0.449951,1.646341,-0.914634,-1.646341
1548455763856,-0.337341,-0.872925,0.446716,1.646341,-0.914634,-1.768293
1548455763863,-0.336304,-0.871399,0.444336,1.158537,-0.853659,-1.890244
1548455763878,-0.339233,-0.867859,0.443359,0.731707,-1.219512,-1.707317
1548455763886,-0.341125,-0.869080,0.443848,0.487805,-1.402439,-1.524390
1548455763893,-0.345764,-0.867065,0.442627,0.304878,-1.524390,-1.402439
1548455763908,-0.347107,-0.866394,0.441162,0.426829,-1.341463,-1.158537
1548455763916,-0.345520,-0.868164,0.440125,0.426829,-0.975610,-0.731707
1548455763923,-0.345581,-0.865723,0.442688,0.182927,-0.853659,-0.426829
1548455763938,-0.344177,-0.861755,0.444885,0.182927,-0.914634,-0.243902
1548455763946,-0.340454,-0.862122,0.444458,0.548781,-0.975610,-0.243902
1548455763954,-0.337036,-0.865601,0.444214,0.670732,-0.487805,-0.243902
1548455763968,-0.335815,-0.864624,0.445068,0.609756,-0.548781,-0.304878
1548455763976,-0.337585,-0.863342,0.447021,0.609756,-0.792683,-0.182927
1548455763983,-0.342163,-0.865295,0.445801,0.670732,-1.341463,0.000000
1548455763998,-0.342590,-0.866333,0.444824,0.609756,-1.524390,0.060976
1548455764006,-0.340149,-0.864258,0.442566,0.548781,-1.524390,0.000000
1548455764013,-0.336853,-0.860535,0.440552,0.487805,-1.402439,-0.426829
1548455764028,-0.336853,-0.859497,0.441284,0.304878,-1.585366,-0.670732
1548455764036,-0.337402,-0.862976,0.444946,0.548781,-1.829268,-0.853659
1548455764043,-0.338257,-0.862793,0.447510,0.792683,-1.890244,-0.914634
1548455764058,-0.342285,-0.864197,0.449463,0.731707,-1.829268,-0.609756
1548455764066,-0.346619,-0.863770,0.451233,0.792683,-1.646341,-0.121951
1548455764073,-0.347656,-0.859436,0.450806,0.792683,-1.463415,0.060976
1548455764088,-0.344177,-0.858093,0.450562,0.853659,-0.975610,0.060976
1548455764096,-0.335876,-0.858276,0.450562,0.914634,-0.548781,-0.182927
1548455764103,-0.329285,-0.860046,0.446777,0.914634,-0.609756,-0.670732
1548455764118,-0.329651,-0.860718,0.445801,0.670732,-1.036585,-1.402439
1548455764126,-0.334473,-0.859436,0.448425,0.609756,-1.768293,-1.646341
1548455764133,-0.340576,-0.856201,0.445374,0.609756,-1.951220,-1.402439
1548455764148,-0.341187,-0.854797,0.445435,1.097561,-1.707317,-1.463415
1548455764156,-0.338135,-0.856262,0.447388,1.768293,-1.463415,-1.585366
1548455764163,-0.336060,-0.857422,0.448853,2.378049,-1.463415,-1.829268
1548455764178,-0.334778,-0.860779,0.446106,2.682927,-1.402439,-2.195122
1548455764186,-0.332275,-0.862000,0.448547,2.682927,-1.646341,-2.560976
1548455764193,-0.330505,-0.862061,0.446716,2.439024,-2.195122,-2.865854
1548455764208,-0.334045,-0.859253,0.447876,2.560976,-2.682927,-3.231707
1548455764216,-0.334839,-0.861511,0.451599,2.682927,-2.682927,-3.231707
1548455764223,-0.334900,-0.860535,0.450073,2.926829,-2.378049,-2.926829
1548455764238,-0.334106,-0.859741,0.451721,2.987805,-2.439024,-2.926829
1548455764246,-0.331970,-0.860901,0.453857,2.926829,-2.560976,-3.109756
1548455764253,-0.330688,-0.862549,0.451111,3.048780,-2.560976,-3.353659
1548455764268,-0.328613,-0.862488,0.450317,2.987805,-2.682927,-3.597561
1548455764276,-0.326538,-0.862793,0.452942,3.048780,-2.804878,-3.719512
1548455764283,-0.324097,-0.862854,0.451965,3.292683,-2.987805,-3.841464
1548455764298,-0.327209,-0.860962,0.450867,3.414634,-3.048780,-3.963415
1548455764306,-0.330261,-0.860168,0.452881,3.658537,-3.353659,-4.146341
1548455764313,-0.328064,-0.859497,0.455444,3.963415,-3.292683,-4.207317
1548455764329,-0.326477,-0.859741,0.454590,4.268293,-3.231707,-4.451220
1548455764336,-0.320801,-0.855896,0.453552,4.146341,-3.353659,-5.000000
1548455764343,-0.317078,-0.854858,0.457764,3.902439,-3.475610,-5.548780
1548455764358,-0.315247,-0.854309,0.459229,4.268293,-3.902439,-5.975610
1548455764366,-0.315735,-0.856323,0.459839,4.695122,-4.207317,-6.097561
1548455764373,-0.315430,-0.858643,0.461853,5.182927,-4.573171,-6.280488
1548455764388,-0.312073,-0.856079,0.460938,5.670732,-4.756098,-6.707317
1548455764396,-0.311829,-0.857117,0.459473,5.792683,-5.000000,-7.012195
1548455764403,-0.311035,-0.857849,0.459839,5.731708,-5.426829,-7.500000
1548455764418,-0.311340,-0.856323,0.462524,5.914634,-5.731708,-8.109756
1548455764426,-0.310852,-0.853638,0.461731,6.097561,-5.914634,-8.292683
1548455764433,-0.311829,-0.857239,0.466370,6.219512,-5.975610,-8.475610
1548455764448,-0.307007,-0.862305,0.470154,6.341464,-6.097561,-8.658537
1548455764456,-0.301697,-0.867676,0.472656,6.768293,-5.975610,-8.963415
1548455764463,-0.297974,-0.868225,0.475281,6.707317,-6.158537,-9.024390
1548455764478,-0.297485,-0.869812,0.476318,6.585366,-6.646342,-8.902439
1548455764486,-0.302185,-0.865479,0.479858,5.975610,-7.073171,-8.658537
1548455764493,-0.307678,-0.862061,0.484619,5.853659,-7.256098,-8.353659
1548455764508,-0.310852,-0.863342,0.483459,5.975610,-6.585366,-7.865854
1548455764516,-0.310181,-0.864441,0.483398,6.463415,-5.853659,-7.560976
1548455764523,-0.304688,-0.866821,0.478699,6.890244,-4.817073,-7.621952
1548455764538,-0.289429,-0.866028,0.474243,6.768293,-3.780488,-8.048780
1548455764546,-0.278564,-0.869202,0.475159,6.219512,-3.414634,-8.658537
1548455764553,-0.274536,-0.870911,0.473022,5.548780,-3.780488,-8.963415
1548455764568,-0.275940,-0.866211,0.475098,4.939024,-4.817073,-8.658537
1548455764576,-0.283691,-0.861389,0.478455,4.451220,-5.853659,-8.170732
1548455764583,-0.287354,-0.861816,0.481262,4.146341,-6.280488,-7.560976
1548455764598,-0.284729,-0.861206,0.484192,3.658537,-6.036585,-7.256098
1548455764606,-0.281555,-0.859253,0.483887,3.475610,-5.975610,-7.500000
1548455764613,-0.272217,-0.858582,0.483154,3.536585,-5.731708,-8.170732
1548455764628,-0.267639,-0.863037,0.486267,3.597561,-5.548780,-8.841464
1548455764636,-0.266968,-0.867004,0.487305,3.597561,-6.219512,-9.085366
1548455764643,-0.268127,-0.867798,0.490417,3.780488,-6.707317,-9.024390
1548455764658,-0.271851,-0.869263,0.490356,3.414634,-7.134147,-8.536586
1548455764666,-0.277527,-0.865784,0.489441,2.682927,-7.195122,-7.926829
1548455764673,-0.279297,-0.862610,0.491699,2.621951,-7.439024,-7.439024
1548455764688,-0.279114,-0.864075,0.492065,2.743902,-6.890244,-7.560976
1548455764696,-0.270142,-0.863098,0.490784,3.048780,-6.280488,-8.109756
1548455764703,-0.255859,-0.865967,0.490234,3.536585,-5.975610,-8.536586
1548455764718,-0.247131,-0.869080,0.489258,2.865854,-5.365854,-9.268292
1548455764726,-0.244629,-0.867126,0.485352,1.951220,-5.731708,-9.573171
1548455764733,-0.248779,-0.858948,0.481934,1.280488,-6.768293,-9.695122
1548455764748,-0.256714,-0.852905,0.486816,0.853659,-8.048780,-9.512196
1548455764756,-0.260803,-0.852722,0.491577,0.853659,-9.024390,-9.512196
1548455764763,-0.258850,-0.852478,0.495667,1.646341,-8.780488,-10.000000
1548455764778,-0.251953,-0.858948,0.497192,2.439024,-8.292683,-10.426829
1548455764786,-0.242798,-0.865845,0.497253,2.926829,-7.560976,-10.914635
1548455764793,-0.240540,-0.866699,0.495300,2.926829,-7.195122,-11.158537
1548455764808,-0.239624,-0.862793,0.497620,2.682927,-7.682927,-10.853659
1548455764816,-0.242065,-0.860046,0.499512,2.500000,-8.353659,-10.792684
1548455764823,-0.243652,-0.856750,0.497559,2.439024,-8.597561,-11.524390
1548455764838,-0.235657,-0.857544,0.494690,2.865854,-8.353659,-12.134147
1548455764846,-0.225647,-0.863708,0.497070,2.865854,-7.926829,-12.317074
1548455764853,-0.218872,-0.867188,0.497803,2.865854,-7.743903,-12.256098
1548455764868,-0.215820,-0.865845,0.499634,2.987805,-7.987805,-12.317074
1548455764876,-0.216675,-0.859985,0.506470,3.048780,-8.780488,-12.439025
1548455764883,-0.221436,-0.866089,0.507446,3.048780,-9.390244,-12.560976
1548455764898,-0.221069,-0.865112,0.506042,3.353659,-9.817074,-13.048780
1548455764913,-0.216736,-0.861633,0.508667,3.475610,-9.695122,-13.780488
1548455764914,-0.209595,-0.862305,0.507751,3.475610,-9.146341,-14.390244
1548455764928,-0.206543,-0.868164,0.506592,3.475610,-8.658537,-14.756098
1548455764936,-0.206238,-0.867371,0.507874,3.719512,-8.536586,-14.817074
1548455764943,-0.206055,-0.866333,0.508484,3.841464,-8.658537,-14.634147
1548455764958,-0.204285,-0.866150,0.514832,4.024390,-9.085366,-14.207317
1548455764966,-0.198059,-0.865051,0.514038,4.146341,-9.146341,-14.268293
1548455764981,-0.191956,-0.868164,0.511353,4.451220,-8.536586,-14.451220
1548455764988,-0.186096,-0.870972,0.507385,4.512195,-8.414635,-14.451220
1548455764996,-0.183655,-0.868591,0.510010,4.390244,-8.658537,-14.329268
1548455765003,-0.182373,-0.865723,0.511963,4.024390,-8.963415,-14.390244
1548455765018,-0.180664,-0.869141,0.509644,3.902439,-9.329268,-14.573171
1548455765026,-0.180420,-0.866699,0.513489,3.536585,-9.573171,-15.121951
1548455765033,-0.178772,-0.864319,0.518433,3.597561,-9.573171,-15.487805
1548455765048,-0.168640,-0.864807,0.519409,3.841464,-9.817074,-15.853659
1548455765056,-0.157898,-0.869690,0.515503,4.024390,-9.512196,-16.219513
1548455765063,-0.155334,-0.871643,0.517700,4.024390,-9.451220,-15.792684
1548455765078,-0.156921,-0.873657,0.517822,4.207317,-10.121951,-15.060976
1548455765086,-0.162659,-0.875732,0.518677,4.512195,-10.731708,-14.451220
1548455765093,-0.170898,-0.874512,0.522705,4.695122,-10.975610,-13.902439
1548455765108,-0.172913,-0.874634,0.521240,5.060976,-10.670732,-13.658537
1548455765116,-0.161194,-0.877014,0.517639,4.939024,-9.756098,-14.146341
1548455765123,-0.143677,-0.872925,0.516907,4.573171,-8.719512,-14.817074
1548455765138,-0.126526,-0.873047,0.520203,3.902439,-8.292683,-15.243903
1548455765146,-0.116089,-0.874207,0.521729,3.048780,-8.475610,-15.548780
1548455765153,-0.115845,-0.874390,0.524170,2.500000,-10.000000,-15.243903
1548455765168,-0.126099,-0.874207,0.525269,2.073171,-11.707317,-14.634147
1548455765176,-0.138550,-0.876587,0.528625,1.951220,-13.048780,-13.597561
1548455765183,-0.149841,-0.875183,0.536316,1.768293,-13.170732,-12.865854
1548455765198,-0.150452,-0.870850,0.535706,1.768293,-12.134147,-12.560976
1548455765206,-0.138245,-0.868530,0.528992,1.707317,-10.243902,-12.560976
1548455765213,-0.120117,-0.868652,0.523743,1.341463,-8.536586,-12.926829
1548455765228,-0.105225,-0.870483,0.519043,1.097561,-7.682927,-13.292684
1548455765236,-0.097107,-0.872742,0.523682,0.731707,-8.475610,-13.414635
1548455765243,-0.097473,-0.875061,0.526184,0.670732,-10.182927,-13.658537
1548455765258,-0.105835,-0.876038,0.531799,0.914634,-11.646341,-13.780488
1548455765266,-0.109192,-0.872803,0.532104,1.280488,-12.743903,-13.658537
1548455765273,-0.106873,-0.870728,0.531921,1.585366,-12.195122,-13.048780
1548455765288,-0.105469,-0.870605,0.536255,2.256098,-11.219512,-12.134147
1548455765296,-0.108215,-0.873413,0.534912,3.048780,-10.365854,-11.402439
1548455765303,-0.105896,-0.870178,0.536804,3.658537,-9.695122,-11.158537
1548455765318,-0.101868,-0.866211,0.535522,3.902439,-9.085366,-11.524390
1548455765326,-0.096558,-0.867126,0.533142,3.902439,-8.414635,-12.256098
1548455765341,-0.080139,-0.871521,0.521851,3.902439,-7.804878,-13.170732
1548455765348,-0.067444,-0.870728,0.527893,3.170732,-7.500000,-13.597561
1548455765356,-0.062744,-0.868774,0.532043,1.890244,-8.658537,-13.597561
1548455765363,-0.066223,-0.874695,0.527893,1.158537,-9.939025,-13.109756
1548455765378,-0.076660,-0.873779,0.536987,0.365854,-11.646341,-12.682927
1548455765386,-0.086609,-0.868774,0.540588,-0.060976,-12.987805,-12.743903
1548455765393,-0.085815,-0.871277,0.538635,0.243902,-12.439025,-12.987805
1548455765408,-0.078003,-0.873108,0.543030,0.243902,-10.914635,-12.743903
1548455765416,-0.065857,-0.870178,0.540222,0.487805,-9.329268,-12.439025
1548455765423,-0.057739,-0.871155,0.538818,0.853659,-8.414635,-12.378049
1548455765438,-0.061157,-0.872070,0.542969,1.158537,-8.597561,-12.439025
1548455765446,-0.057861,-0.870972,0.541077,1.158537,-8.841464,-12.682927
1548455765453,-0.051208,-0.868408,0.537415,1.524390,-8.780488,-12.865854
1548455765468,-0.047241,-0.872375,0.538635,1.463415,-8.353659,-13.048780
1548455765476,-0.040161,-0.876160,0.538879,1.097561,-8.353659,-13.414635
1548455765483,-0.042053,-0.877075,0.537109,0.609756,-8.780488,-13.536586
1548455765498,-0.044739,-0.878540,0.540527,0.121951,-9.268292,-13.048780
1548455765506,-0.047546,-0.876648,0.539429,-0.304878,-9.451220,-12.317074
1548455765513,-0.043701,-0.873291,0.535828,-0.487805,-8.536586,-12.256098
1548455765536,-0.039246,-0.868835,0.537170,-0.792683,-7.621952,-12.378049
1548455765536,-0.036926,-0.865906,0.537903,-0.914634,-7.500000,-12.317074
1548455765543,-0.035095,-0.865417,0.537048,-0.121951,-7.500000,-12.134147
1548455765566,-0.034668,-0.871155,0.539856,0.609756,-7.134147,-12.012196
1548455765566,-0.033081,-0.873779,0.541199,1.097561,-6.707317,-12.012196
1548455765573,-0.023865,-0.873596,0.536255,1.341463,-6.036585,-12.012196
1548455765588,-0.013489,-0.872437,0.537903,0.548781,-4.817073,-11.951220
1548455765596,-0.010254,-0.872314,0.533752,0.121951,-5.000000,-11.951220
1548455765603,-0.010925,-0.870972,0.532227,-0.304878,-5.792683,-12.378049
1548455765618,-0.009888,-0.863831,0.532715,-0.853659,-6.585366,-12.743903
1548455765626,-0.007690,-0.861633,0.528809,-0.609756,-7.195122,-12.804878
1548455765633,-0.004578,-0.864197,0.530701,-0.670732,-7.256098,-12.682927
1548455765648,-0.006165,-0.864563,0.534668,-0.548781,-7.378049,-12.804878
1548455765656,-0.006531,-0.864136,0.537476,-0.182927,-7.682927,-13.170732
1548455765678,-0.004517,-0.865845,0.533508,0.182927,-7.500000,-13.170732
1548455765686,-0.003235,-0.872314,0.531189,0.731707,-7.134147,-13.231708
1548455765686,0.001953,-0.874268,0.538757,1.036585,-6.585366,-13.109756
1548455765693,0.009705,-0.871277,0.537903,1.036585,-6.158537,-13.231708
1548455765708,0.016296,-0.874695,0.532898,1.219512,-6.158537,-13.597561
1548455765716,0.016296,-0.873108,0.532654,0.670732,-6.646342,-13.536586
1548455765723,0.016968,-0.875000,0.534973,0.609756,-7.134147,-13.231708
1548455765739,0.022034,-0.874329,0.535645,0.182927,-7.073171,-12.865854
1548455765746,0.022766,-0.871704,0.535522,-0.304878,-7.256098,-12.500000
1548455765753,0.022949,-0.872986,0.535583,-0.243902,-7.378049,-12.317074
1548455765768,0.023804,-0.872803,0.535278,-0.182927,-7.500000,-12.439025
1548455765776,0.022827,-0.869263,0.540710,0.365854,-7.804878,-12.256098
1548455765783,0.023132,-0.868713,0.541687,0.975610,-7.256098,-11.707317
1548455765798,0.026855,-0.881287,0.533508,2.073171,-6.402439,-11.158537
1548455765806,0.034241,-0.884644,0.538452,2.012195,-5.243903,-10.670732
1548455765813,0.038635,-0.876526,0.543396,1.463415,-4.756098,-10.304878
1548455765828,0.043396,-0.876526,0.539001,1.524390,-5.060976,-9.817074
1548455765836,0.043396,-0.884277,0.536194,0.914634,-5.000000,-9.085366
1548455765851,0.037537,-0.885193,0.537476,0.304878,-5.000000,-8.231708
1548455765858,0.028931,-0.879272,0.541687,0.000000,-5.670732,-7.926829
1548455765866,0.034302,-0.874084,0.539856,-0.243902,-5.182927,-7.865854
1548455765873,0.050781,-0.871643,0.527222,-0.182927,-3.780488,-7.804878
1548455765888,0.056030,-0.861206,0.535400,-0.609756,-2.743902,-7.865854
1548455765896,0.056213,-0.859863,0.535522,-0.060976,-3.719512,-8.170732
1548455765903,0.060913,-0.866821,0.529175,1.524390,-4.634146,-7.987805
1548455765918,0.062927,-0.870422,0.532288,1.646341,-4.756098,-7.439024
1548455765926,0.058411,-0.869568,0.540710,1.036585,-5.670732,-7.500000
1548455765933,0.052612,-0.873779,0.536682,0.914634,-6.402439,-7.256098
1548455765970,0.047974,-0.875061,0.538635,0.792683,-6.036585,-6.585366
1548455765971,0.049683,-0.870178,0.539734,0.304878,-5.426829,-6.158537
1548455765972,0.049316,-0.868530,0.538330,-0.182927,-4.878049,-6.402439
1548455765978,0.057556,-0.865784,0.532898,-0.304878,-4.207317,-6.646342
1548455765986,0.069824,-0.869995,0.532166,0.487805,-3.292683,-5.914634
1548455765993,0.071350,-0.874390,0.539246,0.853659,-2.987805,-5.487805
1548455766016,0.069519,-0.871521,0.541199,1.097561,-4.207317,-5.426829
1548455766023,0.060608,-0.869507,0.540161,1.524390,-5.060976,-5.121951
1548455766024,0.059509,-0.868408,0.540527,1.951220,-5.548780,-4.695122
1548455766038,0.065186,-0.869995,0.534912,2.256098,-4.878049,-4.207317
1548455766046,0.069702,-0.872620,0.535095,2.256098,-3.902439,-4.024390
1548455766053,0.070862,-0.869446,0.540344,1.707317,-3.902439,-4.390244
1548455766084,0.070496,-0.870483,0.537842,1.402439,-4.390244,-4.634146
1548455766084,0.066101,-0.873413,0.540527,0.792683,-4.512195,-4.207317
1548455766084,0.061279,-0.869385,0.540222,0.731707,-4.329268,-3.780488
1548455766098,0.069153,-0.867310,0.534302,1.280488,-3.658537,-3.170732
1548455766106,0.073120,-0.864624,0.536499,1.341463,-2.682927,-2.804878
1548455766150,0.073547,-0.865784,0.538757,1.646341,-2.682927,-3.170732
1548455766153,0.075317,-0.869507,0.536133,1.890244,-2.682927,-3.292683
1548455766153,0.077332,-0.870117,0.538940,1.890244,-2.865854,-2.987805
1548455766153,0.074036,-0.869812,0.545105,1.585366,-2.804878,-2.682927
1548455766163,0.077881,-0.867004,0.545410,1.341463,-2.743902,-2.256098
1548455766167,0.078613,-0.873962,0.543396,0.670732,-2.317073,-1.707317
1548455766174,0.074341,-0.878418,0.545288,0.060976,-2.378049,-1.341463
1548455766188,0.070740,-0.880188,0.545837,-0.365854,-2.378049,-0.914634
1548455766196,0.069153,-0.875916,0.546448,-0.975610,-1.707317,-0.792683
1548455766204,0.070618,-0.871155,0.540955,-1.463415,-1.158537,-0.792683
1548455766218,0.073425,-0.867615,0.540039,-2.012195,-0.548781,-0.731707
1548455766226,0.079651,-0.867737,0.535461,-2.073171,-0.060976,-0.670732
1548455766248,0.083130,-0.869690,0.536438,-2.195122,0.365854,-0.243902
1548455766249,0.079163,-0.870056,0.535767,-2.256098,0.304878,0.182927
1548455766256,0.076050,-0.867310,0.532166,-2.195122,-0.365854,0.243902
1548455766263,0.073914,-0.863525,0.532532,-2.560976,-0.609756,0.426829
1548455766278,0.073303,-0.860962,0.533386,-2.743902,-0.304878,0.792683
1548455766286,0.074036,-0.859497,0.533569,-2.439024,-0.121951,0.792683
1548455766293,0.076111,-0.861145,0.532715,-1.951220,0.060976,0.548781
1548455766308,0.078613,-0.865906,0.532104,-1.585366,0.060976,0.304878
1548455766315,0.077576,-0.867188,0.533630,-1.341463,-0.060976,0.182927
1548455766323,0.076904,-0.866150,0.531799,-1.219512,-0.121951,0.426829
1548455766339,0.078064,-0.868042,0.532715,-1.463415,-0.182927,0.548781
1548455766354,0.075012,-0.865845,0.530151,-1.402439,-0.426829,0.487805
1548455766361,0.075500,-0.865845,0.529480,-1.463415,-0.487805,0.426829
1548455766369,0.075134,-0.865662,0.528503,-1.463415,-0.365854,0.487805
1548455766377,0.076416,-0.865295,0.527710,-1.341463,-0.304878,0.426829
1548455766384,0.077148,-0.864807,0.528564,-1.036585,-0.243902,0.365854
1548455766414,0.079224,-0.866821,0.530396,-0.792683,-0.121951,0.365854
1548455766414,0.079956,-0.868713,0.532776,-0.670732,-0.182927,0.304878
1548455766416,0.078491,-0.870605,0.530151,-0.609756,-0.304878,0.426829
1548455766428,0.077332,-0.869141,0.531250,-0.670732,-0.487805,0.548781
1548455766436,0.076538,-0.866089,0.530945,-0.853659,-0.609756,0.548781
1548455766444,0.073792,-0.864441,0.529480,-0.914634,-0.487805,0.487805
1548455766466,0.076660,-0.867004,0.528687,-1.158537,-0.365854,0.426829
1548455766466,0.078186,-0.867432,0.529236,-1.097561,-0.365854,0.243902
1548455766473,0.077698,-0.866821,0.530640,-0.853659,-0.426829,0.243902
1548455766489,0.077209,-0.866821,0.529907,-0.609756,-0.609756,0.426829
1548455766496,0.076477,-0.869141,0.530151,-0.487805,-0.609756,0.609756
1548455766504,0.071899,-0.872620,0.530273,-0.548781,-0.670732,0.731707
1548455766519,0.072510,-0.875244,0.531250,-0.914634,-0.548781,0.914634
1548455766527,0.070862,-0.873413,0.532349,-1.280488,-0.365854,0.975610
1548455766534,0.072388,-0.868408,0.528809,-1.585366,-0.182927,0.853659
1548455766548,0.073853,-0.867065,0.525574,-1.707317,-0.060976,0.731707
1548455766556,0.074585,-0.871765,0.525513,-1.585366,0.121951,0.731707
1548455766571,0.076172,-0.871399,0.529663,-1.402439,0.060976,0.670732
1548455766580,0.076538,-0.868896,0.528137,-1.219512,-0.182927,0.731707
1548455766587,0.075928,-0.868042,0.525330,-1.463415,-0.243902,0.731707
1548455766594,0.073547,-0.870850,0.528015,-1.585366,-0.365854,0.670732
1548455766612,0.074829,-0.871826,0.527954,-1.524390,-0.304878,0.792683
1548455766616,0.076416,-0.872559,0.526489,-1.829268,-0.243902,0.975610
1548455766631,0.073547,-0.873413,0.524292,-1.829268,-0.182927,0.975610
1548455766638,0.071838,-0.868774,0.526001,-1.768293,-0.304878,0.914634
1548455766646,0.071289,-0.865112,0.526428,-1.890244,-0.304878,0.731707
1548455766653,0.071655,-0.863525,0.524597,-1.768293,-0.060976,0.548781
1548455766668,0.075562,-0.864197,0.524597,-1.219512,0.060976,0.548781
1548455766676,0.078064,-0.864746,0.524597,-0.792683,0.060976,0.487805
1548455766683,0.077637,-0.868286,0.522583,-0.426829,-0.060976,0.426829
1548455766699,0.076660,-0.869690,0.524902,-0.243902,-0.426829,0.487805
1548455766707,0.072388,-0.871094,0.526367,-0.182927,-0.731707,0.548781
1548455766714,0.071167,-0.872620,0.522400,-0.365854,-0.853659,0.365854
1548455766729,0.069824,-0.871704,0.521912,-0.548781,-0.670732,0.365854
1548455766751,0.071289,-0.869263,0.520081,-0.548781,-0.365854,0.365854
1548455766752,0.071960,-0.867371,0.521729,-0.609756,-0.365854,0.243902
1548455766759,0.073975,-0.870483,0.523254,0.060976,-0.670732,0.000000
1548455766768,0.074829,-0.876038,0.522461,0.670732,-0.792683,-0.060976
1548455766774,0.078308,-0.874390,0.525146,1.036585,-0.853659,0.121951
1548455766804,0.075500,-0.871521,0.526978,1.036585,-1.036585,0.365854
1548455766805,0.073547,-0.870361,0.527832,0.853659,-1.219512,0.609756
1548455766805,0.070618,-0.873291,0.528870,0.853659,-1.036585,0.731707
1548455766819,0.067322,-0.875916,0.528198,0.853659,-0.731707,0.731707
1548455766826,0.068176,-0.876038,0.527161,0.731707,-0.182927,0.426829
1548455766857,0.072205,-0.876038,0.525818,0.365854,0.182927,0.182927
1548455766857,0.074280,-0.875000,0.523438,-0.243902,0.426829,0.243902
1548455766857,0.075439,-0.871277,0.521179,-0.670732,0.243902,0.365854
1548455766864,0.072510,-0.869568,0.523621,-0.670732,-0.304878,0.365854
1548455766879,0.069641,-0.869080,0.522766,-0.304878,-0.731707,0.304878
1548455766886,0.070679,-0.867737,0.520813,0.000000,-0.670732,0.243902
1548455766894,0.074707,-0.868164,0.524963,0.365854,-0.243902,0.426829
1548455766909,0.074707,-0.870117,0.525024,0.609756,-0.121951,0.487805
1548455766916,0.075134,-0.870850,0.526428,0.609756,-0.243902,0.487805
1548455766923,0.076111,-0.870667,0.527649,0.548781,-0.243902,0.487805
1548455766939,0.074646,-0.872070,0.529236,0.548781,-0.304878,0.487805
1548455766946,0.072632,-0.876526,0.527344,0.365854,-0.487805,0.548781
1548455766969,0.071533,-0.877136,0.525024,0.000000,-0.365854,0.487805
1548455766970,0.070557,-0.875488,0.525818,-0.304878,-0.365854,0.426829
1548455766976,0.070374,-0.871460,0.524353,-0.487805,-0.609756,0.426829
1548455766985,0.071289,-0.871033,0.524414,-0.670732,-0.731707,0.426829
1548455766999,0.068726,-0.871826,0.523193,-0.731707,-0.731707,0.365854
1548455767022,0.069458,-0.877075,0.524353,-0.548781,-0.426829,0.365854
1548455767022,0.072449,-0.877258,0.525024,-0.304878,-0.182927,0.243902
1548455767029,0.075439,-0.873535,0.522949,-0.426829,0.121951,0.243902
1548455767037,0.074402,-0.870789,0.522583,-0.609756,0.000000,0.426829
1548455767044,0.070679,-0.871338,0.522217,-0.548781,-0.487805,0.792683
1548455767060,0.067993,-0.871155,0.522034,-0.548781,-0.792683,0.914634
1548455767081,0.066895,-0.873230,0.522522,-0.426829,-0.731707,0.975610
1548455767082,0.069336,-0.874390,0.524719,-0.365854,-0.304878,0.792683
1548455767089,0.072388,-0.875305,0.523804,-0.487805,0.060976,0.548781
1548455767096,0.072144,-0.876465,0.523376,-0.609756,0.243902,0.487805
1548455767104,0.073303,-0.875427,0.524719,-1.036585,0.243902,0.365854
1548455767134,0.074036,-0.875366,0.521362,-1.158537,0.121951,0.487805
1548455767134,0.072754,-0.870911,0.519043,-1.341463,-0.182927,0.670732
1548455767135,0.070618,-0.872620,0.519409,-1.219512,-0.609756,0.792683
1548455767149,0.069458,-0.872131,0.520935,-0.914634,-0.853659,0.975610
1548455767156,0.067322,-0.871399,0.521912,-0.670732,-0.853659,0.975610
1548455767164,0.067932,-0.874146,0.523621,-0.365854,-0.792683,0.853659
1548455767186,0.068604,-0.875610,0.524963,-0.182927,-0.426829,0.914634
1548455767194,0.067261,-0.876831,0.525452,-0.365854,-0.182927,0.792683
1548455767195,0.068665,-0.875549,0.524170,-0.853659,0.060976,0.670732
1548455767209,0.073792,-0.872681,0.519287,-1.402439,0.182927,0.670732
1548455767216,0.072571,-0.871704,0.520508,-1.585366,0.121951,0.670732
1548455767224,0.072083,-0.871521,0.520386,-1.463415,-0.182927,0.609756
1548455767238,0.070312,-0.872803,0.517090,-1.280488,-0.426829,0.670732
1548455767246,0.066528,-0.876038,0.518555,-1.158537,-0.548781,0.731707
1548455767253,0.067566,-0.878357,0.521301,-1.036585,-0.670732,0.853659
1548455767270,0.067017,-0.877991,0.520813,-0.914634,-0.304878,0.792683
1548455767276,0.067932,-0.875122,0.521606,-1.158537,-0.060976,0.731707
1548455767284,0.067810,-0.875793,0.519592,-1.463415,0.182927,0.731707
1548455767299,0.067871,-0.873657,0.518005,-1.768293,0.182927,0.670732
1548455767306,0.069702,-0.871521,0.517578,-1.890244,0.060976,0.609756
1548455767313,0.069031,-0.872009,0.515015,-1.890244,-0.121951,0.670732
1548455767328,0.069763,-0.869873,0.513855,-1.646341,-0.121951,0.731707
1548455767336,0.070007,-0.872192,0.513794,-1.402439,-0.243902,0.731707
1548455767359,0.067688,-0.873474,0.517212,-0.914634,-0.426829,0.792683
1548455767360,0.068726,-0.874329,0.515442,-0.426829,-0.731707,0.792683
1548455767366,0.067932,-0.878540,0.514709,-0.182927,-0.853659,0.548781
1548455767374,0.068481,-0.876099,0.516602,-0.121951,-0.731707,0.548781
1548455767390,0.068481,-0.875305,0.514893,-0.121951,-0.792683,0.609756
1548455767411,0.065979,-0.874329,0.516602,0.000000,-0.975610,0.487805
1548455767412,0.064880,-0.873413,0.514954,0.243902,-1.036585,0.426829
1548455767419,0.065613,-0.874207,0.515991,0.304878,-0.792683,0.365854
1548455767429,0.067139,-0.875549,0.515747,0.487805,-0.426829,0.182927
1548455767434,0.071167,-0.876587,0.517212,0.670732,-0.365854,0.121951
1548455767449,0.069763,-0.876892,0.517944,0.487805,-0.487805,0.121951
1548455767464,0.069641,-0.878113,0.520081,0.548781,-0.853659,0.121951
1548455767465,0.070007,-0.878052,0.518372,0.609756,-1.036585,0.243902
1548455767479,0.070007,-0.876343,0.518677,0.548781,-0.975610,0.304878
1548455767487,0.066833,-0.878784,0.517883,0.243902,-0.914634,0.365854
1548455767494,0.065063,-0.878235,0.517334,0.060976,-0.853659,0.487805
1548455767524,0.063660,-0.878662,0.517578,0.000000,-0.792683,0.487805
1548455767524,0.065857,-0.880493,0.519104,-0.182927,-0.670732,0.243902
1548455767525,0.068481,-0.881897,0.519775,0.000000,-0.426829,0.060976
1548455767539,0.070190,-0.883057,0.519287,0.121951,-0.182927,0.060976
1548455767546,0.071045,-0.878235,0.519348,-0.121951,-0.304878,0.365854
1548455767554,0.070068,-0.877502,0.516602,-0.487805,-0.487805,0.548781
1548455767584,0.067932,-0.876526,0.519958,-0.670732,-0.487805,0.914634
1548455767584,0.066284,-0.882263,0.521179,-0.670732,-0.487805,1.280488
1548455767585,0.065308,-0.888367,0.519104,-0.670732,-0.365854,1.341463
1548455767599,0.064819,-0.886414,0.517090,-0.975610,-0.182927,1.280488
1548455767606,0.063782,-0.886658,0.518860,-1.585366,0.243902,1.463415
1548455767614,0.064026,-0.884094,0.515869,-2.378049,0.670732,1.707317
1548455767637,0.060242,-0.881165,0.514099,-2.804878,0.914634,1.768293
1548455767637,0.062378,-0.880249,0.516235,-3.170732,0.853659,1.829268
1548455767644,0.064880,-0.879456,0.515686,-3.170732,0.975610,1.707317
1548455767659,0.067322,-0.881165,0.513672,-3.292683,1.341463,1.707317
1548455767666,0.070374,-0.882812,0.515747,-3.780488,1.463415,2.012195
1548455767692,0.067383,-0.883911,0.514526,-3.963415,1.402439,2.560976
1548455767692,0.063965,-0.882629,0.514038,-4.268293,1.280488,3.109756
1548455767696,0.061646,-0.880920,0.517029,-4.390244,1.036585,3.292683
1548455767707,0.060364,-0.884766,0.513184,-4.634146,0.853659,3.292683
1548455767720,0.057678,-0.883545,0.513428,-4.695122,0.914634,3.170732
1548455767730,0.059814,-0.881897,0.514526,-4.756098,1.219512,3.231707
1548455767741,0.063110,-0.885986,0.505005,-5.000000,1.585366,3.353659
1548455767748,0.063904,-0.890564,0.505432,-5.426829,1.829268,3.658537
1548455767756,0.061035,-0.888428,0.504089,-5.670732,1.524390,3.963415
1548455767763,0.059021,-0.891602,0.500549,-5.914634,1.280488,4.268293
1548455767778,0.058899,-0.893250,0.502075,-5.975610,1.341463,4.390244
1548455767801,0.055664,-0.888184,0.498779,-5.670732,1.280488,4.573171
1548455767802,0.051758,-0.884705,0.494202,-5.304878,1.097561,5.365854
1548455767809,0.052734,-0.886841,0.498657,-5.060976,1.402439,6.158537
1548455767817,0.049011,-0.890259,0.500183,-4.634146,1.463415,6.402439
1548455767824,0.048889,-0.890076,0.500977,-4.146341,0.975610,6.524390
1548455767839,0.044312,-0.894104,0.501526,-4.085366,1.219512,6.463415
1548455767861,0.045471,-0.896545,0.502502,-4.268293,1.402439,6.951220
1548455767862,0.046631,-0.896362,0.501099,-4.695122,1.890244,7.195122
1548455767869,0.043701,-0.896606,0.500183,-5.182927,2.256098,6.890244
1548455767876,0.047852,-0.896790,0.498596,-5.731708,2.256098,7.012195
1548455767884,0.047913,-0.895447,0.495239,-5.975610,2.378049,7.682927
1548455767921,0.047180,-0.900269,0.493591,-6.158537,2.439024,8.414635
1548455767923,0.040894,-0.897705,0.496826,-6.463415,2.439024,8.841464
1548455767923,0.032410,-0.900024,0.494080,-6.768293,1.524390,9.329268
1548455767929,0.028076,-0.897705,0.490234,-7.073171,1.890244,9.756098
1548455767936,0.023926,-0.898987,0.488342,-7.195122,2.500000,9.817074
1548455767944,0.023804,-0.899658,0.492065,-7.134147,2.865854,10.121951
1548455767967,0.028992,-0.902588,0.489502,-7.073171,4.024390,10.853659
1548455767967,0.031982,-0.904114,0.492188,-7.378049,5.243903,11.158537
1548455767974,0.033264,-0.903809,0.488159,-7.621952,5.000000,11.524390
1548455767989,0.030090,-0.906555,0.487915,-7.926829,5.182927,11.524390
1548455768004,0.025024,-0.903198,0.488037,-8.536586,4.634146,11.707317
1548455768005,0.021912,-0.899841,0.484741,-8.902439,4.390244,11.890244
1548455768020,0.013550,-0.899170,0.481445,-8.963415,4.329268,11.951220
1548455768026,0.009827,-0.897888,0.481323,-9.024390,4.268293,12.500000
1548455768035,0.010986,-0.897766,0.480652,-8.536586,4.756098,12.804878
1548455768049,0.003601,-0.897522,0.478149,-8.414635,5.060976,12.682927
1548455768056,0.002197,-0.899231,0.472656,-7.865854,4.756098,12.621951
1548455768064,0.003052,-0.902527,0.470886,-7.317073,5.121951,12.621951
1548455768079,0.004456,-0.904236,0.473572,-7.073171,5.365854,12.682927
1548455768086,0.005615,-0.907654,0.471863,-6.646342,5.731708,12.195122
1548455768094,0.004456,-0.905823,0.470825,-6.951220,5.548780,12.439025
1548455768109,0.004700,-0.901489,0.469910,-7.134147,4.939024,12.987805
1548455768116,-0.002625,-0.902527,0.469727,-6.707317,4.634146,12.804878
1548455768124,-0.009949,-0.907837,0.470764,-6.219512,3.902439,12.926829
1548455768139,-0.017944,-0.907043,0.468628,-5.609756,3.780488,13.353659
1548455768147,-0.025574,-0.913147,0.465332,-4.512195,4.085366,13.597561
1548455768154,-0.023621,-0.910278,0.468018,-3.841464,4.329268,13.475610
1548455768169,-0.021545,-0.905884,0.464783,-3.658537,5.182927,13.292684
1548455768176,-0.018066,-0.907288,0.465332,-3.231707,5.365854,12.987805
1548455768184,-0.020569,-0.908142,0.463623,-2.743902,5.487805,12.560976
1548455768199,-0.020935,-0.914856,0.460876,-1.951220,5.487805,12.804878
1548455768206,-0.027344,-0.911316,0.468384,-1.951220,5.182927,13.658537
1548455768214,-0.034058,-0.909119,0.465515,-1.951220,4.817073,13.902439
1548455768229,-0.038879,-0.914185,0.460999,-1.341463,4.756098,14.024390
1548455768236,-0.041687,-0.916809,0.464539,-1.036585,4.878049,14.146341
1548455768244,-0.040405,-0.913391,0.467163,-1.524390,5.731708,13.963415
1548455768259,-0.041199,-0.919617,0.462341,-1.524390,6.341464,14.024390
1548455768269,-0.044861,-0.917908,0.463501,-2.378049,6.219512,14.146341
1548455768274,-0.047607,-0.913330,0.462036,-2.987805,6.158537,14.634147
1548455768289,-0.051025,-0.917664,0.458862,-2.743902,6.097561,14.695123
1548455768297,-0.055786,-0.916504,0.462708,-3.475610,6.097561,14.756098
1548455768304,-0.059082,-0.914062,0.460999,-3.414634,5.731708,15.182927
1548455768319,-0.060242,-0.917175,0.460022,-2.804878,6.036585,15.487805
1548455768326,-0.062073,-0.919922,0.460571,-2.560976,6.280488,15.731708
1548455768334,-0.064392,-0.917480,0.460815,-2.621951,6.158537,15.792684
1548455768349,-0.070557,-0.916504,0.457458,-2.195122,6.402439,15.914635
1548455768356,-0.074341,-0.923828,0.461365,-2.012195,6.768293,16.097561
1548455768364,-0.077332,-0.919128,0.462097,-2.743902,7.012195,16.707317
1548455768379,-0.080444,-0.920959,0.455872,-2.134146,7.560976,16.890244
1548455768386,-0.080872,-0.919861,0.456543,-2.560976,7.804878,16.707317
1548455768394,-0.089539,-0.916992,0.457520,-3.536585,7.987805,17.195122
1548455768409,-0.092712,-0.920898,0.453308,-3.353659,8.109756,17.560976
1548455768416,-0.093567,-0.911560,0.460693,-3.841464,7.987805,18.109756
1548455768424,-0.096558,-0.910156,0.453979,-3.170732,7.865854,18.353659
1548455768439,-0.100708,-0.914978,0.451538,-1.890244,7.865854,18.414635
1548455768446,-0.101257,-0.915771,0.451355,-1.219512,8.048780,19.146341
1548455768454,-0.104736,-0.921631,0.449768,-1.097561,8.414635,19.451220
1548455768469,-0.108948,-0.922852,0.451965,-1.585366,8.109756,19.817074
1548455768477,-0.111816,-0.912598,0.455872,-2.682927,8.414635,20.182928
1548455768484,-0.115601,-0.911560,0.451538,-2.926829,8.292683,20.182928
1548455768499,-0.121948,-0.914124,0.449707,-2.682927,8.353659,20.060976
1548455768514,-0.128235,-0.913818,0.453430,-2.195122,8.170732,20.243902
1548455768514,-0.134155,-0.920410,0.449097,-1.890244,8.536586,20.487804
1548455768529,-0.133484,-0.914612,0.451050,-1.951220,8.902439,20.609756
1548455768536,-0.135376,-0.908691,0.449707,-1.890244,9.390244,20.487804
1548455768544,-0.139954,-0.912781,0.447937,-1.463415,10.121951,20.548780
1548455768559,-0.141968,-0.918030,0.448242,-1.097561,10.000000,20.670732
1548455768567,-0.147217,-0.913330,0.444092,-1.036585,10.060976,20.487804
1548455768574,-0.152893,-0.917419,0.436462,-0.304878,9.695122,20.731709
1548455768589,-0.158020,-0.912109,0.443054,-0.487805,9.817074,21.036587
1548455768596,-0.164001,-0.907227,0.443115,-0.609756,9.451220,21.646341
1548455768604,-0.168945,-0.906921,0.443054,-0.060976,9.634147,21.829269
1548455768619,-0.179138,-0.903381,0.444763,0.243902,9.451220,21.890244
1548455768626,-0.182251,-0.912292,0.440186,0.853659,9.756098,21.646341
1548455768634,-0.180420,-0.914062,0.441589,0.243902,10.548780,21.158537
1548455768649,-0.178589,-0.913879,0.438904,-0.487805,10.975610,20.975611
1548455768656,-0.180786,-0.905518,0.441528,-1.646341,10.731708,20.792683
1548455768664,-0.185425,-0.901733,0.436523,-2.865854,10.060976,20.304878
1548455768679,-0.190979,-0.896851,0.433960,-3.048780,9.390244,19.756098
1548455768687,-0.190430,-0.895325,0.435059,-2.682927,9.024390,19.390244
1548455768694,-0.198242,-0.899231,0.435242,-2.134146,9.024390,19.329269
1548455768709,-0.204224,-0.906555,0.436523,-1.524390,8.536586,19.024391
1548455768716,-0.212158,-0.903198,0.437073,-1.768293,8.475610,19.024391
1548455768724,-0.214661,-0.897766,0.433960,-1.646341,8.536586,18.780489
1548455768739,-0.215698,-0.896851,0.430054,-1.951220,8.963415,18.536585
1548455768747,-0.225159,-0.896790,0.434998,-1.768293,9.268292,18.170732
1548455768754,-0.227112,-0.899963,0.432434,-1.280488,8.902439,17.987804
1548455768770,-0.226135,-0.901978,0.435120,-1.097561,9.451220,17.743902
1548455768776,-0.224182,-0.901672,0.430786,-0.975610,9.695122,17.682928
1548455768784,-0.227600,-0.896179,0.432495,-0.487805,9.451220,17.256098
1548455768799,-0.231934,-0.894226,0.430786,-0.365854,9.024390,16.951220
1548455768806,-0.237854,-0.898499,0.427673,0.121951,8.963415,16.646341
1548455768814,-0.244324,-0.897827,0.429077,0.670732,8.536586,16.524391
1548455768829,-0.246155,-0.894897,0.429077,0.914634,8.536586,16.219513
1548455768836,-0.247070,-0.897888,0.430359,1.402439,8.963415,16.158537
1548455768844,-0.250793,-0.900085,0.426025,1.524390,8.780488,16.036585
1548455768859,-0.258484,-0.897095,0.432617,1.463415,8.414635,15.853659
1548455768866,-0.262207,-0.898010,0.432312,1.280488,7.865854,15.914635
1548455768874,-0.263733,-0.894470,0.431946,0.914634,8.414635,15.670732
1548455768889,-0.264954,-0.889893,0.434265,0.914634,8.658537,15.731708
1548455768897,-0.267761,-0.893982,0.426758,1.768293,8.963415,15.548780
1548455768904,-0.272217,-0.887207,0.430542,2.256098,8.963415,15.121951
1548455768919,-0.272034,-0.885742,0.426941,2.682927,8.536586,14.878049
1548455768927,-0.272461,-0.887451,0.429077,3.658537,8.719512,14.573171
1548455768934,-0.276245,-0.889526,0.428894,4.634146,8.658537,14.573171
1548455768949,-0.279419,-0.889954,0.428650,5.365854,8.597561,14.695123
1548455768956,-0.287842,-0.895569,0.431152,5.243903,8.231708,14.878049
1548455768964,-0.289917,-0.893433,0.431580,4.756098,7.865854,14.878049
1548455768979,-0.293274,-0.886353,0.431030,3.658537,7.865854,14.573171
1548455768986,-0.292786,-0.884949,0.428467,3.292683,7.682927,14.146341
1548455768994,-0.294617,-0.885925,0.429016,3.292683,7.500000,13.475610
1548455769009,-0.296570,-0.884399,0.427979,3.109756,7.134147,13.109756
1548455769017,-0.301758,-0.879333,0.429993,2.987805,7.256098,13.292684
1548455769024,-0.309326,-0.875000,0.431763,3.231707,7.073171,13.658537
1548455769039,-0.313660,-0.880920,0.427795,3.902439,7.134147,13.719513
1548455769047,-0.313721,-0.881226,0.433350,4.878049,7.682927,13.536586
1548455769054,-0.309692,-0.877930,0.431152,5.304878,7.682927,13.109756
1548455769069,-0.304932,-0.881592,0.427063,5.975610,7.804878,12.500000
1548455769076,-0.307251,-0.882629,0.432068,6.097561,7.134147,12.317074
1548455769085,-0.314819,-0.878418,0.432861,5.548780,6.341464,11.951220
1548455769098,-0.327820,-0.873413,0.435608,4.756098,5.670732,11.829268
1548455769106,-0.335327,-0.871155,0.432922,4.573171,5.731708,11.646341
1548455769114,-0.335205,-0.867371,0.434753,4.878049,6.402439,11.951220
1548455769130,-0.333435,-0.868469,0.428223,5.000000,7.134147,11.890244
1548455769138,-0.329407,-0.866089,0.427856,5.000000,7.439024,11.463415
1548455769148,-0.327209,-0.864807,0.427185,4.939024,7.256098,10.792684
1548455769158,-0.329529,-0.865356,0.428711,5.121951,6.646342,10.121951
1548455769166,-0.328308,-0.867004,0.429199,5.060976,5.853659,9.512196
1548455769173,-0.325867,-0.859863,0.429504,4.634146,5.609756,8.963415
1548455769189,-0.331360,-0.857666,0.431946,4.329268,5.243903,8.536586
1548455769203,-0.338440,-0.860291,0.437988,4.573171,4.207317,7.926829
1548455769204,-0.345215,-0.855286,0.441650,4.939024,3.353659,7.560976
1548455769218,-0.351318,-0.862610,0.440063,5.304878,3.353659,7.317073
1548455769226,-0.350586,-0.864868,0.442749,5.853659,3.414634,6.890244
1548455769234,-0.347473,-0.864990,0.439758,5.548780,3.536585,6.280488
1548455769248,-0.347473,-0.863037,0.437988,5.182927,3.658537,5.731708
1548455769256,-0.344788,-0.868530,0.433960,4.817073,3.719512,5.243903
1548455769263,-0.350342,-0.868530,0.439087,3.902439,3.475610,5.060976
1548455769278,-0.352417,-0.867004,0.435913,3.048780,2.804878,5.304878
1548455769286,-0.352905,-0.863220,0.434326,2.256098,2.743902,5.000000
1548455769293,-0.351929,-0.863708,0.436096,1.158537,2.743902,4.512195
1548455769308,-0.350220,-0.863342,0.435669,0.365854,2.560976,4.146341
1548455769316,-0.354980,-0.852661,0.433411,-0.060976,2.134146,4.024390
1548455769323,-0.357239,-0.853088,0.430481,0.182927,2.195122,3.902439
1548455769339,-0.354797,-0.854004,0.432556,0.548781,2.134146,3.841464
1548455769347,-0.352844,-0.854187,0.431641,0.792683,2.073171,3.536585
1548455769354,-0.353333,-0.855652,0.433594,0.792683,1.951220,2.926829
1548455769370,-0.352722,-0.852722,0.432007,0.731707,1.280488,2.256098
1548455769376,-0.351379,-0.847473,0.427551,0.670732,0.548781,1.524390
1548455769384,-0.351074,-0.844299,0.429504,0.487805,0.121951,0.670732
1548455769399,-0.350586,-0.843750,0.429810,0.792683,-0.548781,-0.609756
1548455769407,-0.347351,-0.842773,0.426392,1.402439,-1.402439,-2.012195
1548455769414,-0.343018,-0.845398,0.428040,2.256098,-2.256098,-2.865854
1548455769429,-0.344299,-0.852173,0.431213,2.804878,-2.865854,-3.597561
1548455769436,-0.351562,-0.854370,0.433899,3.109756,-3.780488,-4.329268
1548455769444,-0.356445,-0.852234,0.440002,3.353659,-4.329268,-4.695122
1548455769459,-0.355591,-0.851868,0.442810,3.902439,-4.573171,-4.939024
1548455769466,-0.349426,-0.858521,0.445068,4.329268,-4.512195,-5.304878
1548455769474,-0.343384,-0.867432,0.445068,4.573171,-3.963415,-5.548780
1548455769489,-0.349487,-0.871704,0.452026,4.695122,-3.902439,-5.426829
1548455769496,-0.357056,-0.876770,0.455933,4.512195,-4.024390,-4.939024
1548455769504,-0.360962,-0.878906,0.456482,4.329268,-3.780488,-3.902439
1548455769520,-0.360168,-0.877869,0.458435,3.963415,-2.926829,-2.987805
1548455769526,-0.354919,-0.881531,0.457397,3.414634,-2.073171,-2.195122
1548455769534,-0.351868,-0.884033,0.455811,2.682927,-1.402439,-1.585366
1548455769550,-0.348389,-0.878235,0.454041,1.890244,-0.487805,-0.609756
1548455769557,-0.346619,-0.876465,0.449402,1.036585,0.182927,0.304878
1548455769564,-0.347107,-0.875549,0.448669,0.121951,0.609756,0.914634
1548455769581,-0.348328,-0.868958,0.445068,-0.182927,0.914634,1.341463
1548455769587,-0.346191,-0.865234,0.443604,-0.487805,0.975610,1.463415
1548455769594,-0.341492,-0.864197,0.441895,-0.792683,1.097561,1.585366
1548455769610,-0.336304,-0.860718,0.439514,-0.914634,1.036585,1.524390
1548455769617,-0.337830,-0.857361,0.439209,-0.853659,0.670732,1.280488
1548455769624,-0.342957,-0.856873,0.440613,-0.609756,-0.182927,0.914634
1548455769639,-0.345764,-0.857117,0.441345,-0.365854,-0.853659,0.853659
1548455769646,-0.345886,-0.857056,0.442505,-0.060976,-1.036585,0.731707
1548455769654,-0.347351,-0.856873,0.445496,0.243902,-1.158537,0.487805
1548455769669,-0.350769,-0.859253,0.447144,0.670732,-1.036585,0.426829
1548455769676,-0.346924,-0.858032,0.446411,0.975610,-1.036585,0.426829
1548455769685,-0.346069,-0.857849,0.446655,1.036585,-0.914634,0.365854
1548455769699,-0.347473,-0.860840,0.448059,1.402439,-1.097561,0.304878
1548455769707,-0.345215,-0.863647,0.447815,1.646341,-1.402439,0.304878
1548455769714,-0.348572,-0.866760,0.450745,1.524390,-1.646341,0.304878
1548455769729,-0.350891,-0.868408,0.450195,1.097561,-1.829268,0.426829
1548455769744,-0.351318,-0.863708,0.451782,0.670732,-1.890244,0.670732
1548455769746,-0.351929,-0.860046,0.453247,0.304878,-1.463415,0.609756
1548455769759,-0.351440,-0.859436,0.449219,0.365854,-0.731707,0.426829
1548455769767,-0.349609,-0.861816,0.443665,0.670732,-0.426829,0.304878
1548455769774,-0.349182,-0.864075,0.444397,0.853659,-0.243902,0.365854
1548455769789,-0.349182,-0.864868,0.448303,0.975610,-0.243902,0.548781
1548455769797,-0.348938,-0.868713,0.451416,1.036585,-0.426829,0.548781
1548455769804,-0.344604,-0.868896,0.450195,0.609756,-0.548781,0.548781
1548455769820,-0.344666,-0.862366,0.447021,0.121951,-0.670732,0.487805
1548455769826,-0.344849,-0.855896,0.449768,-0.182927,-0.548781,0.609756
1548455769834,-0.346863,-0.853882,0.450012,-0.121951,-0.548781,0.731707
1548455769850,-0.350037,-0.857178,0.451172,0.365854,-0.304878,0.548781
1548455769856,-0.352661,-0.857239,0.448608,1.036585,-0.182927,0.426829
1548455769864,-0.349304,-0.862061,0.445190,1.280488,0.121951,0.426829
1548455769879,-0.347900,-0.863220,0.446838,1.097561,0.243902,0.243902
1548455769887,-0.350342,-0.862854,0.444519,0.792683,0.060976,0.365854
1548455769894,-0.350403,-0.860840,0.444763,0.670732,-0.121951,0.487805
1548455769909,-0.346375,-0.859802,0.443115,0.548781,-0.060976,0.426829
1548455769916,-0.343018,-0.860107,0.442749,0.548781,-0.243902,0.182927
1548455769924,-0.340698,-0.860718,0.443542,0.548781,-0.609756,0.000000
1548455769939,-0.341187,-0.862793,0.447449,0.426829,-0.975610,0.000000
1548455769946,-0.345337,-0.860229,0.451477,0.365854,-1.402439,0.121951
1548455769955,-0.350952,-0.858093,0.453796,0.609756,-1.524390,0.487805
1548455769969,-0.355713,-0.857605,0.452942,0.853659,-1.524390,0.487805
1548455769977,-0.352600,-0.859314,0.452820,1.158537,-1.158537,0.304878
1548455769984,-0.350037,-0.862305,0.450745,1.341463,-0.853659,0.182927
1548455769999,-0.349182,-0.862549,0.448975,1.158537,-0.670732,0.121951
1548455770006,-0.347900,-0.860901,0.447632,0.792683,-0.731707,0.060976
1548455770014,-0.346375,-0.860046,0.448730,0.304878,-0.853659,-0.060976
1548455770029,-0.343262,-0.861755,0.446777,0.060976,-0.548781,-0.182927
1548455770036,-0.342529,-0.862244,0.448730,0.060976,-0.426829,-0.304878
1548455770044,-0.348450,-0.861938,0.447449,0.182927,-0.548781,-0.243902
1548455770059,-0.352295,-0.862610,0.443848,0.182927,-0.853659,0.060976
1548455770066,-0.351746,-0.859558,0.446106,0.182927,-0.792683,0.182927
1548455770074,-0.351135,-0.857788,0.446838,0.304878,-0.609756,0.304878
1548455770089,-0.348877,-0.858704,0.446594,0.731707,-0.670732,0.365854
1548455770096,-0.348022,-0.860413,0.447388,0.914634,-0.914634,0.182927
1548455770104,-0.346252,-0.861694,0.447327,0.609756,-0.853659,-0.243902
1548455770119,-0.345093,-0.861633,0.446960,0.548781,-0.792683,-0.426829
1548455770126,-0.343384,-0.860413,0.448853,0.609756,-0.731707,-0.365854
1548455770134,-0.347717,-0.861389,0.448059,0.548781,-0.792683,-0.060976
1548455770149,-0.351013,-0.859619,0.448486,0.853659,-1.036585,0.182927
1548455770156,-0.348633,-0.859436,0.448425,0.975610,-1.097561,0.000000
1548455770164,-0.343140,-0.863525,0.447083,1.036585,-0.853659,-0.182927
1548455770179,-0.341614,-0.862610,0.445435,1.097561,-0.975610,-0.243902
1548455770187,-0.343567,-0.860291,0.445496,1.036585,-1.280488,-0.243902
1548455770194,-0.345337,-0.860046,0.448853,0.853659,-1.524390,-0.365854
1548455770209,-0.346802,-0.860962,0.450867,0.731707,-1.768293,-0.243902
1548455770216,-0.350586,-0.859192,0.452209,0.792683,-1.768293,-0.060976
1548455770224,-0.351074,-0.857483,0.453552,0.975610,-1.524390,0.060976
1548455770239,-0.350159,-0.856812,0.455139,1.036585,-1.219512,-0.182927
1548455770246,-0.346436,-0.856628,0.453003,1.097561,-0.853659,-0.487805
1548455770254,-0.341980,-0.856750,0.448669,1.158537,-0.792683,-0.792683
1548455770269,-0.340027,-0.856567,0.449829,1.097561,-1.036585,-1.097561
1548455770277,-0.340454,-0.854553,0.450378,1.158537,-1.219512,-1.280488
1548455770284,-0.341248,-0.853210,0.447754,1.402439,-1.463415,-1.463415
1548455770299,-0.343384,-0.857117,0.447266,1.585366,-1.829268,-1.646341
1548455770306,-0.346375,-0.857056,0.448059,1.829268,-2.073171,-1.707317
1548455770314,-0.346497,-0.857666,0.450806,2.134146,-2.134146,-1.646341
1548455770336,-0.346436,-0.857910,0.451172,2.378049,-1.951220,-1.768293
1548455770337,-0.345276,-0.860474,0.454956,2.439024,-2.073171,-1.890244
1548455770344,-0.345520,-0.861267,0.455078,2.378049,-2.256098,-2.073171
1548455770359,-0.342468,-0.862488,0.454590,2.317073,-2.134146,-2.317073
1548455770366,-0.338135,-0.864258,0.453247,2.256098,-2.012195,-2.500000
1548455770374,-0.341614,-0.865112,0.456604,2.073171,-1.890244,-2.317073
1548455770389,-0.344971,-0.862183,0.457581,2.073171,-2.134146,-1.829268
1548455770397,-0.345215,-0.860107,0.456970,1.951220,-2.134146,-1.585366
1548455770404,-0.342346,-0.860291,0.454102,1.890244,-1.890244,-1.524390
1548455770420,-0.337219,-0.861938,0.452209,2.012195,-1.585366,-1.585366
1548455770426,-0.336060,-0.861389,0.451660,2.012195,-1.646341,-1.768293
1548455770434,-0.336792,-0.864197,0.451721,2.134146,-1.951220,-1.890244
1548455770449,-0.334778,-0.860168,0.456909,2.073171,-1.829268,-1.890244
1548455770464,-0.336243,-0.857239,0.457825,1.951220,-2.195122,-2.073171
1548455770464,-0.336304,-0.856689,0.457214,2.012195,-2.195122,-2.012195
1548455770479,-0.333740,-0.857178,0.460632,2.195122,-2.012195,-2.134146
1548455770486,-0.334595,-0.855652,0.457764,2.560976,-2.195122,-2.439024
1548455770494,-0.333679,-0.854980,0.457214,2.804878,-2.317073,-2.500000
1548455770517,-0.335510,-0.855774,0.459229,2.987805,-2.682927,-2.682927
1548455770519,-0.334412,-0.854736,0.454773,2.926829,-2.987805,-2.987805
1548455770524,-0.334839,-0.853455,0.451355,2.926829,-3.170732,-3.353659
1548455770540,-0.333801,-0.851379,0.455200,3.048780,-3.109756,-3.658537
1548455770546,-0.328796,-0.852966,0.458313,3.475610,-3.170732,-4.024390
1548455770554,-0.325439,-0.857483,0.458801,3.841464,-3.353659,-4.390244
1548455770569,-0.325989,-0.862671,0.459351,4.024390,-3.719512,-4.878049
1548455770577,-0.325989,-0.866943,0.461731,4.085366,-4.451220,-5.121951
1548455770584,-0.327026,-0.859802,0.465454,4.024390,-4.817073,-5.121951
1548455770599,-0.330383,-0.853149,0.468201,3.780488,-4.939024,-5.000000
1548455770606,-0.331116,-0.854614,0.466858,3.780488,-4.878049,-5.060976
1548455770614,-0.333496,-0.853943,0.468933,4.146341,-4.756098,-5.060976
1548455770629,-0.334351,-0.851257,0.468445,4.634146,-4.512195,-5.121951
1548455770636,-0.330505,-0.853394,0.469238,5.060976,-4.146341,-5.487805
1548455770644,-0.321777,-0.854980,0.466553,5.426829,-3.658537,-6.524390
1548455770659,-0.309875,-0.849854,0.463745,5.731708,-3.597561,-7.621952
1548455770666,-0.304443,-0.854980,0.463440,5.670732,-4.024390,-8.170732
1548455770674,-0.305054,-0.857605,0.462769,5.731708,-4.756098,-8.414635
1548455770689,-0.308594,-0.853394,0.464844,5.914634,-5.731708,-8.475610
1548455770696,-0.311279,-0.853638,0.471680,5.670732,-6.585366,-8.353659
1548455770704,-0.308716,-0.854675,0.473816,5.548780,-6.890244,-8.414635
1548455770719,-0.304626,-0.854431,0.475952,5.304878,-6.951220,-8.841464
1548455770726,-0.302063,-0.858521,0.479370,4.817073,-6.951220,-9.146341
1548455770736,-0.302002,-0.864014,0.479370,4.390244,-7.134147,-9.085366
1548455770749,-0.306396,-0.859802,0.484131,3.963415,-7.621952,-8.963415
1548455770756,-0.305847,-0.863464,0.482300,3.780488,-8.292683,-8.902439
1548455770764,-0.302490,-0.863770,0.480713,3.475610,-8.048780,-9.390244
1548455770779,-0.296204,-0.860840,0.479431,3.414634,-7.926829,-9.878049
1548455770787,-0.290710,-0.863708,0.476990,3.292683,-7.804878,-10.426829
1548455770794,-0.287231,-0.863586,0.478882,3.109756,-7.987805,-11.158537
1548455770810,-0.281677,-0.861084,0.483887,2.560976,-8.475610,-11.463415
1548455770816,-0.281921,-0.859497,0.486877,2.378049,-8.902439,-11.524390
1548455770824,-0.283447,-0.856628,0.481873,2.378049,-9.451220,-11.707317
1548455770839,-0.286438,-0.854797,0.480469,2.439024,-9.756098,-11.768293
1548455770847,-0.283508,-0.848755,0.478638,2.743902,-9.817074,-11.768293
1548455770855,-0.277710,-0.845825,0.481567,3.170732,-9.817074,-12.195122
1548455770869,-0.271423,-0.848694,0.477844,3.414634,-9.634147,-12.987805
1548455770877,-0.266968,-0.848999,0.478760,3.658537,-9.817074,-13.719513
1548455770884,-0.266968,-0.853577,0.483948,3.902439,-10.060976,-14.268293
1548455770899,-0.264099,-0.854980,0.483704,3.597561,-10.853659,-15.000000
1548455770907,-0.255371,-0.854309,0.485291,3.048780,-10.975610,-16.036585
1548455770914,-0.245789,-0.852661,0.486450,2.743902,-11.280488,-17.621952
1548455770929,-0.235352,-0.853149,0.488159,2.500000,-11.829268,-19.207317
1548455770936,-0.231445,-0.858337,0.489136,2.439024,-12.621951,-20.182928
1548455770944,-0.234558,-0.866882,0.490112,2.804878,-13.597561,-20.304878
1548455770960,-0.242432,-0.869812,0.492737,3.292683,-14.695123,-19.817074
1548455770966,-0.248413,-0.867493,0.499878,3.780488,-15.853659,-19.573172
1548455770974,-0.242920,-0.862610,0.505920,3.780488,-15.792684,-19.878050
1548455770989,-0.233154,-0.866516,0.503113,3.719512,-14.878049,-20.487804
1548455770997,-0.221802,-0.872192,0.503235,3.719512,-13.658537,-20.853659
1548455771004,-0.215149,-0.870544,0.504150,3.475610,-12.926829,-20.548780
1548455771019,-0.214294,-0.871887,0.507568,3.963415,-12.804878,-20.243902
1548455771026,-0.210144,-0.868896,0.511047,4.085366,-13.109756,-19.939024
1548455771034,-0.205688,-0.869141,0.503235,3.902439,-12.987805,-19.939024
1548455771049,-0.202148,-0.867981,0.504272,3.963415,-12.804878,-20.487804
1548455771056,-0.192322,-0.864502,0.509583,3.780488,-12.865854,-21.097561
1548455771065,-0.180176,-0.864258,0.508240,3.597561,-13.170732,-22.012196
1548455771081,-0.171570,-0.874268,0.508423,3.353659,-13.353659,-22.804878
1548455771086,-0.167603,-0.880798,0.507446,2.926829,-13.841464,-22.621952
1548455771094,-0.174988,-0.881165,0.514221,2.926829,-14.695123,-21.646341
1548455771109,-0.184570,-0.877380,0.521912,2.439024,-15.426829,-20.731709
1548455771116,-0.189209,-0.876099,0.525208,2.317073,-15.487805,-19.817074
1548455771124,-0.183655,-0.874268,0.523865,2.804878,-14.207317,-19.207317
1548455771139,-0.176575,-0.879761,0.518494,3.414634,-12.682927,-18.719513
1548455771146,-0.164062,-0.885559,0.518921,4.207317,-11.341464,-18.414635
1548455771155,-0.153137,-0.888794,0.521118,4.512195,-10.243902,-18.292683
1548455771185,-0.148682,-0.893372,0.520081,4.329268,-9.817074,-17.743902
1548455771186,-0.143188,-0.893066,0.521973,3.719512,-9.756098,-16.951220
1548455771187,-0.143311,-0.890381,0.521973,2.804878,-9.756098,-15.792684
1548455771199,-0.144592,-0.887085,0.524109,2.195122,-9.939025,-15.000000
1548455771206,-0.145203,-0.881042,0.525879,1.463415,-10.060976,-14.634147
1548455771214,-0.143921,-0.874939,0.520569,1.158537,-9.756098,-14.512196
1548455771229,-0.135925,-0.875244,0.515137,1.463415,-9.207317,-14.634147
1548455771236,-0.128540,-0.875183,0.512695,1.829268,-8.719512,-14.756098
1548455771244,-0.121582,-0.870667,0.515686,1.829268,-8.536586,-14.939025
1548455771259,-0.114197,-0.874512,0.517883,2.012195,-8.719512,-15.000000
1548455771268,-0.111023,-0.878906,0.517151,1.890244,-9.268292,-14.634147
1548455771274,-0.114380,-0.878601,0.521423,1.646341,-10.121951,-14.268293
1548455771289,-0.120850,-0.877869,0.526367,1.036585,-10.304878,-13.719513
1548455771296,-0.126221,-0.879517,0.525574,1.402439,-10.365854,-13.475610
1548455771304,-0.122070,-0.876343,0.526367,1.524390,-9.756098,-13.231708
1548455771319,-0.112122,-0.875000,0.524536,1.585366,-8.536586,-13.048780
1548455771326,-0.100830,-0.875244,0.523193,1.402439,-7.256098,-12.987805
1548455771334,-0.097168,-0.883057,0.521545,1.585366,-6.768293,-12.743903
1548455771349,-0.100952,-0.888367,0.526001,1.646341,-7.378049,-12.439025
1548455771357,-0.101135,-0.878418,0.530518,1.585366,-8.231708,-12.256098
1548455771364,-0.095581,-0.874146,0.523682,1.829268,-8.170732,-12.378049
1548455771379,-0.089233,-0.880737,0.523376,1.951220,-7.560976,-12.682927
1548455771386,-0.086182,-0.882080,0.521912,1.829268,-7.439024,-12.500000
1548455771394,-0.086121,-0.881287,0.524170,1.951220,-7.500000,-12.317074
1548455771409,-0.083191,-0.874512,0.521606,1.768293,-8.353659,-12.560976
1548455771416,-0.077698,-0.872131,0.518127,1.524390,-8.719512,-12.865854
1548455771425,-0.071228,-0.867859,0.520691,1.402439,-8.963415,-13.414635
1548455771439,-0.066895,-0.871887,0.524841,1.463415,-8.963415,-13.841464
1548455771446,-0.071045,-0.879333,0.525940,1.158537,-9.024390,-13.719513
1548455771454,-0.077637,-0.880066,0.526978,1.280488,-9.024390,-13.475610
1548455771469,-0.083252,-0.875122,0.528198,1.341463,-9.268292,-13.109756
1548455771477,-0.076355,-0.876892,0.525696,1.402439,-8.719512,-13.109756
1548455771484,-0.064880,-0.877319,0.525940,0.731707,-7.500000,-13.170732
1548455771499,-0.055542,-0.872986,0.526672,0.243902,-7.195122,-13.353659
1548455771506,-0.052917,-0.869995,0.526855,0.365854,-7.621952,-13.414635
1548455771514,-0.051331,-0.869568,0.529053,0.548781,-8.231708,-13.231708
1548455771529,-0.051270,-0.872742,0.531860,1.097561,-8.170732,-12.926829
1548455771536,-0.048218,-0.874268,0.531311,1.646341,-8.292683,-12.987805
1548455771544,-0.041382,-0.872864,0.532349,2.012195,-8.170732,-13.231708
1548455771559,-0.036804,-0.870239,0.534058,2.317073,-8.048780,-13.170732
1548455771566,-0.029968,-0.876282,0.528687,2.378049,-7.682927,-12.865854
1548455771574,-0.032593,-0.883850,0.529114,1.768293,-7.743903,-12.500000
1548455771589,-0.042664,-0.888306,0.536133,1.463415,-9.024390,-11.951220
1548455771596,-0.048035,-0.887329,0.534119,1.341463,-9.695122,-11.646341
1548455771604,-0.046387,-0.883362,0.532349,0.548781,-8.780488,-11.402439
