timestamp, accel_x, accel_y, accel_z, gyro_x, gyro_y, gyro_z
1548455368811,0.169556,-0.593140,-0.784851,1.097561,-1.158537,0.731707
1548455368819,0.170959,-0.602478,-0.794678,0.975610,-1.097561,0.670732
1548455368827,0.172180,-0.601807,-0.790588,0.670732,-0.792683,0.487805
1548455368834,0.172485,-0.602173,-0.788086,0.243902,-0.853659,0.365854
1548455368849,0.171143,-0.597107,-0.792542,-0.426829,-0.792683,0.365854
1548455368850,0.174133,-0.594727,-0.797424,-0.731707,-0.548781,0.304878
1548455368864,0.172119,-0.592896,-0.796082,-0.365854,-0.609756,0.304878
1548455368872,0.171204,-0.593201,-0.794373,0.182927,-0.670732,0.304878
1548455368879,0.171509,-0.597107,-0.794617,0.609756,-0.731707,0.304878
1548455368894,0.172363,-0.596558,-0.791931,1.097561,-0.731707,0.426829
1548455368902,0.168823,-0.600220,-0.792480,1.463415,-0.914634,0.365854
1548455368909,0.170776,-0.599182,-0.788513,1.524390,-1.097561,0.426829
1548455368939,0.168945,-0.598328,-0.785889,1.402439,-1.219512,0.609756
1548455368939,0.166931,-0.597900,-0.785400,1.219512,-1.402439,0.609756
1548455368940,0.166870,-0.597656,-0.785217,0.975610,-1.524390,0.731707
1548455368954,0.164551,-0.595459,-0.787048,0.670732,-1.463415,0.792683
1548455368961,0.165894,-0.597778,-0.787415,0.304878,-1.219512,0.670732
1548455368969,0.166565,-0.601746,-0.791931,0.304878,-1.158537,0.487805
1548455368984,0.167725,-0.601379,-0.792236,0.365854,-0.914634,0.365854
1548455368991,0.168457,-0.600769,-0.791382,0.243902,-0.792683,0.060976
1548455368999,0.168945,-0.600403,-0.793396,0.121951,-0.670732,-0.182927
1548455369014,0.171082,-0.598755,-0.792297,-0.121951,-0.609756,-0.243902
1548455369021,0.173279,-0.598511,-0.790466,-0.243902,-0.609756,-0.304878
1548455369029,0.172974,-0.597900,-0.791321,-0.243902,-0.548781,-0.243902
1548455369052,0.174805,-0.595276,-0.789612,-0.182927,-0.548781,-0.060976
1548455369052,0.174744,-0.594421,-0.790588,-0.121951,-0.487805,0.000000
1548455369059,0.174744,-0.592468,-0.794617,0.000000,-0.487805,0.060976
1548455369074,0.172241,-0.593811,-0.791443,0.304878,-0.731707,0.121951
1548455369081,0.169556,-0.595032,-0.792358,0.609756,-0.975610,0.243902
1548455369089,0.171265,-0.596497,-0.791077,0.548781,-1.036585,0.182927
1548455369104,0.169617,-0.595459,-0.792358,0.487805,-1.036585,0.182927
1548455369111,0.169312,-0.596741,-0.791870,0.426829,-1.036585,0.182927
1548455369119,0.170105,-0.598938,-0.790222,0.365854,-0.914634,0.121951
1548455369134,0.166870,-0.597961,-0.792175,0.365854,-0.792683,0.000000
1548455369142,0.168030,-0.597961,-0.788391,0.426829,-0.670732,0.060976
1548455369149,0.170166,-0.597107,-0.790771,0.426829,-0.487805,0.060976
1548455369164,0.169434,-0.597229,-0.790527,0.243902,-0.365854,0.060976
1548455369171,0.169800,-0.593201,-0.789307,-0.121951,-0.304878,0.000000
1548455369179,0.172485,-0.594116,-0.791016,-0.243902,-0.182927,0.000000
1548455369194,0.172729,-0.593689,-0.792236,-0.365854,-0.243902,0.000000
1548455369202,0.173157,-0.592773,-0.792297,-0.243902,-0.304878,0.121951
1548455369224,0.172852,-0.592957,-0.792419,0.000000,-0.609756,0.304878
1548455369225,0.173096,-0.595032,-0.790771,0.304878,-0.731707,0.365854
1548455369231,0.174194,-0.597046,-0.790710,0.670732,-0.853659,0.426829
1548455369239,0.173218,-0.596863,-0.791443,1.097561,-0.975610,0.487805
1548455369254,0.171631,-0.597229,-0.789307,1.158537,-1.158537,0.609756
1548455369261,0.170654,-0.600891,-0.786438,1.158537,-1.219512,0.609756
1548455369269,0.169006,-0.601257,-0.786255,1.097561,-1.219512,0.548781
1548455369284,0.168701,-0.600891,-0.785950,0.853659,-1.158537,0.426829
1548455369291,0.168213,-0.599182,-0.787720,0.548781,-1.036585,0.365854
1548455369299,0.168884,-0.599182,-0.788147,0.243902,-0.731707,0.304878
1548455369314,0.169189,-0.596130,-0.789978,0.000000,-0.609756,0.182927
1548455369322,0.169861,-0.596069,-0.791321,-0.060976,-0.365854,0.182927
1548455369329,0.171021,-0.595947,-0.792114,-0.121951,-0.426829,0.182927
1548455369344,0.172424,-0.594299,-0.792908,0.060976,-0.487805,0.182927
1548455369352,0.173035,-0.596375,-0.794617,0.365854,-0.548781,0.182927
1548455369359,0.175049,-0.595215,-0.792847,0.609756,-0.670732,0.243902
1548455369374,0.174438,-0.594849,-0.790405,0.975610,-0.975610,0.365854
1548455369381,0.170715,-0.598083,-0.790405,1.219512,-1.158537,0.487805
1548455369389,0.167419,-0.601074,-0.787354,1.219512,-1.341463,0.426829
1548455369411,0.165710,-0.601807,-0.788635,1.097561,-1.341463,0.487805
1548455369412,0.166382,-0.598816,-0.789917,0.792683,-1.280488,0.487805
1548455369419,0.166565,-0.600281,-0.788513,0.365854,-1.219512,0.365854
1548455369434,0.165955,-0.600037,-0.788940,0.243902,-0.975610,0.304878
1548455369441,0.166199,-0.598877,-0.789490,-0.060976,-0.670732,0.182927
1548455369449,0.170105,-0.596252,-0.793518,-0.365854,-0.609756,0.060976
1548455369464,0.173157,-0.593628,-0.793335,-0.365854,-0.609756,0.121951
1548455369472,0.173767,-0.594482,-0.791809,-0.121951,-0.609756,0.182927
1548455369479,0.174561,-0.593384,-0.792358,0.304878,-0.670732,0.121951
1548455369494,0.172791,-0.593201,-0.789917,0.487805,-0.731707,0.182927
1548455369501,0.170959,-0.593445,-0.788086,0.731707,-0.853659,0.365854
1548455369509,0.169983,-0.594543,-0.787842,0.975610,-1.036585,0.487805
1548455369524,0.168518,-0.597534,-0.790710,1.036585,-1.036585,0.487805
1548455369531,0.169495,-0.599915,-0.789856,0.792683,-0.914634,0.426829
1548455369539,0.168701,-0.600037,-0.790527,0.609756,-0.975610,0.304878
1548455369554,0.170776,-0.600342,-0.792969,0.426829,-0.853659,0.182927
1548455369562,0.171570,-0.600098,-0.790955,0.304878,-0.731707,0.182927
1548455369569,0.173523,-0.596741,-0.791016,0.243902,-0.670732,0.182927
1548455369584,0.171997,-0.598145,-0.794067,0.182927,-0.670732,0.182927
1548455369591,0.172668,-0.598145,-0.793335,0.487805,-0.731707,0.243902
1548455369599,0.170715,-0.598450,-0.792358,0.670732,-0.792683,0.304878
1548455369614,0.168213,-0.597595,-0.789307,0.670732,-0.792683,0.365854
1548455369621,0.169006,-0.595764,-0.791260,0.609756,-1.036585,0.548781
1548455369629,0.169434,-0.595215,-0.790833,0.609756,-1.036585,0.609756
1548455369644,0.170532,-0.595581,-0.790344,0.670732,-0.975610,0.487805
1548455369651,0.170654,-0.595093,-0.789429,0.975610,-1.158537,0.609756
1548455369659,0.170105,-0.596252,-0.789124,1.219512,-1.463415,0.853659
1548455369674,0.172729,-0.597778,-0.792358,1.402439,-1.524390,0.853659
1548455369681,0.171021,-0.598511,-0.793518,2.012195,-1.646341,1.036585
1548455369689,0.168762,-0.602356,-0.791077,2.621951,-1.829268,1.097561
1548455369704,0.167664,-0.603638,-0.788757,2.682927,-2.012195,0.975610
1548455369711,0.166809,-0.602722,-0.787170,2.378049,-2.073171,0.853659
1548455369719,0.166504,-0.601685,-0.787109,1.890244,-1.951220,0.670732
1548455369734,0.171448,-0.603638,-0.789612,1.463415,-1.890244,0.487805
1548455369741,0.170898,-0.605286,-0.792419,1.158537,-1.890244,0.487805
1548455369749,0.169250,-0.602539,-0.790710,1.219512,-1.890244,0.609756
1548455369765,0.171021,-0.598389,-0.791870,1.219512,-1.890244,0.731707
1548455369771,0.173035,-0.596069,-0.792358,1.280488,-2.073171,1.036585
1548455369779,0.172729,-0.591736,-0.792664,1.768293,-2.256098,1.219512
1548455369794,0.172791,-0.585815,-0.799072,2.378049,-2.439024,1.280488
1548455369802,0.167419,-0.589111,-0.787781,3.414634,-2.987805,1.524390
1548455369809,0.168030,-0.606934,-0.794495,4.939024,-3.414634,1.646341
1548455369824,0.167358,-0.613037,-0.798279,5.426829,-3.475610,1.768293
1548455369831,0.168030,-0.609802,-0.801147,5.975610,-3.780488,1.951220
1548455369839,0.168579,-0.601868,-0.804626,7.012195,-3.902439,2.621951
1548455369854,0.167542,-0.601624,-0.800293,8.109756,-4.329268,2.743902
1548455369861,0.169189,-0.599915,-0.801392,9.878049,-5.121951,3.109756
1548455369869,0.171875,-0.592712,-0.801758,12.134147,-5.853659,3.719512
1548455369884,0.170898,-0.587708,-0.802979,15.182927,-6.646342,4.634146
1548455369892,0.173279,-0.583130,-0.811951,19.085367,-7.560976,5.304878
1548455369899,0.172424,-0.591064,-0.818481,24.268293,-8.719512,6.158537
1548455369914,0.171204,-0.608215,-0.823242,30.487806,-10.609756,7.134147
1548455369921,0.174927,-0.611877,-0.837585,37.378048,-12.378049,7.804878
1548455369929,0.170593,-0.601990,-0.834656,44.939026,-14.329268,8.780488
1548455369944,0.160889,-0.589417,-0.818054,55.243904,-16.890244,9.817074
1548455369951,0.147461,-0.602295,-0.809448,67.621956,-19.390244,10.548780
1548455369959,0.137207,-0.629028,-0.789062,79.695122,-22.134148,10.792684
1548455369974,0.125122,-0.649658,-0.764038,90.731712,-24.146341,11.219512
1548455369981,0.124084,-0.665527,-0.747559,99.085365,-25.731709,11.341464
1548455369989,0.125305,-0.687134,-0.736206,104.756104,-26.524391,11.402439
1548455370004,0.114563,-0.712524,-0.719727,109.695122,-27.073172,12.865854
1548455370011,0.106873,-0.713379,-0.702881,115.000000,-28.292683,14.756098
1548455370019,0.104736,-0.700928,-0.695251,120.975609,-28.719513,15.975610
1548455370034,0.106506,-0.706787,-0.685303,129.756104,-29.024391,16.646341
1548455370041,0.105835,-0.747925,-0.663025,143.231705,-30.548780,17.865854
1548455370049,0.087402,-0.796143,-0.614319,159.329269,-32.439026,20.853659
1548455370064,0.067932,-0.848816,-0.581360,174.268295,-34.634148,25.975611
1548455370071,0.049500,-0.868774,-0.555237,184.695129,-35.670734,29.756098
1548455370079,0.036499,-0.883972,-0.519409,195.609756,-37.987804,36.219513
1548455370094,0.038818,-0.957581,-0.477112,207.256104,-39.512196,42.195122
1548455370102,0.045166,-0.990845,-0.436340,211.402451,-39.268295,41.585365
1548455370109,0.040710,-0.999268,-0.406433,211.341461,-40.609756,41.951221
1548455370124,0.031372,-1.026917,-0.371277,211.280487,-40.487804,42.195122
1548455370132,0.030884,-1.033997,-0.329224,209.085373,-38.719513,40.975609
1548455370139,0.030518,-1.041138,-0.280945,208.963425,-36.463417,41.829269
1548455370154,0.017212,-1.077881,-0.237976,208.353668,-33.658539,38.475609
1548455370162,-0.014648,-1.105591,-0.207947,202.743912,-29.329269,31.890245
1548455370169,-0.031799,-1.119385,-0.180542,193.475616,-25.609756,32.621952
1548455370184,-0.035889,-1.145691,-0.157471,184.939026,-22.987806,38.414635
1548455370191,-0.039551,-1.172485,-0.135193,177.012192,-21.585367,42.743904
1548455370199,-0.054749,-1.183350,-0.120239,167.865860,-20.609756,45.853661
1548455370214,-0.064331,-1.176025,-0.101318,157.439026,-19.085367,49.268295
1548455370221,-0.072693,-1.150024,-0.080566,147.682938,-17.743902,52.378052
1548455370229,-0.081177,-1.146667,-0.042664,140.243912,-15.000000,57.012196
1548455370244,-0.085510,-1.149292,-0.004883,135.609756,-12.987805,60.914635
1548455370251,-0.088928,-1.140869,0.031494,134.329269,-11.402439,64.695122
1548455370259,-0.090942,-1.154236,0.058167,135.304886,-8.902439,69.451218
1548455370274,-0.099915,-1.154419,0.066711,136.707321,-5.975610,74.146339
1548455370281,-0.120361,-1.131775,0.076172,137.560974,-3.231707,77.987808
1548455370289,-0.149902,-1.123291,0.096130,135.792679,0.182927,80.548782
1548455370304,-0.167419,-1.118958,0.118225,131.158539,3.902439,81.890244
1548455370311,-0.168335,-1.109741,0.139648,124.939026,6.341464,83.780487
1548455370319,-0.147461,-1.105286,0.151794,119.512199,8.597561,86.341469
1548455370334,-0.132507,-1.087952,0.167664,116.158539,10.731708,89.329269
1548455370341,-0.138000,-1.070251,0.194275,113.963417,12.865854,93.292686
1548455370349,-0.158264,-1.068298,0.215210,111.219513,16.158537,95.121956
1548455370364,-0.190735,-1.073425,0.213562,107.439026,19.329269,95.000000
1548455370375,-0.227600,-1.050903,0.210388,103.414635,21.768293,95.243904
1548455370411,-0.264587,-1.031067,0.216431,99.024391,24.024391,96.219513
1548455370411,-0.291138,-1.010498,0.222046,92.317078,25.853659,96.097565
1548455370411,-0.306213,-1.006897,0.240417,83.292686,27.256098,95.670731
1548455370415,-0.303833,-1.016479,0.261169,73.292686,28.719513,95.426834
1548455370425,-0.295044,-0.979858,0.278564,64.390244,29.817074,96.341469
1548455370439,-0.295471,-0.952393,0.295776,56.646343,30.853659,97.865852
1548455370441,-0.307495,-0.952820,0.296082,49.817074,32.804878,98.170731
1548455370454,-0.328491,-0.920105,0.292969,46.768295,34.085365,98.414635
1548455370461,-0.350647,-0.926636,0.312988,44.451221,36.341465,98.048782
1548455370470,-0.370850,-0.928467,0.305908,41.219513,39.817074,97.012199
1548455370484,-0.384094,-0.926086,0.323669,45.365856,38.414635,96.768295
1548455370491,-0.389832,-0.936890,0.351196,42.865856,39.695122,97.804878
1548455370499,-0.401794,-0.923523,0.350281,41.097561,40.975609,99.451225
1548455370514,-0.418640,-0.882263,0.334900,42.682926,42.134148,101.585365
1548455370521,-0.445679,-0.855896,0.316162,44.573174,44.512196,102.682930
1548455370529,-0.486877,-0.836060,0.319031,44.634148,46.341465,102.073174
1548455370544,-0.518982,-0.842041,0.332458,44.634148,47.073174,101.402443
1548455370551,-0.533813,-0.834473,0.342529,45.060978,47.500000,102.012199
1548455370559,-0.539307,-0.811584,0.353210,46.341465,48.353661,104.024391
1548455370574,-0.541504,-0.783691,0.356567,47.256100,49.756100,105.304878
1548455370581,-0.552185,-0.776855,0.360474,47.195122,51.097561,106.036591
1548455370589,-0.569885,-0.748474,0.349915,47.682926,51.951221,106.829269
1548455370604,-0.582092,-0.701111,0.331116,49.451221,53.048782,106.463417
1548455370611,-0.598328,-0.655701,0.288757,51.158539,55.487804,104.329269
1548455370619,-0.616516,-0.622375,0.262512,51.646343,57.500000,101.646347
1548455370634,-0.636597,-0.625122,0.263367,50.670734,58.048782,98.109756
1548455370641,-0.653442,-0.618774,0.264893,48.414635,56.707317,95.000000
1548455370649,-0.654358,-0.580872,0.259583,46.158539,55.365856,93.353661
1548455370664,-0.656372,-0.575745,0.283142,43.658539,55.121952,91.341469
1548455370671,-0.674438,-0.580200,0.300598,40.914635,54.390244,87.012199
1548455370679,-0.693420,-0.542969,0.286377,39.451221,52.682926,83.658539
1548455370694,-0.708252,-0.503296,0.237305,39.390244,53.475613,81.646347
1548455370701,-0.723694,-0.490234,0.213257,37.804878,55.121952,78.353661
1548455370709,-0.749023,-0.497620,0.188416,33.780487,54.634148,73.719513
1548455370724,-0.764465,-0.475586,0.194763,27.926830,51.951221,70.609756
1548455370732,-0.773743,-0.477905,0.221069,23.170732,49.756100,68.841469
1548455370739,-0.785156,-0.472534,0.222717,20.670732,47.012196,66.341461
1548455370754,-0.784607,-0.440002,0.238220,21.646341,44.634148,64.207321
1548455370762,-0.799500,-0.448486,0.236389,24.878050,44.756100,61.646343
1548455370769,-0.816467,-0.434387,0.226196,27.500000,43.353661,57.987804
1548455370784,-0.824158,-0.444031,0.244873,29.573172,43.109756,54.939026
1548455370791,-0.842041,-0.475037,0.246948,29.573172,43.231709,51.829269
1548455370799,-0.845215,-0.450256,0.235107,28.719513,41.219513,50.365856
1548455370814,-0.846924,-0.444336,0.228699,29.024391,41.951221,50.060978
1548455370821,-0.860962,-0.452026,0.218079,28.597561,42.073174,48.109756
1548455370829,-0.868225,-0.455750,0.216614,27.682928,40.670734,46.158539
1548455370844,-0.872620,-0.470459,0.217102,26.036587,40.853661,44.939026
1548455370851,-0.878479,-0.463135,0.223694,23.292683,39.817074,44.390244
1548455370859,-0.880981,-0.458313,0.229248,21.280489,38.902439,44.268295
1548455370881,-0.891724,-0.431519,0.214905,21.524391,38.902439,43.963417
1548455370882,-0.898010,-0.413696,0.203613,24.817074,39.329269,44.329269
1548455370889,-0.905579,-0.432983,0.200134,28.841465,40.609756,43.841465
1548455370904,-0.915405,-0.449280,0.210144,31.097561,40.243904,42.621952
1548455370911,-0.917053,-0.431458,0.198425,32.378048,39.512196,42.804878
1548455370919,-0.911133,-0.396057,0.166687,32.804878,39.817074,43.841465
1548455370934,-0.908936,-0.383362,0.143616,32.621952,40.792683,43.170734
1548455370941,-0.913757,-0.382080,0.143066,31.341465,40.365856,40.731709
1548455370949,-0.922363,-0.369690,0.133179,29.634148,38.536587,39.146343
1548455370964,-0.924377,-0.347351,0.132019,28.841465,36.829269,38.780487
1548455370971,-0.927551,-0.364502,0.163757,28.719513,36.463417,37.682926
1548455370979,-0.945557,-0.371582,0.160706,28.597561,34.817074,35.487804
1548455370994,-0.940369,-0.327820,0.151062,27.743902,32.987804,35.243904
1548455371001,-0.937622,-0.322998,0.131775,27.682928,34.207317,36.524391
1548455371009,-0.947205,-0.325439,0.133057,28.353659,33.414635,36.585365
1548455371024,-0.957520,-0.328125,0.131775,30.670732,32.012196,33.170731
1548455371032,-0.964417,-0.323242,0.121643,32.439026,31.646341,29.451220
1548455371039,-0.962830,-0.316589,0.127380,34.268295,31.036587,28.475611
1548455371054,-0.968445,-0.321045,0.137268,35.792683,30.609756,28.353659
1548455371061,-0.977173,-0.326111,0.150757,36.707317,30.000000,27.560976
1548455371069,-0.979309,-0.326782,0.145874,37.865856,29.756098,27.560976
1548455371084,-0.978149,-0.320557,0.128174,38.536587,30.243902,28.048780
1548455371091,-0.974121,-0.305786,0.088928,38.353661,30.609756,28.292683
1548455371099,-0.964661,-0.279114,0.045837,36.829269,30.365854,28.170732
1548455371114,-0.960815,-0.261047,0.013977,35.670734,29.695122,27.682928
1548455371121,-0.966248,-0.248108,-0.002991,34.634148,27.378050,26.951220
1548455371129,-0.969482,-0.239685,0.001892,32.865856,23.963415,26.097561
1548455371144,-0.975403,-0.234619,0.030334,29.085367,20.243902,25.060976
1548455371152,-0.981812,-0.233276,0.058167,22.560976,16.646341,23.597561
1548455371159,-0.982239,-0.234436,0.075867,14.695123,13.780488,21.463415
1548455371174,-0.980713,-0.226196,0.083557,6.158537,12.317074,18.170732
1548455371181,-0.983215,-0.231201,0.097412,-4.451220,11.585366,13.597561
1548455371189,-0.991089,-0.251282,0.085999,-17.012196,10.243902,10.243902
1548455371204,-0.991272,-0.249573,0.079956,-29.329269,8.780488,9.817074
1548455371211,-0.987183,-0.233582,0.079773,-38.170734,7.987805,9.268292
1548455371219,-0.982422,-0.219666,0.093323,-40.426830,6.341464,8.109756
1548455371234,-0.981079,-0.214722,0.104126,-34.573170,5.548780,7.804878
1548455371241,-0.990234,-0.211243,0.106201,-22.500000,6.890244,8.109756
1548455371249,-1.003479,-0.224792,0.127563,-10.609756,8.597561,7.621952
1548455371264,-1.017456,-0.249268,0.136719,-3.109756,9.695122,6.097561
1548455371271,-1.015869,-0.247314,0.115417,-1.768293,10.182927,5.487805
1548455371279,-1.011230,-0.257935,0.097290,-5.000000,12.012196,5.426829
1548455371294,-1.002930,-0.249084,0.057312,-10.060976,12.804878,5.182927
1548455371302,-0.991943,-0.225464,0.021179,-15.182927,12.317074,4.756098
1548455371309,-0.990601,-0.217041,0.012939,-18.231709,10.914635,3.353659
1548455371324,-0.991882,-0.208008,0.033875,-17.621952,8.292683,2.195122
1548455371331,-0.989746,-0.217224,0.048035,-13.231708,6.585366,1.463415
1548455371339,-0.985962,-0.253052,0.084534,-8.231708,6.463415,0.792683
1548455371354,-0.990845,-0.271423,0.071533,-4.451220,6.097561,-0.487805
1548455371362,-0.984192,-0.217651,0.023926,-2.926829,5.304878,-1.219512
1548455371369,-0.971924,-0.199097,-0.004639,-2.987805,6.280488,-1.890244
1548455371384,-0.972107,-0.241516,0.017334,-3.170732,5.182927,-4.451220
1548455371392,-0.976807,-0.253052,0.008240,-1.524390,1.585366,-6.646342
1548455371399,-0.977661,-0.238220,-0.004211,0.670732,-1.097561,-6.158537
1548455371414,-0.974976,-0.270813,0.022705,3.292683,-1.890244,-6.707317
1548455371422,-0.981506,-0.282532,0.029297,7.073171,-3.780488,-8.597561
1548455371429,-0.987366,-0.283936,0.039856,11.951220,-5.304878,-7.682927
1548455371444,-0.992859,-0.313354,0.070190,15.000000,-5.792683,-6.280488
1548455371452,-1.001526,-0.322937,0.094238,15.426829,-7.317073,-6.158537
1548455371459,-1.003235,-0.308838,0.091614,14.207317,-7.865854,-5.365854
1548455371474,-1.006592,-0.300720,0.084106,12.621951,-7.195122,-3.963415
1548455371481,-1.013062,-0.296265,0.081116,12.012196,-6.951220,-3.536585
1548455371489,-1.015015,-0.286133,0.069580,14.207317,-6.890244,-2.987805
1548455371504,-1.009094,-0.285461,0.064941,18.414635,-6.097561,-1.402439
1548455371511,-1.009277,-0.299744,0.074646,22.378050,-5.670732,-0.731707
1548455371519,-1.008118,-0.312500,0.084534,24.085367,-6.524390,-0.975610
1548455371534,-1.003235,-0.311462,0.083740,22.804878,-6.890244,-0.853659
1548455371541,-0.996948,-0.310059,0.098511,19.390244,-6.585366,-0.609756
1548455371549,-0.997070,-0.306946,0.098511,15.975610,-6.768293,-1.036585
1548455371564,-0.998169,-0.287231,0.083679,13.292684,-7.073171,-1.402439
1548455371571,-0.992737,-0.281555,0.076294,11.341464,-6.402439,-1.341463
1548455371579,-0.994629,-0.279358,0.069946,9.878049,-6.280488,-1.829268
1548455371594,-0.990967,-0.263428,0.061584,8.353659,-6.768293,-2.317073
1548455371601,-0.984985,-0.259583,0.067810,6.219512,-7.256098,-2.560976
1548455371609,-0.984436,-0.268005,0.087280,4.024390,-8.414635,-3.597561
1548455371624,-0.981445,-0.264954,0.089661,2.500000,-9.878049,-4.756098
1548455371631,-0.978333,-0.260864,0.090332,1.768293,-10.304878,-5.304878
1548455371639,-0.984375,-0.259827,0.091431,1.158537,-10.426829,-6.036585
1548455371654,-0.984009,-0.260620,0.085266,0.060976,-11.158537,-6.890244
1548455371661,-0.983704,-0.261169,0.088257,-1.463415,-11.585366,-7.500000
1548455371669,-0.984253,-0.255127,0.091797,-2.987805,-12.439025,-7.926829
1548455371684,-0.982605,-0.251221,0.098938,-4.268293,-13.536586,-8.536586
1548455371692,-0.984070,-0.257507,0.105103,-4.817073,-14.390244,-9.451220
1548455371699,-0.983643,-0.263245,0.108521,-4.024390,-15.182927,-10.609756
1548455371714,-0.986450,-0.264343,0.105835,-2.560976,-15.365854,-11.341464
1548455371722,-0.985962,-0.256897,0.097534,-1.768293,-15.487805,-11.951220
1548455371729,-0.983704,-0.260986,0.095703,-1.341463,-15.548780,-12.987805
1548455371744,-0.984741,-0.271545,0.084473,-1.219512,-15.914635,-14.146341
1548455371751,-0.980530,-0.273682,0.086304,-2.073171,-17.134148,-15.121951
1548455371759,-0.972168,-0.286499,0.098816,-3.475610,-18.048780,-15.914635
1548455371774,-0.972412,-0.290283,0.107117,-5.426829,-19.756098,-17.195122
1548455371782,-0.969543,-0.280945,0.104248,-7.500000,-21.463415,-18.353659
1548455371789,-0.965759,-0.280029,0.107605,-8.902439,-21.768293,-19.207317
1548455371804,-0.963745,-0.272888,0.095276,-8.963415,-22.743902,-20.243902
1548455371811,-0.954102,-0.258545,0.069580,-8.475610,-23.841463,-21.402439
1548455371819,-0.943359,-0.249756,0.059875,-7.804878,-24.512196,-22.682928
1548455371834,-0.938293,-0.278137,0.092102,-7.378049,-26.280489,-24.573172
1548455371841,-0.939514,-0.304993,0.115356,-6.585366,-29.756098,-27.012196
1548455371849,-0.933411,-0.303589,0.127747,-5.975610,-32.560978,-28.475611
1548455371864,-0.932495,-0.309570,0.133179,-6.524390,-33.231709,-29.390245
1548455371871,-0.938660,-0.313782,0.136658,-8.292683,-34.634148,-31.158537
1548455371879,-0.935608,-0.318604,0.146912,-10.121951,-36.341465,-33.414635
1548455371894,-0.935913,-0.320190,0.140808,-11.036586,-37.439026,-34.512196
1548455371901,-0.930542,-0.306641,0.125183,-10.914635,-38.902439,-35.000000
1548455371909,-0.920349,-0.310852,0.127075,-10.121951,-39.512196,-36.036587
1548455371924,-0.914612,-0.328430,0.138916,-9.085366,-41.280487,-38.048782
1548455371932,-0.901184,-0.362793,0.202148,-8.109756,-44.207317,-39.939026
1548455371939,-0.902527,-0.401489,0.239685,-6.585366,-46.524391,-41.158539
1548455371954,-0.901367,-0.391846,0.254761,-4.939024,-48.841465,-41.463417
1548455371961,-0.898438,-0.385071,0.249329,-2.560976,-47.195122,-41.524391
1548455371969,-0.902954,-0.384521,0.228027,-1.158537,-45.792683,-42.439026
1548455371984,-0.896606,-0.373291,0.187500,0.121951,-45.853661,-43.841465
1548455371991,-0.881592,-0.365601,0.142639,0.792683,-45.243904,-44.390244
1548455371999,-0.862549,-0.375000,0.143860,0.000000,-46.280487,-45.182926
1548455372014,-0.843872,-0.431274,0.218262,-2.073171,-49.878052,-47.256100
1548455372021,-0.835266,-0.471863,0.271851,-3.841464,-55.487804,-49.207317
1548455372029,-0.820374,-0.454712,0.306641,-4.634146,-59.207317,-49.207317
1548455372044,-0.814514,-0.456848,0.324219,-5.060976,-57.865856,-49.085365
1548455372051,-0.831116,-0.459351,0.304504,-6.036585,-57.743904,-51.341465
1548455372059,-0.826294,-0.440125,0.261353,-6.280488,-57.743904,-53.902439
1548455372074,-0.807190,-0.435425,0.213745,-5.609756,-55.792683,-54.329269
1548455372081,-0.789246,-0.448669,0.210205,-5.060976,-56.646343,-54.817074
1548455372089,-0.773254,-0.481995,0.239258,-4.817073,-60.243904,-56.402439
1548455372104,-0.753052,-0.489746,0.258667,-5.426829,-65.121956,-57.682930
1548455372111,-0.730347,-0.500061,0.344666,-6.951220,-68.231712,-58.536587
1548455372119,-0.734375,-0.542053,0.405762,-8.475610,-70.792686,-60.304878
1548455372134,-0.734070,-0.528198,0.410645,-9.268292,-74.146339,-62.317074
1548455372141,-0.721680,-0.498962,0.369995,-8.048780,-71.097565,-63.170734
1548455372149,-0.718689,-0.490662,0.322083,-7.195122,-67.378052,-64.085365
1548455372164,-0.708862,-0.497925,0.283264,-6.341464,-68.109756,-66.890244
1548455372171,-0.678589,-0.512634,0.290955,-5.121951,-70.243904,-69.024391
1548455372187,-0.654236,-0.557129,0.345642,-3.963415,-73.902443,-69.634148
1548455372194,-0.628906,-0.579590,0.395203,-2.621951,-80.365852,-70.548782
1548455372202,-0.595581,-0.596802,0.464539,-1.768293,-83.048782,-71.219513
1548455372209,-0.592590,-0.616089,0.482239,-1.768293,-83.719513,-71.829269
1548455372224,-0.588440,-0.599487,0.479553,-2.439024,-84.939026,-73.109756
1548455372231,-0.589722,-0.611938,0.457825,-2.743902,-81.951218,-74.817078
1548455372239,-0.595154,-0.612793,0.417786,-3.902439,-81.402443,-76.097565
1548455372254,-0.572327,-0.624817,0.419861,-4.024390,-82.134148,-76.524391
1548455372261,-0.545288,-0.694214,0.489441,-5.182927,-82.621956,-76.707321
1548455372269,-0.524719,-0.714172,0.503723,-6.585366,-88.048782,-76.829269
1548455372284,-0.480896,-0.662048,0.488647,-8.292683,-90.243904,-75.304878
1548455372291,-0.455750,-0.673340,0.504883,-9.817074,-86.402443,-74.268295
1548455372299,-0.459717,-0.680725,0.508911,-13.658537,-87.804878,-76.402443
1548455372314,-0.447815,-0.659363,0.470459,-8.841464,-90.731712,-78.658539
1548455372321,-0.421265,-0.692078,0.491760,-4.146341,-88.292686,-79.085365
1548455372329,-0.406616,-0.754517,0.553894,-4.695122,-89.939026,-80.243904
1548455372344,-0.377625,-0.760132,0.579590,-6.158537,-95.670731,-81.158539
1548455372351,-0.339417,-0.763306,0.606812,-9.146341,-94.756104,-80.121956
1548455372367,-0.328918,-0.782104,0.610840,-12.560976,-92.500000,-79.512199
1548455372374,-0.324280,-0.770203,0.611877,-15.670732,-93.292686,-80.000000
1548455372381,-0.313354,-0.828979,0.648315,-12.134147,-90.121956,-80.487808
1548455372389,-0.317383,-0.876648,0.662354,-11.341464,-89.024391,-80.182930
1548455372404,-0.302124,-0.834717,0.627991,-12.378049,-88.719513,-77.743904
1548455372419,-0.288757,-0.827454,0.602173,-12.317074,-82.987808,-75.487808
1548455372419,-0.290344,-0.854492,0.639893,-16.768293,-80.792686,-75.914635
1548455372434,-0.282837,-0.881348,0.687744,-19.939024,-82.926834,-76.768295
1548455372442,-0.244812,-0.903015,0.750916,-22.195122,-82.378052,-74.512199
1548455372449,-0.211243,-0.941833,0.789795,-25.975611,-78.597565,-70.914635
1548455372464,-0.195312,-0.894226,0.749268,-28.902439,-75.304878,-67.804878
1548455372471,-0.198914,-0.855408,0.698914,-20.426830,-67.865852,-65.670731
1548455372479,-0.224731,-0.870789,0.684631,-14.939025,-61.951221,-65.182930
1548455372494,-0.240051,-0.915527,0.698303,-9.695122,-61.036587,-65.060974
1548455372501,-0.214600,-0.920349,0.683167,-6.524390,-60.487804,-62.256100
1548455372509,-0.167664,-0.913269,0.685669,-6.829268,-57.073174,-57.195122
1548455372531,-0.146423,-0.951111,0.724548,-7.865854,-53.841465,-53.719513
1548455372532,-0.137390,-0.945190,0.740845,-7.560976,-53.963417,-51.646343
1548455372539,-0.126953,-0.924377,0.729126,-4.939024,-50.853661,-47.682926
1548455372554,-0.129822,-0.907715,0.689758,-0.853659,-45.000000,-43.780487
1548455372562,-0.133118,-0.899780,0.657471,2.682927,-41.585365,-42.256100
1548455372569,-0.135742,-0.917969,0.642334,4.634146,-38.902439,-41.158539
1548455372584,-0.131836,-0.925903,0.652832,4.024390,-37.804878,-38.292683
1548455372591,-0.113403,-0.944275,0.686768,2.378049,-37.500000,-34.695122
1548455372599,-0.097473,-0.941528,0.701904,0.609756,-36.951221,-31.829269
1548455372614,-0.076721,-0.897949,0.685425,0.060976,-35.304878,-28.353659
1548455372621,-0.070679,-0.877136,0.669006,2.012195,-30.914635,-25.487806
1548455372629,-0.083557,-0.875427,0.663635,5.426829,-28.048780,-25.243902
1548455372644,-0.083313,-0.861877,0.638489,8.170732,-27.743902,-25.548780
1548455372652,-0.066284,-0.827515,0.593933,7.500000,-25.670732,-24.634148
1548455372659,-0.047546,-0.809448,0.567383,3.902439,-24.085367,-23.475611
1548455372674,-0.034912,-0.845764,0.598083,-0.182927,-25.182928,-24.329269
1548455372682,-0.025146,-0.886353,0.643433,-1.646341,-27.378050,-24.939026
1548455372689,-0.013977,-0.860779,0.647949,-0.914634,-28.780489,-22.439024
1548455372704,-0.002747,-0.826660,0.625549,-0.121951,-26.463415,-19.085367
1548455372712,-0.027283,-0.836304,0.613831,0.243902,-23.170732,-19.207317
1548455372719,-0.074219,-0.846619,0.628052,2.073171,-22.682928,-20.548780
1548455372734,-0.078003,-0.837585,0.625183,7.987805,-20.548780,-17.073172
1548455372742,-0.037598,-0.927734,0.662781,22.195122,-14.451220,-9.268292
1548455372749,-0.002808,-0.938293,0.684021,35.182926,-8.719512,-2.682927
1548455372764,-0.001343,-0.887512,0.711914,36.463417,-6.219512,2.439024
1548455372779,-0.005249,-0.909119,0.747253,31.036587,-6.280488,4.756098
1548455372780,-0.016174,-0.913940,0.780518,29.878050,-6.890244,3.963415
1548455372794,-0.030579,-0.900391,0.787781,28.536587,-6.036585,4.878049
1548455372801,-0.048950,-0.904724,0.769653,25.182928,-3.719512,6.341464
1548455372809,-0.096436,-0.888245,0.752686,21.646341,-2.073171,6.768293
1548455372824,-0.103760,-0.870178,0.709717,16.158537,-2.256098,6.463415
1548455372839,-0.055908,-0.848389,0.678162,9.878049,-3.902439,0.365854
1548455372839,-0.001587,-0.809631,0.654236,7.865854,-4.695122,-3.536585
1548455372854,0.022583,-0.770081,0.630981,6.768293,-3.475610,-2.987805
1548455372861,0.023621,-0.740112,0.610168,6.707317,-1.768293,-1.829268
1548455372869,0.018921,-0.725586,0.597534,6.646342,-0.792683,-1.097561
1548455372884,0.012756,-0.727905,0.585449,5.000000,-0.548781,-0.670732
1548455372906,0.005981,-0.737000,0.585999,2.012195,-0.853659,-0.426829
1548455372907,-0.002014,-0.750122,0.595398,-1.036585,-1.219512,-0.365854
1548455372908,-0.014526,-0.767639,0.605408,-2.926829,-1.890244,-0.243902
1548455372921,-0.021240,-0.788879,0.621094,-3.109756,-2.378049,0.000000
1548455372929,-0.023438,-0.803101,0.645325,-1.402439,-2.500000,0.365854
1548455372959,-0.038269,-0.810242,0.674072,2.743902,-2.073171,2.378049
1548455372959,-0.041077,-0.820862,0.688721,4.024390,-1.951220,4.268293
1548455372960,-0.036987,-0.825134,0.708435,0.792683,-2.743902,2.500000
1548455372974,-0.034058,-0.821594,0.704651,-2.987805,-3.841464,-0.426829
1548455372981,-0.022827,-0.819092,0.695923,-6.890244,-4.207317,-2.378049
1548455372989,-0.013428,-0.815613,0.680725,-10.121951,-3.841464,-3.292683
1548455372996,-0.005859,-0.810303,0.660522,-12.621951,-3.292683,-3.414634
1548455373011,-0.001343,-0.806519,0.642334,-14.024390,-2.621951,-2.743902
1548455373019,-0.000916,-0.802307,0.630249,-13.902439,-2.134146,-1.890244
1548455373026,-0.005127,-0.800659,0.617981,-13.109756,-1.707317,-1.158537
1548455373049,-0.010681,-0.801575,0.611877,-12.378049,-1.585366,-1.158537
1548455373049,-0.013550,-0.803589,0.611694,-11.158537,-1.707317,-1.524390
1548455373056,-0.014648,-0.807800,0.612000,-9.634147,-1.951220,-1.951220
1548455373071,-0.014465,-0.812195,0.620605,-7.378049,-2.256098,-2.134146
1548455373086,-0.014343,-0.817383,0.627441,-4.695122,-2.378049,-1.890244
1548455373087,-0.011719,-0.819763,0.635803,-2.378049,-2.378049,-1.707317
1548455373101,-0.013489,-0.817627,0.636902,-0.487805,-2.682927,-1.585366
1548455373109,-0.014404,-0.815308,0.632690,0.426829,-2.682927,-1.524390
1548455373116,-0.010254,-0.811951,0.631470,0.792683,-2.560976,-1.585366
1548455373131,-0.007507,-0.810669,0.630554,1.097561,-2.500000,-1.646341
1548455373139,-0.006897,-0.810181,0.631104,1.341463,-2.317073,-1.585366
1548455373146,-0.007080,-0.809265,0.632751,1.402439,-2.134146,-1.341463
1548455373161,-0.005127,-0.811279,0.632202,0.853659,-1.829268,-1.219512
1548455373169,-0.006226,-0.808838,0.631165,-0.060976,-1.768293,-1.402439
1548455373176,-0.007812,-0.811340,0.631104,-0.914634,-1.707317,-1.707317
1548455373192,-0.006531,-0.812378,0.635193,-1.402439,-1.951220,-2.012195
1548455373199,-0.005554,-0.810608,0.634827,-1.707317,-2.073171,-1.890244
1548455373206,-0.007019,-0.811035,0.634460,-1.707317,-2.073171,-1.829268
1548455373221,-0.008850,-0.811707,0.635071,-1.707317,-1.829268,-1.463415
1548455373229,-0.011230,-0.813721,0.634521,-1.646341,-1.707317,-1.219512
1548455373236,-0.009155,-0.812073,0.633667,-1.707317,-1.707317,-1.036585
1548455373251,-0.010315,-0.809875,0.629944,-1.890244,-1.707317,-1.097561
1548455373259,-0.007935,-0.809143,0.627686,-1.951220,-1.707317,-1.097561
1548455373281,-0.001404,-0.809937,0.629028,-1.890244,-1.646341,-1.158537
1548455373282,0.000366,-0.811401,0.631104,-1.585366,-1.768293,-1.097561
1548455373289,-0.001404,-0.809631,0.628357,-1.219512,-1.707317,-0.792683
1548455373297,-0.003357,-0.812073,0.629089,-1.036585,-1.646341,-0.487805
1548455373312,-0.005615,-0.813599,0.630188,-0.975610,-1.524390,-0.487805
1548455373326,-0.005249,-0.814026,0.627930,-1.036585,-1.585366,-0.548781
1548455373328,-0.003784,-0.812378,0.629395,-1.280488,-1.646341,-0.548781
1548455373342,-0.002380,-0.812134,0.631165,-1.402439,-1.585366,-0.670732
1548455373349,-0.000549,-0.814209,0.630798,-1.585366,-1.646341,-0.670732
1548455373356,0.000916,-0.813843,0.628662,-1.768293,-1.707317,-0.731707
1548455373379,0.001038,-0.816589,0.628662,-2.195122,-1.707317,-0.792683
1548455373380,0.003052,-0.816589,0.628235,-2.560976,-1.707317,-0.792683
1548455373386,0.004456,-0.816833,0.625549,-2.865854,-1.768293,-0.975610
1548455373401,0.004456,-0.816772,0.626099,-2.987805,-1.829268,-0.914634
1548455373409,0.004700,-0.816650,0.625610,-2.987805,-1.890244,-0.853659
1548455373416,0.005005,-0.817505,0.624939,-2.500000,-1.768293,-0.792683
1548455373432,0.003296,-0.815918,0.623352,-2.073171,-1.768293,-0.609756
1548455373439,0.002808,-0.817993,0.623901,-1.524390,-1.829268,-0.365854
1548455373454,0.002563,-0.821960,0.631287,-1.402439,-1.768293,-0.182927
1548455373461,0.001648,-0.823853,0.636292,-1.585366,-1.524390,0.000000
1548455373469,0.003296,-0.821228,0.631775,-2.012195,-1.280488,0.365854
1548455373476,0.003479,-0.817688,0.622742,-2.621951,-0.853659,0.731707
1548455373491,0.000122,-0.819885,0.623840,-2.560976,-0.243902,1.036585
1548455373499,-0.003418,-0.823303,0.625427,-1.890244,0.182927,1.646341
1548455373506,-0.003113,-0.821716,0.623718,-1.463415,0.487805,2.134146
1548455373521,-0.001709,-0.821777,0.618896,-1.219512,0.853659,2.317073
1548455373529,-0.004333,-0.819214,0.613892,-1.219512,1.097561,2.256098
1548455373536,-0.006348,-0.820374,0.618225,-0.853659,1.280488,2.256098
1548455373551,-0.008423,-0.823792,0.626404,0.060976,1.219512,2.256098
1548455373559,-0.008972,-0.824524,0.636902,0.609756,1.219512,2.317073
1548455373567,-0.007080,-0.823730,0.638794,0.365854,1.341463,2.317073
1548455373581,-0.005676,-0.824036,0.632507,-0.121951,1.524390,2.134146
1548455373589,-0.006592,-0.823303,0.617371,-0.548781,1.829268,2.134146
1548455373596,-0.009766,-0.815979,0.605591,-0.426829,2.195122,2.439024
1548455373611,-0.014404,-0.812744,0.598999,0.609756,2.134146,2.560976
1548455373619,-0.018127,-0.806885,0.601318,2.256098,1.768293,2.743902
1548455373626,-0.016235,-0.810242,0.613953,3.902439,1.097561,2.804878
1548455373642,-0.009155,-0.812256,0.631348,4.756098,0.304878,2.560976
1548455373649,0.000244,-0.817932,0.639648,4.512195,-0.182927,2.682927
1548455373656,-0.005066,-0.828796,0.636963,3.231707,-1.036585,4.817073
1548455373671,-0.009766,-0.818604,0.628052,1.219512,-1.402439,7.439024
1548455373679,-0.011108,-0.813721,0.622864,0.000000,0.182927,4.817073
1548455373686,-0.013062,-0.812561,0.619751,-0.060976,0.365854,1.890244
1548455373701,-0.013367,-0.812439,0.619629,0.365854,-0.243902,1.158537
1548455373709,-0.013062,-0.819336,0.628418,0.365854,-0.487805,1.219512
1548455373716,-0.008301,-0.819031,0.629944,0.243902,-0.609756,1.097561
1548455373731,-0.005188,-0.817810,0.634399,0.060976,-0.670732,0.365854
1548455373739,-0.007141,-0.827698,0.640808,0.121951,-0.609756,0.487805
1548455373747,-0.006531,-0.831665,0.637817,-0.060976,-0.548781,1.280488
1548455373761,-0.007080,-0.826355,0.629639,-0.731707,-0.304878,1.524390
1548455373769,-0.011841,-0.817566,0.614746,-0.914634,0.000000,1.341463
1548455373776,-0.014099,-0.812805,0.602112,-0.121951,0.121951,0.914634
1548455373791,-0.017883,-0.806641,0.605469,1.768293,-0.182927,0.670732
1548455373799,-0.017883,-0.808716,0.615784,3.719512,-0.670732,0.365854
1548455373806,-0.010803,-0.817749,0.623840,4.939024,-0.975610,-0.182927
1548455373821,-0.004089,-0.822083,0.639404,5.487805,-1.158537,-0.487805
1548455373829,0.000916,-0.826843,0.647400,6.280488,-1.097561,-0.548781
1548455373836,0.007751,-0.819519,0.648682,7.317073,-1.097561,-0.670732
1548455373851,0.009827,-0.806335,0.639465,8.963415,-1.158537,-1.158537
1548455373859,0.005676,-0.799927,0.630981,11.890244,-1.097561,-2.621951
1548455373866,-0.004822,-0.797974,0.633301,15.731708,-1.585366,-4.817073
1548455373881,-0.017639,-0.817993,0.646179,19.207317,-2.256098,-5.853659
1548455373889,-0.020264,-0.842163,0.666565,20.792683,-2.378049,-5.914634
1548455373896,-0.013245,-0.853149,0.689270,20.243902,-1.707317,-3.902439
1548455373911,-0.010864,-0.854248,0.699707,19.268293,0.000000,-0.731707
1548455373919,-0.010681,-0.842712,0.689087,19.390244,2.560976,2.621951
1548455373927,-0.016113,-0.838562,0.674988,20.670732,5.609756,5.548780
1548455373942,-0.028198,-0.842834,0.671448,21.219513,7.621952,7.317073
1548455373956,-0.041077,-0.848022,0.675720,20.487804,8.414635,8.048780
1548455373957,-0.044006,-0.850281,0.680664,17.865854,9.024390,9.451220
1548455373972,-0.038574,-0.852051,0.690674,13.597561,10.000000,11.219512
1548455373979,-0.031799,-0.856934,0.700623,9.634147,11.219512,12.621951
1548455373987,-0.032166,-0.861572,0.703186,6.585366,12.378049,13.963415
1548455374002,-0.037598,-0.851929,0.700500,4.695122,13.841464,15.670732
1548455374009,-0.044434,-0.839844,0.703674,2.865854,15.365854,17.682928
1548455374017,-0.053162,-0.833923,0.703064,1.036585,16.463415,19.390244
1548455374031,-0.057190,-0.824768,0.702942,0.365854,17.804878,20.670732
1548455374039,-0.060059,-0.828857,0.709778,1.341463,19.329269,22.317074
1548455374046,-0.066711,-0.838013,0.716797,3.292683,20.426830,23.780489
1548455374069,-0.068604,-0.835876,0.716370,5.365854,21.585367,25.304878
1548455374070,-0.071838,-0.834961,0.722290,6.768293,23.292683,27.134148
1548455374076,-0.080505,-0.838806,0.728882,6.951220,24.878050,28.353659
1548455374091,-0.086060,-0.829346,0.727905,6.036585,25.792683,29.146341
1548455374099,-0.088623,-0.822021,0.731689,5.304878,27.804878,30.365854
1548455374106,-0.095032,-0.822510,0.732666,4.451220,29.329269,31.402439
1548455374122,-0.094727,-0.814636,0.729492,3.719512,30.548780,32.073170
1548455374129,-0.098694,-0.812744,0.731018,3.719512,32.621952,32.926830
1548455374136,-0.111084,-0.806030,0.727844,4.329268,34.207317,34.207317
1548455374151,-0.124573,-0.798645,0.717896,5.426829,35.853661,35.365856
1548455374159,-0.142029,-0.801636,0.711975,6.646342,37.926830,35.853661
1548455374166,-0.158264,-0.797668,0.710693,7.926829,39.146343,36.280487
1548455374181,-0.165466,-0.795715,0.709045,8.902439,40.487804,36.890244
1548455374189,-0.167114,-0.799622,0.713257,9.024390,42.073174,37.500000
1548455374196,-0.166321,-0.792908,0.707458,8.719512,43.292683,37.987804
1548455374211,-0.167908,-0.783630,0.709351,8.109756,44.390244,38.658539
1548455374219,-0.179810,-0.794067,0.719482,7.682927,45.792683,39.024391
1548455374226,-0.194702,-0.783020,0.713928,7.439024,45.853661,39.146343
1548455374241,-0.202087,-0.771729,0.697083,7.560976,47.682926,40.365856
1548455374249,-0.216370,-0.779663,0.693481,6.585366,50.365856,40.731709
1548455374256,-0.232300,-0.779846,0.697815,4.512195,50.182926,40.365856
1548455374271,-0.238831,-0.781616,0.707642,2.987805,50.548782,40.792683
1548455374279,-0.248779,-0.789307,0.711792,2.987805,52.073174,41.951221
1548455374286,-0.256042,-0.791016,0.710144,5.609756,53.231709,43.292683
1548455374309,-0.270813,-0.792786,0.696411,10.304878,55.182930,44.756100
1548455374309,-0.286865,-0.784973,0.684204,15.060976,56.829269,46.402439
1548455374324,-0.305237,-0.783630,0.687622,18.048780,58.048782,47.500000
1548455374331,-0.320740,-0.791565,0.698669,18.963415,58.719513,48.353661
1548455374339,-0.329102,-0.790833,0.713074,18.841463,59.329269,49.573174
1548455374346,-0.333130,-0.790222,0.713806,18.231709,60.914635,51.158539
1548455374361,-0.337585,-0.784729,0.706482,17.560976,62.743904,52.621952
1548455374376,-0.343018,-0.782104,0.706177,17.378050,64.817078,54.146343
1548455374377,-0.358948,-0.777161,0.693054,18.048780,66.463417,55.487804
1548455374391,-0.373108,-0.755859,0.667725,19.512196,67.804878,57.073174
1548455374399,-0.389160,-0.750122,0.656250,21.097561,70.060974,58.475613
1548455374406,-0.411255,-0.753601,0.664368,21.768293,70.548782,59.329269
1548455374421,-0.423157,-0.755432,0.667847,21.341463,70.487808,60.243904
1548455374429,-0.424438,-0.737671,0.641968,20.792683,71.524391,61.768295
1548455374436,-0.424622,-0.716614,0.631226,19.939024,73.414635,63.231709
1548455374451,-0.442627,-0.720459,0.630798,18.658537,74.329269,63.475613
1548455374459,-0.458801,-0.696777,0.615662,17.256098,72.743904,63.597561
1548455374466,-0.466370,-0.671936,0.591370,16.768293,73.414635,64.939026
1548455374481,-0.481323,-0.666138,0.587036,15.853659,74.939026,65.365852
1548455374489,-0.504639,-0.664368,0.596924,14.573171,73.414635,64.878052
1548455374496,-0.517090,-0.652039,0.597168,14.085366,72.134148,65.182930
1548455374511,-0.524963,-0.629333,0.580994,14.634147,72.987808,66.341461
1548455374519,-0.534180,-0.607178,0.542908,15.853659,73.597565,66.707321
1548455374526,-0.545532,-0.593933,0.520020,16.829269,74.085365,66.158539
1548455374541,-0.568787,-0.600464,0.534424,16.280489,73.536591,65.000000
1548455374549,-0.594604,-0.597717,0.555969,14.573171,70.792686,64.207321
1548455374556,-0.604614,-0.573425,0.549988,13.841464,69.085365,64.695122
1548455374572,-0.609192,-0.553894,0.525940,14.329268,69.939026,65.060974
1548455374579,-0.622742,-0.543457,0.506104,15.365854,70.548782,64.268295
1548455374587,-0.641357,-0.530457,0.478638,16.036585,69.939026,62.682930
1548455374602,-0.656250,-0.513855,0.453796,15.670732,68.963417,61.890244
1548455374609,-0.667908,-0.509766,0.451111,14.207317,68.292686,61.036587
1548455374617,-0.684265,-0.506531,0.462524,11.158537,66.219513,59.512196
1548455374631,-0.695618,-0.493408,0.469421,8.292683,62.987808,58.292683
1548455374639,-0.698486,-0.479431,0.489624,6.707317,61.951221,57.804878
1548455374646,-0.719238,-0.467957,0.476440,6.829268,60.914635,56.768295
1548455374661,-0.722839,-0.436951,0.446411,8.353659,59.756100,55.914635
1548455374669,-0.733215,-0.440552,0.430664,10.609756,61.646343,54.756100
1548455374676,-0.755554,-0.446838,0.429260,10.609756,60.487804,52.743904
1548455374691,-0.767883,-0.438782,0.427490,9.390244,58.109756,51.524391
1548455374699,-0.775757,-0.427124,0.421021,7.500000,57.439026,51.341465
1548455374706,-0.783325,-0.415710,0.426636,5.426829,56.768295,50.731709
1548455374721,-0.796753,-0.408875,0.418213,4.939024,55.609756,49.512196
1548455374729,-0.799438,-0.391296,0.405762,5.609756,54.634148,48.719513
1548455374736,-0.806213,-0.391846,0.403687,6.890244,55.426830,47.865856
1548455374751,-0.816528,-0.401245,0.434326,7.012195,54.573174,46.524391
1548455374759,-0.836304,-0.406006,0.461670,7.256098,53.170734,45.670734
1548455374766,-0.849670,-0.383240,0.440308,9.451220,52.134148,45.975613
1548455374781,-0.840210,-0.363953,0.416138,13.658537,54.939026,46.707317
1548455374789,-0.855713,-0.386047,0.429810,17.256098,57.804878,45.731709
1548455374796,-0.877869,-0.384277,0.428040,19.329269,56.158539,44.695122
1548455374812,-0.880676,-0.367676,0.395264,21.829269,56.829269,45.548782
1548455374819,-0.875183,-0.362305,0.365906,23.414635,60.670734,46.402439
1548455374826,-0.882996,-0.374207,0.376221,22.743902,62.134148,45.182926
1548455374841,-0.902161,-0.364319,0.355042,20.731709,60.731709,43.902439
1548455374849,-0.891968,-0.332642,0.316345,18.658537,61.280491,44.329269
1548455374856,-0.884521,-0.341980,0.305786,17.073172,64.573174,43.963417
1548455374872,-0.897461,-0.346680,0.312805,14.634147,63.048782,41.890244
1548455374879,-0.902527,-0.327271,0.303284,13.170732,60.487804,41.097561
1548455374886,-0.903687,-0.315308,0.298767,12.682927,61.646343,41.158539
1548455374901,-0.920776,-0.304688,0.267944,13.719513,61.463417,40.060978
1548455374909,-0.910706,-0.284912,0.233154,16.036585,60.426830,39.573174
1548455374916,-0.909485,-0.282593,0.203064,19.024391,62.621952,38.841465
1548455374931,-0.925354,-0.285217,0.196289,20.304878,60.670734,37.317074
1548455374939,-0.930176,-0.277344,0.183105,21.585367,57.865856,36.341465
1548455374947,-0.934448,-0.264099,0.173523,22.804878,56.829269,35.792683
1548455374961,-0.944275,-0.253174,0.177429,23.353659,55.670734,35.000000
1548455374969,-0.953430,-0.237488,0.178528,24.268293,53.048782,33.658539
1548455374976,-0.952515,-0.204346,0.159607,26.402439,51.280491,32.682926
1548455374992,-0.947510,-0.181335,0.135803,28.902439,51.768295,31.585367
1548455374999,-0.950500,-0.175476,0.121887,30.060976,51.280491,28.902439
1548455375006,-0.957886,-0.176514,0.098022,31.341465,48.841465,25.609756
1548455375021,-0.958008,-0.172363,0.051147,30.487806,46.890244,22.865854
1548455375029,-0.955200,-0.155823,-0.008606,27.804878,45.060978,20.487804
1548455375037,-0.951111,-0.144165,-0.022522,24.512196,41.707317,17.073172
1548455375051,-0.958740,-0.140747,-0.022766,18.658537,35.609756,12.926829
1548455375059,-0.960205,-0.127319,-0.009766,13.719513,28.719513,9.390244
1548455375066,-0.957397,-0.120972,0.012817,9.573171,23.963415,6.524390
1548455375081,-0.957336,-0.114380,0.052246,4.634146,19.329269,3.597561
1548455375089,-0.961792,-0.116699,0.097473,0.792683,14.329268,0.304878
1548455375096,-0.972839,-0.124939,0.136963,-0.853659,10.548780,-2.743902
1548455375111,-0.986450,-0.133118,0.132751,0.548781,8.170732,-4.329268
1548455375119,-0.982605,-0.137085,0.117737,3.780488,6.951220,-5.182927
1548455375126,-0.984741,-0.153015,0.104736,7.926829,7.073171,-6.219512
1548455375141,-0.989868,-0.175903,0.113342,11.829268,5.731708,-7.195122
1548455375149,-0.998962,-0.200317,0.119812,15.182927,3.719512,-7.865854
1548455375157,-1.004700,-0.206787,0.118347,16.951220,1.951220,-7.865854
1548455375171,-1.003174,-0.206909,0.113831,17.378050,0.975610,-7.256098
1548455375179,-0.994995,-0.211121,0.129517,16.707317,0.121951,-7.134147
1548455375194,-0.995667,-0.226868,0.136719,16.280489,-1.158537,-7.378049
1548455375202,-0.994263,-0.237915,0.145630,16.280489,-2.317073,-7.195122
1548455375209,-0.995972,-0.258972,0.174255,16.768293,-2.195122,-6.646342
1548455375217,-1.007690,-0.277710,0.167908,16.890244,-3.231707,-6.097561
1548455375232,-1.001282,-0.275085,0.160034,16.158537,-3.658537,-5.487805
1548455375239,-1.005005,-0.284363,0.154114,16.036585,-1.951220,-4.939024
1548455375247,-1.009155,-0.293884,0.161316,15.609756,-2.743902,-4.268293
1548455375262,-1.006409,-0.302551,0.170227,15.548780,-2.926829,-3.475610
1548455375269,-1.005615,-0.304077,0.152527,15.304878,-2.317073,-2.195122
1548455375277,-0.997437,-0.298645,0.140015,14.024390,-1.829268,-1.036585
1548455375292,-0.994385,-0.302368,0.139954,11.951220,-0.914634,-0.853659
1548455375299,-0.995667,-0.302673,0.156738,8.719512,-2.073171,-0.609756
1548455375307,-0.998840,-0.301819,0.183472,5.426829,-2.560976,0.000000
1548455375321,-1.003174,-0.287109,0.192505,2.195122,-2.865854,0.548781
1548455375329,-1.001587,-0.262207,0.168274,-0.365854,-2.926829,1.158537
1548455375336,-0.992737,-0.256531,0.147522,-1.768293,-1.463415,1.219512
1548455375351,-0.991455,-0.259155,0.144287,-2.073171,-0.914634,0.731707
1548455375359,-0.995239,-0.256470,0.155396,-1.951220,-2.317073,0.975610
1548455375366,-0.998718,-0.255798,0.180420,-2.560976,-3.109756,1.524390
1548455375382,-1.004456,-0.256165,0.187988,-3.963415,-3.597561,1.646341
1548455375389,-1.001099,-0.238403,0.172913,-5.487805,-3.963415,1.890244
1548455375396,-0.996399,-0.226990,0.163330,-5.914634,-2.621951,1.951220
1548455375411,-1.000244,-0.230225,0.159851,-4.939024,-2.317073,1.890244
1548455375419,-1.000000,-0.234558,0.166870,-3.963415,-3.109756,1.890244
1548455375426,-1.000000,-0.234192,0.166321,-3.597561,-3.048780,2.195122
1548455375441,-0.999023,-0.227905,0.155701,-4.207317,-3.231707,2.560976
1548455375449,-0.992493,-0.219116,0.158691,-5.304878,-2.865854,2.378049
1548455375456,-0.994324,-0.218384,0.176453,-5.975610,-2.987805,1.707317
1548455375472,-0.998474,-0.219482,0.191101,-5.548780,-3.780488,1.402439
1548455375479,-0.997986,-0.217712,0.181458,-3.780488,-4.146341,1.524390
1548455375486,-0.995056,-0.217285,0.177979,-2.012195,-3.048780,1.219512
1548455375502,-0.999451,-0.219666,0.166992,-0.548781,-2.500000,0.548781
1548455375509,-1.000366,-0.223633,0.166382,0.182927,-3.048780,0.060976
1548455375517,-1.001831,-0.228577,0.174988,0.731707,-2.560976,-0.182927
1548455375531,-1.009521,-0.228516,0.196655,0.792683,-3.231707,0.000000
1548455375539,-1.012146,-0.235229,0.206482,0.914634,-3.658537,0.000000
1548455375546,-1.012512,-0.238831,0.200378,1.524390,-2.804878,0.121951
1548455375561,-1.011169,-0.237427,0.176575,2.439024,-1.646341,0.426829
1548455375569,-1.000305,-0.235046,0.157593,2.926829,-0.365854,0.731707
1548455375577,-0.995728,-0.233826,0.141968,2.500000,0.304878,0.792683
1548455375591,-0.991577,-0.234253,0.152771,1.219512,-0.365854,0.609756
1548455375599,-1.000000,-0.236450,0.169983,-0.121951,-1.341463,0.304878
1548455375606,-1.000000,-0.232971,0.185120,-1.280488,-2.682927,-0.121951
1548455375622,-0.993042,-0.229614,0.189148,-1.524390,-2.682927,-0.487805
1548455375629,-0.991638,-0.235596,0.200684,-1.036585,-2.073171,-0.853659
1548455375636,-1.001404,-0.242065,0.183105,0.000000,-2.012195,-1.280488
1548455375651,-1.000366,-0.235657,0.154602,0.975610,-1.707317,-1.280488
1548455375659,-0.996521,-0.234680,0.139404,1.585366,-0.243902,-1.158537
1548455375667,-0.997437,-0.238037,0.143799,1.524390,-0.914634,-1.158537
1548455375681,-0.997009,-0.236816,0.145203,0.914634,-2.195122,-1.280488
1548455375689,-0.990234,-0.227417,0.150085,0.304878,-2.682927,-1.036585
1548455375696,-0.988647,-0.229187,0.173096,0.000000,-3.231707,-1.280488
1548455375712,-0.990112,-0.234436,0.185669,0.060976,-4.329268,-2.012195
1548455375719,-0.992554,-0.236145,0.201660,0.792683,-4.573171,-2.317073
1548455375726,-0.999573,-0.238708,0.191040,2.743902,-4.451220,-2.073171
1548455375741,-0.991211,-0.230713,0.164490,4.329268,-4.207317,-1.707317
1548455375749,-0.988770,-0.240906,0.158203,5.792683,-2.804878,-1.829268
1548455375756,-0.997192,-0.250610,0.160278,6.341464,-3.292683,-2.012195
1548455375771,-0.999512,-0.247070,0.161011,6.402439,-4.634146,-1.646341
1548455375779,-0.993896,-0.239197,0.170959,5.792683,-4.512195,-1.219512
1548455375787,-0.995178,-0.244507,0.198364,4.634146,-4.817073,-1.463415
1548455375801,-1.003235,-0.248779,0.205444,4.146341,-5.975610,-1.829268
1548455375809,-0.998962,-0.239990,0.191040,4.329268,-5.548780,-1.646341
1548455375816,-0.992859,-0.241455,0.179443,4.817073,-3.780488,-1.280488
1548455375832,-0.994202,-0.248291,0.173584,4.451220,-3.841464,-1.768293
1548455375839,-0.989807,-0.245117,0.165222,3.658537,-4.512195,-2.073171
1548455375847,-0.988953,-0.239258,0.171692,2.682927,-4.268293,-1.890244
1548455375861,-0.991699,-0.243591,0.183655,1.951220,-5.121951,-1.890244
1548455375869,-0.993103,-0.239563,0.187988,0.853659,-5.975610,-2.317073
1548455375877,-0.991699,-0.236633,0.190125,0.121951,-5.792683,-2.500000
1548455375892,-0.991516,-0.236206,0.182922,-0.182927,-5.792683,-2.621951
1548455375899,-0.990662,-0.235107,0.173218,-0.060976,-5.975610,-2.804878
1548455375907,-0.987610,-0.232239,0.167847,0.182927,-5.853659,-2.987805
1548455375921,-0.987244,-0.231262,0.165649,0.000000,-6.402439,-3.292683
1548455375929,-0.985291,-0.231567,0.173584,-0.365854,-7.256098,-3.658537
1548455375937,-0.986877,-0.236816,0.183960,-0.731707,-7.926829,-4.024390
1548455375952,-0.988342,-0.234619,0.182983,-1.158537,-8.963415,-4.329268
1548455375959,-0.983521,-0.229797,0.173279,-1.585366,-9.268292,-4.695122
1548455375966,-0.979614,-0.224854,0.165283,-1.951220,-9.207317,-5.243903
1548455375981,-0.977844,-0.225342,0.157227,-2.073171,-9.939025,-6.036585
1548455375989,-0.973999,-0.227112,0.153931,-2.317073,-11.036586,-6.951220
1548455375997,-0.974792,-0.227783,0.156250,-2.682927,-12.195122,-7.743903
1548455376012,-0.973999,-0.228577,0.168762,-3.109756,-13.902439,-8.536586
1548455376019,-0.972717,-0.233643,0.174622,-3.475610,-15.426829,-9.512196
1548455376026,-0.974060,-0.232849,0.172241,-4.024390,-16.890244,-10.426829
1548455376041,-0.970154,-0.234497,0.178101,-3.902439,-17.439024,-11.158537
1548455376056,-0.973022,-0.241760,0.181335,-3.841464,-18.475611,-12.012196
1548455376057,-0.969849,-0.240356,0.179932,-4.329268,-20.182928,-12.743903
1548455376071,-0.964172,-0.242249,0.172363,-4.756098,-20.487804,-13.292684
1548455376079,-0.962219,-0.246277,0.168396,-5.426829,-21.707317,-14.085366
1548455376087,-0.954773,-0.253052,0.172913,-6.341464,-23.414635,-15.182927
1548455376101,-0.954224,-0.262390,0.189575,-7.378049,-24.817074,-16.036585
1548455376116,-0.955261,-0.266418,0.210938,-8.231708,-27.195122,-16.829269
1548455376117,-0.951782,-0.267944,0.219299,-8.597561,-29.024391,-17.378050
1548455376132,-0.949707,-0.273376,0.230896,-8.902439,-29.512196,-18.048780
1548455376139,-0.955750,-0.282959,0.226074,-9.085366,-29.939026,-19.024391
1548455376146,-0.953796,-0.278259,0.204773,-9.573171,-31.158537,-19.634148
1548455376161,-0.946594,-0.271606,0.183411,-10.060976,-30.853659,-20.060976
1548455376169,-0.938477,-0.273560,0.169861,-11.463415,-31.707317,-20.731709
1548455376176,-0.926941,-0.281921,0.193298,-13.841464,-34.207317,-22.073172
1548455376191,-0.928467,-0.297241,0.223816,-15.792684,-37.012196,-23.353659
1548455376199,-0.922668,-0.291931,0.226013,-16.951220,-40.487804,-23.963415
1548455376206,-0.906372,-0.293518,0.259766,-16.890244,-41.097561,-24.268293
1548455376221,-0.913330,-0.311829,0.294006,-17.195122,-42.134148,-25.609756
1548455376229,-0.916748,-0.309570,0.287659,-18.170732,-45.365856,-27.134148
1548455376236,-0.903992,-0.299133,0.252136,-17.987804,-44.634148,-27.439026
1548455376251,-0.896423,-0.297546,0.223083,-17.195122,-42.987804,-27.743902
1548455376259,-0.895508,-0.309753,0.205750,-17.012196,-44.939026,-29.634148
1548455376266,-0.884766,-0.314209,0.198669,-17.865854,-48.170734,-31.524391
1548455376281,-0.867859,-0.328064,0.259583,-18.841463,-50.609756,-32.378048
1548455376289,-0.874207,-0.360962,0.320190,-19.146341,-54.939026,-33.353661
1548455376297,-0.868713,-0.357178,0.356018,-18.902439,-59.878052,-34.085365
1548455376312,-0.857361,-0.354980,0.398193,-17.439024,-59.024391,-34.146343
1548455376319,-0.873535,-0.373230,0.418701,-16.646341,-58.475613,-34.939026
1548455376326,-0.875427,-0.371216,0.392944,-15.060976,-59.695122,-35.853661
1548455376341,-0.859436,-0.355225,0.332520,-11.707317,-56.524391,-35.487804
1548455376349,-0.843018,-0.358337,0.274780,-8.414635,-53.536587,-35.000000
1548455376356,-0.826660,-0.375183,0.224915,-6.097561,-55.121952,-36.097561
1548455376371,-0.797119,-0.393433,0.242126,-6.158537,-58.414635,-37.378048
1548455376379,-0.782898,-0.428162,0.338989,-8.231708,-63.170734,-38.109756
1548455376386,-0.783508,-0.455750,0.421082,-9.939025,-71.585365,-38.597561
1548455376402,-0.765076,-0.438843,0.497803,-9.451220,-75.914635,-37.926830
1548455376409,-0.770630,-0.456787,0.570618,-8.231708,-73.597565,-37.560978
1548455376416,-0.802368,-0.466248,0.571350,-10.304878,-74.207321,-38.292683
1548455376431,-0.798340,-0.455688,0.510132,-2.195122,-71.097565,-39.024391
1548455376439,-0.782349,-0.452209,0.425842,1.829268,-62.987808,-38.475609
1548455376446,-0.769531,-0.464294,0.362671,1.951220,-60.000000,-38.231709
1548455376461,-0.750183,-0.493713,0.326843,0.975610,-62.195122,-38.658539
1548455376469,-0.720154,-0.511963,0.319214,-3.048780,-65.304878,-38.719513
1548455376476,-0.684998,-0.521484,0.404114,-11.097561,-69.939026,-38.231709
1548455376492,-0.678040,-0.550232,0.539124,-20.365854,-76.402443,-39.146343
1548455376499,-0.677063,-0.547791,0.600586,-27.073172,-83.475609,-40.121952
1548455376507,-0.649841,-0.507996,0.628296,-28.963415,-82.012199,-39.268295
1548455376522,-0.664795,-0.517639,0.643616,-27.743902,-75.548782,-39.451221
1548455376529,-0.692688,-0.518311,0.622803,-24.085367,-75.426834,-41.219513
1548455376537,-0.693420,-0.510376,0.550781,-17.317074,-72.500000,-41.829269
1548455376552,-0.676453,-0.509094,0.473694,-12.500000,-66.890244,-40.731709
1548455376559,-0.657715,-0.518494,0.429932,-9.878049,-66.585365,-40.487804
1548455376567,-0.628601,-0.534180,0.424866,-10.304878,-70.182930,-40.853661
1548455376582,-0.595032,-0.556641,0.488159,-13.963415,-75.243904,-40.914635
1548455376589,-0.568420,-0.596497,0.643921,-18.170732,-80.365852,-41.158539
1548455376596,-0.570374,-0.623840,0.727722,-20.243902,-85.975609,-41.585365
1548455376611,-0.546631,-0.571228,0.686218,-21.280489,-86.524391,-40.000000
1548455376619,-0.529358,-0.543701,0.602600,-16.341463,-76.463417,-39.329269
1548455376626,-0.554260,-0.543945,0.549561,-13.963415,-71.341469,-42.073174
1548455376641,-0.564575,-0.543091,0.490601,-15.731708,-74.695122,-45.304878
1548455376649,-0.533081,-0.550537,0.443481,-18.597561,-76.707321,-46.585365
1548455376656,-0.484741,-0.574463,0.496765,-22.012196,-78.780487,-46.829269
1548455376672,-0.459351,-0.633728,0.642334,-25.243902,-85.121956,-47.865856
1548455376679,-0.443420,-0.656616,0.731812,-27.804878,-93.719513,-48.902439
1548455376686,-0.405457,-0.608704,0.696411,-27.500000,-94.268295,-47.865856
1548455376702,-0.386414,-0.570129,0.627991,-24.329269,-86.463417,-47.621952
1548455376709,-0.406067,-0.578979,0.586914,-20.792683,-83.475609,-51.158539
1548455376716,-0.419556,-0.603027,0.580383,-18.048780,-86.646347,-55.609756
1548455376731,-0.406128,-0.646606,0.611084,-17.134148,-89.085365,-57.256100
1548455376739,-0.369202,-0.683167,0.690796,-18.780489,-91.951225,-56.585365
1548455376746,-0.332214,-0.721802,0.807617,-20.792683,-94.329269,-55.426830
1548455376761,-0.310608,-0.745117,0.884827,-21.829269,-95.121956,-54.024391
1548455376769,-0.302795,-0.721741,0.867920,-18.902439,-92.256104,-51.585365
1548455376784,-0.313049,-0.703857,0.806213,-8.109756,-83.719513,-49.390244
1548455376791,-0.345703,-0.717163,0.747314,0.182927,-76.341469,-48.841465
1548455376806,-0.371399,-0.740906,0.708313,2.987805,-74.573174,-49.268295
1548455376807,-0.356140,-0.766113,0.707275,-0.304878,-74.207321,-48.414635
1548455376821,-0.318237,-0.794434,0.775635,-8.780488,-74.207321,-46.280487
1548455376829,-0.276489,-0.781616,0.824646,-16.524391,-77.073174,-43.353661
1548455376836,-0.225586,-0.743774,0.805969,-18.475611,-76.829269,-39.756100
1548455376852,-0.194885,-0.748535,0.781433,-14.878049,-70.365852,-38.048782
1548455376859,-0.203674,-0.783386,0.793823,-10.243902,-66.768295,-38.719513
1548455376866,-0.217529,-0.801575,0.808167,-8.475610,-67.621956,-38.597561
1548455376881,-0.211304,-0.779480,0.784973,-10.304878,-66.219513,-36.402439
1548455376889,-0.202026,-0.761536,0.760193,-13.963415,-62.134148,-34.268295
1548455376897,-0.206238,-0.775879,0.780823,-16.646341,-60.182930,-33.902439
1548455376911,-0.203186,-0.801636,0.830688,-17.073172,-60.609756,-33.658539
1548455376919,-0.184631,-0.792908,0.835266,-15.243903,-59.634148,-31.402439
1548455376926,-0.157776,-0.769287,0.792419,-11.585366,-55.000000,-27.804878
1548455376941,-0.157715,-0.768555,0.752075,-7.926829,-49.451221,-26.280489
1548455376949,-0.178650,-0.772888,0.727478,-6.097561,-48.048782,-27.012196
1548455376957,-0.180786,-0.774048,0.701294,-6.646342,-48.170734,-26.768293
1548455376972,-0.156921,-0.759338,0.671387,-10.609756,-47.256100,-25.060976
1548455376979,-0.120789,-0.732788,0.643982,-17.682928,-47.195122,-24.390244
1548455376986,-0.091919,-0.703918,0.618469,-25.426830,-48.963417,-25.243902
1548455377002,-0.064148,-0.691895,0.611938,-31.402439,-51.097561,-26.951220
1548455377009,-0.038269,-0.700806,0.634888,-34.573170,-53.658539,-29.207317
1548455377016,-0.011841,-0.702393,0.666199,-35.121952,-57.378052,-30.975611
1548455377039,0.012207,-0.692566,0.672241,-32.926830,-59.451221,-31.707317
1548455377039,0.022949,-0.673157,0.646484,-28.841465,-59.512196,-32.560978
1548455377046,0.017212,-0.685608,0.610779,-23.963415,-59.451221,-34.573170
1548455377062,-0.003784,-0.778870,0.647400,-19.695122,-60.548782,-37.378048
1548455377069,-0.105530,-0.950928,0.879761,-15.853659,-62.012196,-38.475609
1548455377076,-0.313782,-1.066895,1.258789,-9.024390,-59.451221,-33.231709
1548455377091,0.063660,-1.019653,1.082947,17.195122,-18.292683,-3.292683
1548455377099,-0.076355,-1.092285,1.254333,99.573174,27.439026,31.768293
1548455377106,-0.286072,-0.968445,1.253296,109.268295,-4.085366,28.719513
1548455377122,-0.179138,-0.872498,1.081665,54.695122,-16.097561,7.134147
1548455377129,-0.073120,-0.836609,0.944763,12.195122,-1.829268,-11.280488
1548455377137,-0.001587,-0.744202,0.810364,-7.439024,-5.121951,-13.841464
1548455377152,0.023621,-0.640076,0.695068,-12.682927,-5.853659,-10.426829
1548455377159,0.016663,-0.595337,0.608154,-16.829269,-3.414634,-7.317073
1548455377167,0.010437,-0.601501,0.558105,-19.390244,-3.170732,-6.707317
1548455377189,0.007263,-0.601624,0.545288,-19.329269,-3.902439,-5.121951
1548455377190,0.007263,-0.624939,0.551270,-19.085367,-3.109756,-2.317073
1548455377196,0.000916,-0.689819,0.585938,-15.487805,-0.426829,-0.548781
1548455377212,-0.006226,-0.757935,0.644348,-6.890244,0.914634,1.585366
1548455377219,-0.008972,-0.806458,0.717407,2.439024,0.365854,4.329268
1548455377226,-0.027649,-0.825012,0.782288,8.475610,-0.670732,5.853659
1548455377249,-0.065491,-0.823486,0.817566,10.304878,-1.463415,5.853659
1548455377249,-0.101868,-0.793762,0.811707,9.634147,-1.890244,4.817073
1548455377257,-0.114136,-0.761047,0.785583,8.109756,-1.768293,3.353659
1548455377271,-0.077271,-0.740967,0.755066,6.158537,-1.646341,0.731707
1548455377279,-0.025940,-0.727417,0.729736,5.060976,-1.341463,-1.219512
1548455377286,-0.002319,-0.722839,0.710083,6.097561,-1.158537,-0.670732
1548455377302,0.003052,-0.724976,0.701843,7.804878,-0.853659,1.036585
1548455377309,0.000916,-0.730103,0.701111,8.414635,-0.609756,2.134146
1548455377316,-0.009155,-0.732971,0.706177,7.682927,-0.731707,1.951220
1548455377332,-0.018188,-0.736084,0.712708,6.280488,-1.036585,1.097561
1548455377339,-0.028442,-0.737793,0.718262,4.512195,-1.158537,0.182927
1548455377347,-0.035156,-0.739746,0.728333,2.743902,-1.097561,-0.487805
1548455377361,-0.036133,-0.740540,0.735168,2.073171,-1.036585,-0.670732
1548455377369,-0.036316,-0.738281,0.737854,2.804878,-0.914634,-0.304878
1548455377376,-0.041687,-0.734375,0.737183,4.146341,-0.792683,0.670732
1548455377391,-0.043579,-0.726440,0.734314,5.243903,-0.670732,1.402439
1548455377399,-0.040466,-0.720398,0.726929,5.426829,-0.609756,1.524390
1548455377406,-0.034912,-0.717468,0.716919,4.573171,-0.609756,1.219512
1548455377421,-0.027954,-0.719421,0.713989,3.536585,-0.792683,0.792683
1548455377429,-0.024719,-0.721619,0.717773,2.500000,-1.158537,0.731707
1548455377437,-0.027039,-0.726196,0.722351,1.585366,-1.341463,0.731707
1548455377452,-0.028931,-0.730103,0.726318,0.914634,-1.646341,0.731707
1548455377459,-0.032043,-0.733154,0.734680,0.243902,-1.646341,0.609756
1548455377466,-0.037842,-0.734741,0.737183,0.060976,-1.463415,0.487805
1548455377482,-0.038147,-0.731079,0.736511,0.000000,-1.280488,0.243902
1548455377489,-0.038147,-0.732849,0.737793,0.121951,-0.914634,0.000000
1548455377496,-0.033142,-0.732910,0.736267,0.426829,-0.426829,0.121951
1548455377511,-0.029175,-0.732666,0.729370,0.670732,-0.060976,0.365854
1548455377519,-0.025269,-0.729797,0.726318,0.731707,0.060976,0.731707
1548455377526,-0.025879,-0.729675,0.722473,0.792683,0.000000,0.792683
1548455377541,-0.026428,-0.728638,0.719055,0.670732,-0.121951,0.853659
1548455377549,-0.027344,-0.726746,0.719971,0.487805,-0.304878,0.792683
1548455377557,-0.031189,-0.725342,0.722717,0.243902,-0.609756,0.609756
1548455377571,-0.031921,-0.726013,0.724487,0.182927,-0.853659,0.548781
1548455377579,-0.032959,-0.725830,0.723450,0.304878,-1.097561,0.365854
1548455377586,-0.031677,-0.725342,0.726624,0.609756,-1.036585,0.182927
1548455377602,-0.032532,-0.730164,0.727661,0.975610,-0.975610,0.365854
1548455377609,-0.030334,-0.729248,0.727722,1.097561,-0.853659,0.426829
1548455377617,-0.030762,-0.729309,0.726746,1.097561,-0.731707,0.731707
1548455377631,-0.031494,-0.732666,0.728882,0.853659,-0.548781,0.792683
1548455377639,-0.032837,-0.730286,0.726196,0.426829,-0.548781,0.853659
1548455377647,-0.031982,-0.730286,0.725403,0.060976,-0.548781,0.792683
1548455377662,-0.031738,-0.728638,0.724915,-0.304878,-0.670732,0.670732
1548455377669,-0.033020,-0.730713,0.724670,-0.609756,-0.853659,0.487805
1548455377677,-0.033875,-0.728699,0.722961,-1.036585,-0.914634,0.365854
1548455377692,-0.031433,-0.728760,0.722229,-1.341463,-0.975610,0.182927
1548455377699,-0.031189,-0.728027,0.723633,-1.036585,-1.036585,0.121951
1548455377707,-0.034302,-0.729187,0.725037,-0.487805,-0.914634,0.365854
1548455377721,-0.033813,-0.731079,0.727478,-0.060976,-0.792683,0.548781
1548455377729,-0.032776,-0.729553,0.725647,0.000000,-0.670732,0.670732
1548455377737,-0.033508,-0.727966,0.725098,-0.060976,-0.670732,0.670732
1548455377751,-0.032043,-0.729004,0.725159,-0.121951,-0.548781,0.670732
1548455377767,-0.028259,-0.729858,0.725159,-0.243902,-0.609756,0.548781
1548455377767,-0.031738,-0.729126,0.726624,-0.426829,-0.670732,0.426829
1548455377782,-0.029663,-0.727478,0.727112,-0.609756,-0.670732,0.365854
1548455377789,-0.031677,-0.727600,0.727417,-0.670732,-0.731707,0.426829
1548455377797,-0.031799,-0.726318,0.726501,-0.609756,-0.731707,0.365854
1548455377812,-0.035034,-0.727905,0.723267,-0.609756,-0.670732,0.426829
1548455377819,-0.034607,-0.728882,0.725098,-0.609756,-0.548781,0.365854
1548455377827,-0.032166,-0.731079,0.724976,-0.487805,-0.670732,0.304878
1548455377842,-0.029480,-0.730530,0.725037,-0.304878,-0.792683,0.182927
1548455377856,-0.030884,-0.732788,0.722839,-0.426829,-0.853659,0.243902
1548455377857,-0.031128,-0.734558,0.722046,-0.792683,-0.731707,0.182927
1548455377872,-0.031799,-0.732788,0.720154,-0.792683,-0.670732,0.182927
1548455377879,-0.032349,-0.730347,0.718262,-0.670732,-0.609756,0.243902
1548455377887,-0.032410,-0.729309,0.720459,-0.426829,-0.670732,0.365854
1548455377901,-0.033081,-0.729614,0.724670,-0.121951,-0.670732,0.426829
1548455377909,-0.034058,-0.727600,0.723450,0.000000,-0.609756,0.487805
1548455377916,-0.032959,-0.731262,0.722412,0.121951,-0.670732,0.548781
1548455377931,-0.033386,-0.730713,0.722961,0.182927,-0.609756,0.548781
1548455377939,-0.034668,-0.731079,0.723206,0.243902,-0.609756,0.487805
1548455377946,-0.032776,-0.732788,0.722595,0.182927,-0.548781,0.365854
1548455377969,-0.033203,-0.733215,0.723267,-0.060976,-0.609756,0.243902
1548455377969,-0.032166,-0.732300,0.721741,-0.304878,-0.670732,0.121951
1548455377977,-0.028992,-0.732788,0.726074,-0.487805,-0.792683,0.182927
1548455377991,-0.030334,-0.734985,0.726562,-0.670732,-0.731707,0.243902
1548455377999,-0.030273,-0.736633,0.725586,-0.914634,-0.731707,0.365854
1548455378006,-0.031555,-0.734741,0.727539,-1.158537,-0.792683,0.304878
1548455378022,-0.035217,-0.738831,0.728394,-1.341463,-0.670732,0.243902
1548455378029,-0.036133,-0.740234,0.733337,-1.463415,-0.487805,0.304878
1548455378036,-0.035583,-0.741577,0.734985,-1.524390,-0.426829,0.365854
1548455378052,-0.034607,-0.734863,0.729126,-1.951220,-0.487805,0.243902
1548455378059,-0.036133,-0.736389,0.733215,-2.560976,-0.304878,0.182927
1548455378066,-0.034485,-0.741089,0.738403,-2.743902,0.000000,0.426829
1548455378082,-0.035339,-0.735657,0.729736,-3.170732,0.060976,0.609756
1548455378089,-0.035583,-0.733887,0.717773,-3.719512,0.304878,0.609756
1548455378096,-0.036865,-0.727966,0.706848,-3.658537,0.792683,0.731707
1548455378112,-0.037048,-0.726685,0.703857,-2.865854,0.975610,0.975610
1548455378119,-0.038452,-0.731506,0.720459,-1.097561,0.792683,1.036585
1548455378126,-0.033447,-0.733154,0.734741,-0.121951,0.487805,0.914634
1548455378141,-0.026611,-0.737183,0.744385,-0.609756,-0.060976,0.243902
1548455378149,-0.029053,-0.745422,0.755859,-2.012195,0.000000,-0.182927
1548455378156,-0.032471,-0.752686,0.760132,-4.207317,0.426829,0.000000
1548455378171,-0.035950,-0.755188,0.756958,-6.524390,0.670732,0.304878
1548455378179,-0.038208,-0.753479,0.744446,-8.414635,0.853659,0.182927
1548455378187,-0.042053,-0.744324,0.726013,-9.817074,0.975610,0.000000
1548455378201,-0.043762,-0.740356,0.712585,-10.609756,1.036585,-0.121951
1548455378209,-0.044922,-0.738831,0.705811,-10.792684,0.975610,-0.487805
1548455378216,-0.042542,-0.740173,0.710083,-10.548780,0.487805,-1.036585
1548455378231,-0.036499,-0.751709,0.719604,-10.792684,0.243902,-1.585366
1548455378239,-0.030090,-0.777649,0.732483,-11.463415,0.731707,-2.195122
1548455378246,-0.028259,-0.788940,0.743530,-12.134147,0.670732,-2.804878
1548455378262,-0.028870,-0.781555,0.750549,-11.646341,-0.609756,-2.926829
1548455378269,-0.031555,-0.781555,0.759460,-11.280488,-1.585366,-2.865854
1548455378277,-0.063904,-0.783691,0.766968,-12.073171,-2.134146,-2.743902
1548455378292,-0.102234,-0.770691,0.763733,-13.048780,-1.646341,-2.195122
1548455378299,-0.118958,-0.750427,0.766052,-10.975610,3.048780,0.304878
1548455378306,-0.096191,-0.754395,0.771118,-3.475610,9.451220,7.865854
1548455378321,-0.026184,-0.783081,0.762207,9.512196,16.890244,15.487805
1548455378329,0.006104,-0.808960,0.759460,23.963415,22.256098,15.853659
1548455378336,-0.030029,-0.817993,0.761536,30.304878,21.402439,12.926829
1548455378352,-0.068542,-0.803040,0.765564,25.914635,18.902439,12.682927
1548455378359,-0.074341,-0.778198,0.757080,18.048780,19.390244,14.024390
1548455378366,-0.065613,-0.746643,0.746765,13.048780,21.158537,14.878049
1548455378382,-0.063660,-0.728638,0.736633,12.804878,22.256098,15.731708
1548455378389,-0.065063,-0.718079,0.727356,15.609756,22.804878,16.585365
1548455378396,-0.070374,-0.713257,0.721008,20.426830,23.353659,17.195122
1548455378412,-0.077209,-0.725098,0.711975,25.548780,23.841463,17.378050
1548455378419,-0.088806,-0.736511,0.713135,29.634148,24.146341,17.439024
1548455378427,-0.093689,-0.749023,0.715515,31.585367,24.207317,17.743902
1548455378442,-0.096436,-0.755188,0.726868,31.402439,24.085367,18.170732
1548455378449,-0.099243,-0.753052,0.742004,29.756098,23.475611,18.719513
1548455378457,-0.106384,-0.746216,0.752441,27.865854,23.109756,19.512196
1548455378471,-0.116394,-0.733948,0.763306,27.317074,23.780489,20.182928
1548455378479,-0.125732,-0.717346,0.760071,28.048780,24.512196,20.914635
1548455378486,-0.130005,-0.710815,0.756653,29.573172,25.487806,21.585367
1548455378501,-0.138611,-0.715942,0.761475,31.646341,27.073172,21.463415
1548455378509,-0.143005,-0.719055,0.772278,32.439026,27.317074,21.524391
1548455378516,-0.140320,-0.724365,0.780273,32.256100,27.743902,22.317074
1548455378532,-0.142944,-0.730591,0.792053,31.036587,29.085367,22.926830
1548455378539,-0.153931,-0.729309,0.809875,29.390245,29.634148,23.475611
1548455378546,-0.159485,-0.719727,0.821167,28.414635,30.000000,24.329269
1548455378561,-0.166870,-0.708557,0.821167,28.109756,31.646341,25.243902
1548455378569,-0.180176,-0.701843,0.812500,27.500000,33.597561,25.670732
1548455378577,-0.193115,-0.691406,0.812500,26.097561,34.695122,25.609756
1548455378591,-0.203613,-0.684998,0.814636,23.353659,35.609756,25.609756
1548455378599,-0.207886,-0.682251,0.819153,19.512196,36.524391,25.731709
1548455378607,-0.203308,-0.676575,0.824524,15.975610,37.743904,26.036587
1548455378621,-0.204651,-0.670776,0.818054,13.353659,39.207317,26.402439
1548455378629,-0.214722,-0.670105,0.816589,11.707317,40.853661,26.524391
1548455378636,-0.230469,-0.666504,0.815308,10.609756,41.890244,26.341463
1548455378651,-0.244751,-0.656982,0.813660,9.756098,42.500000,26.707317
1548455378659,-0.256714,-0.656982,0.821594,9.939025,43.841465,27.439026
1548455378666,-0.269287,-0.649658,0.822876,11.097561,44.817074,27.987806
1548455378682,-0.274719,-0.643311,0.815002,13.536586,45.853661,28.719513
1548455378689,-0.281067,-0.649719,0.812134,16.280489,48.231709,29.329269
1548455378696,-0.288330,-0.651733,0.806519,18.353659,49.512196,29.207317
1548455378711,-0.291077,-0.645569,0.800293,19.085367,50.304878,29.695122
1548455378719,-0.299683,-0.637390,0.791809,18.780489,51.585365,30.243902
1548455378726,-0.310303,-0.631897,0.788086,17.743902,52.256100,30.304878
1548455378741,-0.319214,-0.627319,0.791931,16.280489,52.560978,30.243902
1548455378749,-0.328918,-0.626892,0.798767,14.573171,53.170734,30.609756
1548455378756,-0.340698,-0.622437,0.793030,13.292684,53.780491,30.792685
1548455378779,-0.347961,-0.614258,0.782288,12.865854,54.756100,31.097561
1548455378779,-0.359314,-0.608765,0.775085,12.804878,55.975613,31.219513
1548455378786,-0.371704,-0.604736,0.767090,12.378049,55.975613,31.097561
1548455378802,-0.378662,-0.598083,0.752930,11.951220,56.158539,31.219513
1548455378809,-0.387756,-0.591492,0.739441,11.646341,56.890244,31.524391
1548455378817,-0.396667,-0.591797,0.731873,10.670732,57.012196,31.402439
1548455378832,-0.405090,-0.593750,0.743469,9.268292,56.524391,30.853659
1548455378839,-0.413635,-0.584839,0.750000,8.048780,55.792683,30.914635
1548455378846,-0.418945,-0.575012,0.746826,7.865854,55.609756,31.280489
1548455378862,-0.430237,-0.570251,0.734253,8.353659,56.463417,31.219513
1548455378869,-0.442810,-0.561768,0.712097,8.536586,56.646343,30.975611
1548455378876,-0.451111,-0.560120,0.694641,7.804878,57.012196,30.731709
1548455378891,-0.464905,-0.567383,0.695801,5.304878,56.768295,30.182928
1548455378899,-0.480652,-0.569214,0.698669,1.951220,54.817074,29.817074
1548455378907,-0.482483,-0.561707,0.704956,-0.243902,53.719513,30.243902
1548455378929,-0.494202,-0.559143,0.704651,-1.036585,53.536587,30.670732
1548455378930,-0.503296,-0.549683,0.695984,-0.243902,53.170734,30.548780
1548455378936,-0.516113,-0.542908,0.680481,2.500000,53.475613,30.487806
1548455378952,-0.528503,-0.538086,0.668091,5.304878,53.414635,30.609756
1548455378959,-0.535034,-0.536926,0.667114,7.439024,53.170734,30.548780
1548455378966,-0.546204,-0.537231,0.670837,8.719512,52.500000,30.487806
1548455378981,-0.553711,-0.531372,0.670959,10.060976,51.280491,30.731709
1548455378989,-0.563354,-0.531921,0.672607,12.500000,51.219513,30.914635
1548455378997,-0.576294,-0.537109,0.689880,15.121951,50.853661,30.914635
1548455379011,-0.592285,-0.541199,0.708008,17.621952,50.365856,31.097561
1548455379019,-0.601929,-0.529297,0.707947,20.121952,50.670734,31.646341
1548455379027,-0.608887,-0.509888,0.674683,22.560976,52.073174,32.439026
1548455379042,-0.610901,-0.503357,0.645264,23.963415,54.329269,32.439026
1548455379049,-0.623108,-0.508179,0.639282,23.475611,55.243904,31.341465
1548455379057,-0.631897,-0.512573,0.661133,21.097561,53.658539,31.036587
1548455379072,-0.640930,-0.514709,0.678467,19.085367,52.743904,31.524391
1548455379079,-0.644043,-0.501282,0.664307,18.597561,53.048782,32.256100
1548455379087,-0.645264,-0.486694,0.647644,19.695122,55.000000,32.682926
1548455379102,-0.660217,-0.479492,0.636230,20.365854,56.036587,32.134148
1548455379109,-0.674438,-0.468872,0.622498,19.695122,55.243904,31.829269
1548455379117,-0.682495,-0.462463,0.611206,19.085367,55.975613,31.768293
1548455379132,-0.686157,-0.456665,0.602905,17.865854,55.914635,31.890245
1548455379139,-0.685791,-0.450684,0.583008,16.524391,55.914635,31.585367
1548455379147,-0.688721,-0.437805,0.568237,14.451220,55.853661,31.158537
1548455379162,-0.698181,-0.439636,0.575745,12.073171,55.365856,30.487806
1548455379169,-0.713013,-0.438538,0.585938,11.036586,53.841465,29.939026
1548455379177,-0.717651,-0.422729,0.574707,12.804878,52.987804,30.487806
1548455379191,-0.720886,-0.415161,0.561707,16.158537,54.268295,30.975611
1548455379199,-0.732605,-0.411255,0.565369,18.902439,54.268295,30.426830
1548455379206,-0.746765,-0.406311,0.573242,21.402439,53.170734,29.878050
1548455379221,-0.759155,-0.397766,0.573181,24.817074,52.743904,30.304878
1548455379229,-0.765564,-0.388489,0.556702,29.390245,53.292683,30.914635
1548455379236,-0.771118,-0.383972,0.566895,33.658539,54.512196,30.975611
1548455379251,-0.793091,-0.389404,0.584473,36.402439,54.024391,30.426830
1548455379259,-0.796265,-0.375610,0.585388,39.085365,53.292683,30.914635
1548455379267,-0.802551,-0.368896,0.582031,42.621952,55.426830,31.524391
1548455379281,-0.811890,-0.363281,0.572693,43.902439,56.768295,31.158537
1548455379289,-0.818298,-0.358032,0.562073,43.963417,57.682930,30.243902
1548455379296,-0.820862,-0.352173,0.567139,42.560978,59.085369,30.000000
1548455379311,-0.829773,-0.348816,0.576172,40.914635,59.817074,29.878050
1548455379319,-0.836426,-0.342529,0.558472,39.817074,60.853661,29.939026
1548455379326,-0.830261,-0.330750,0.530945,39.207317,63.536587,29.939026
1548455379341,-0.834167,-0.327820,0.516968,37.073170,66.158539,29.268293
1548455379349,-0.845581,-0.323242,0.496033,33.231709,66.158539,28.475611
1548455379357,-0.848022,-0.314453,0.478333,29.329269,66.951218,28.048780
1548455379372,-0.859985,-0.308838,0.453430,25.243902,68.048782,27.378050
1548455379379,-0.858337,-0.291687,0.416138,20.182928,67.987808,26.768293
1548455379394,-0.859497,-0.286011,0.393311,14.451220,69.085365,25.426830
1548455379402,-0.868408,-0.283264,0.382568,7.560976,67.926834,24.207317
1548455379409,-0.869385,-0.276123,0.379639,0.670732,66.890244,23.231709
1548455379417,-0.882324,-0.269958,0.360229,-5.304878,66.097565,22.134148
1548455379431,-0.876221,-0.258911,0.352356,-10.914635,65.060974,21.524391
1548455379439,-0.888672,-0.262573,0.360901,-15.609756,64.573174,20.182928
1548455379446,-0.904907,-0.260132,0.377441,-18.780489,61.524391,19.756098
1548455379462,-0.915405,-0.256348,0.387451,-16.829269,60.365856,20.426830
1548455379469,-0.926697,-0.259094,0.391541,-11.524390,61.158539,21.585367
1548455379476,-0.932190,-0.258179,0.382935,-4.695122,60.975613,22.621952
1548455379492,-0.929993,-0.254517,0.359009,2.560976,62.378052,24.146341
1548455379499,-0.932922,-0.257690,0.338013,9.024390,63.902439,25.121952
1548455379506,-0.935608,-0.263306,0.321838,13.963415,64.329269,26.158537
1548455379521,-0.950317,-0.265686,0.311279,17.439024,64.573174,26.951220
1548455379529,-0.953247,-0.259338,0.282898,18.353659,64.634148,28.048780
1548455379536,-0.947510,-0.260254,0.254272,16.646341,66.219513,28.353659
1548455379551,-0.955627,-0.251099,0.217590,11.097561,66.768295,27.500000
1548455379559,-0.944397,-0.227173,0.156921,2.743902,65.914635,26.829269
1548455379566,-0.927734,-0.221191,0.108337,-7.012195,66.402443,25.487806
1548455379581,-0.933838,-0.222534,0.061890,-18.048780,64.085365,22.682928
1548455379596,-0.927917,-0.197937,-0.010254,-29.390245,59.207317,20.243902
1548455379597,-0.915771,-0.184998,-0.067139,-34.939026,56.524391,17.256098
1548455379611,-0.920654,-0.186401,-0.068787,-49.146343,50.426830,13.475610
1548455379619,-0.945312,-0.178223,-0.093872,-58.780491,40.365856,10.000000
1548455379627,-0.933655,-0.149902,-0.119812,-57.621952,32.134148,8.475610
1548455379642,-0.917542,-0.132080,-0.102417,-50.853661,26.768293,7.560976
1548455379649,-0.927551,-0.144714,-0.017212,-43.475613,17.804878,5.182927
1548455379657,-0.953186,-0.161072,0.084900,-34.634148,7.378049,2.682927
1548455379672,-0.984253,-0.179199,0.149170,-23.414635,0.914634,1.219512
1548455379679,-0.992249,-0.172363,0.196106,-15.060976,-1.524390,1.341463
1548455379687,-0.997253,-0.166321,0.212036,-9.573171,-1.768293,1.036585
1548455379701,-0.996277,-0.152039,0.191528,-5.426829,-2.743902,0.853659
1548455379709,-0.985107,-0.133362,0.153564,-0.060976,-2.012195,0.914634
1548455379717,-0.986206,-0.125122,0.117249,3.902439,-0.975610,0.121951
1548455379732,-0.992554,-0.123352,0.107971,3.658537,-2.804878,-1.341463
1548455379739,-1.001587,-0.130005,0.134705,-1.280488,-5.365854,-3.170732
1548455379747,-1.020142,-0.149109,0.179321,-7.560976,-8.109756,-4.634146
1548455379762,-1.029297,-0.167725,0.211914,-10.487805,-10.548780,-4.085366
1548455379769,-1.022217,-0.169312,0.211243,-7.987805,-9.512196,-2.439024
1548455379776,-1.010376,-0.171570,0.198730,-3.475610,-7.134147,-1.524390
1548455379791,-1.002747,-0.177979,0.181396,0.853659,-5.914634,-1.585366
1548455379799,-0.999695,-0.194336,0.182556,4.695122,-6.097561,-1.890244
1548455379806,-1.004150,-0.213562,0.182495,8.048780,-6.585366,-1.341463
1548455379821,-1.006104,-0.220459,0.180603,9.939025,-7.378049,-0.426829
1548455379829,-0.998718,-0.227173,0.187439,10.914635,-7.134147,-0.182927
1548455379836,-1.001465,-0.234741,0.201416,11.158537,-6.951220,-0.670732
1548455379852,-1.006104,-0.241272,0.205505,10.914635,-7.682927,-1.158537
1548455379859,-1.002991,-0.242432,0.202393,10.000000,-6.768293,-1.280488
1548455379866,-1.002502,-0.249146,0.215088,8.536586,-5.731708,-1.646341
1548455379882,-1.011780,-0.255249,0.217651,6.341464,-5.670732,-2.378049
1548455379889,-1.006348,-0.248291,0.207397,3.780488,-5.060976,-2.743902
1548455379897,-1.001831,-0.245422,0.199402,1.463415,-3.292683,-2.743902
1548455379911,-1.002625,-0.239563,0.202698,-0.731707,-3.414634,-2.804878
1548455379919,-0.996887,-0.236877,0.198730,-1.524390,-3.475610,-2.560976
1548455379927,-0.994507,-0.231079,0.194214,-1.402439,-2.865854,-2.134146
1548455379942,-0.993591,-0.232056,0.212402,-1.646341,-2.987805,-1.890244
1548455379949,-1.001648,-0.239563,0.221130,-1.829268,-3.414634,-1.890244
1548455379957,-0.997620,-0.230103,0.212830,-2.256098,-3.658537,-1.402439
1548455379972,-0.989380,-0.226440,0.215149,-2.682927,-2.560976,-1.097561
1548455379979,-0.996765,-0.228455,0.219299,-3.048780,-2.743902,-1.280488
1548455379987,-0.998596,-0.224670,0.211548,-2.804878,-3.414634,-1.097561
1548455380001,-0.997681,-0.221130,0.202087,-2.012195,-2.317073,-0.609756
1548455380009,-0.999329,-0.220276,0.186829,-1.402439,-1.951220,-0.426829
1548455380016,-0.993103,-0.226013,0.190613,-1.219512,-1.890244,-0.487805
1548455380031,-1.004211,-0.227905,0.197754,-0.975610,-2.012195,-0.670732
1548455380039,-1.005615,-0.220032,0.192261,-1.280488,-3.048780,-0.487805
1548455380046,-0.997437,-0.213135,0.182617,-1.951220,-2.317073,-0.670732
1548455380062,-0.993103,-0.211731,0.188110,-2.804878,-2.317073,-1.402439
1548455380070,-0.997253,-0.218567,0.209290,-3.109756,-3.109756,-2.073171
1548455380077,-1.003540,-0.223999,0.217163,-2.560976,-3.841464,-2.378049
1548455380092,-0.999084,-0.217407,0.210876,-1.646341,-3.536585,-2.073171
1548455380099,-0.990784,-0.213989,0.196655,-0.426829,-2.439024,-2.256098
1548455380107,-0.988281,-0.216797,0.179932,0.792683,-2.256098,-2.682927
1548455380122,-0.985718,-0.225098,0.169678,2.378049,-2.256098,-2.743902
1548455380130,-0.990540,-0.235779,0.189026,3.109756,-2.500000,-2.682927
1548455380137,-1.001953,-0.239929,0.208984,2.073171,-3.902439,-2.865854
1548455380152,-1.000183,-0.228577,0.211548,-0.182927,-4.817073,-2.621951
1548455380160,-0.995422,-0.221741,0.205017,-1.341463,-3.902439,-2.560976
1548455380168,-0.992798,-0.226074,0.207153,-1.524390,-3.536585,-2.804878
1548455380189,-0.992371,-0.228577,0.194641,-0.487805,-3.597561,-2.865854
1548455380190,-0.987671,-0.228516,0.185059,0.731707,-3.475610,-2.378049
1548455380197,-0.984558,-0.239380,0.195007,1.280488,-3.292683,-2.439024
1548455380212,-0.991821,-0.240234,0.201355,0.670732,-4.451220,-2.743902
1548455380219,-0.986938,-0.228943,0.198303,-0.609756,-5.182927,-2.560976
1548455380227,-0.985657,-0.228699,0.210083,-1.219512,-4.512195,-2.439024
1548455380242,-0.994690,-0.236511,0.217468,-1.097561,-5.304878,-3.048780
1548455380250,-0.989868,-0.234619,0.212952,-0.365854,-5.914634,-3.109756
1548455380257,-0.988647,-0.235657,0.207703,0.426829,-4.939024,-2.743902
1548455380272,-0.989563,-0.234253,0.205139,0.487805,-5.426829,-2.804878
1548455380279,-0.986084,-0.234802,0.199951,0.365854,-5.365854,-3.048780
1548455380287,-0.988586,-0.238220,0.202026,0.060976,-5.121951,-3.170732
1548455380302,-0.988770,-0.238647,0.206482,-0.548781,-5.792683,-3.170732
1548455380309,-0.986206,-0.237061,0.225281,-1.219512,-6.097561,-3.292683
1548455380317,-0.993225,-0.246887,0.247131,-1.585366,-6.524390,-3.475610
1548455380333,-0.996887,-0.241638,0.243958,-0.609756,-7.073171,-3.170732
1548455380340,-0.990356,-0.239929,0.227844,1.158537,-5.487805,-2.865854
1548455380347,-0.985779,-0.243286,0.210144,2.926829,-4.329268,-2.743902
1548455380362,-0.984436,-0.246948,0.195862,3.597561,-4.085366,-2.804878
1548455380370,-0.980225,-0.252319,0.193665,2.926829,-4.024390,-2.743902
1548455380377,-0.985657,-0.252686,0.207703,0.975610,-4.817073,-2.743902
1548455380393,-0.991943,-0.244324,0.221313,-1.524390,-6.097561,-2.987805
1548455380400,-0.988953,-0.235107,0.224182,-3.902439,-6.463415,-3.170732
1548455380408,-0.985901,-0.230469,0.227295,-4.817073,-6.036585,-3.414634
1548455380422,-0.984192,-0.233215,0.219543,-3.902439,-5.975610,-3.841464
1548455380430,-0.981079,-0.237183,0.213135,-1.768293,-5.792683,-4.024390
1548455380438,-0.981384,-0.244568,0.210083,0.121951,-5.731708,-3.963415
1548455380452,-0.981445,-0.244507,0.205200,0.853659,-6.524390,-4.085366
1548455380459,-0.977844,-0.243164,0.209351,0.365854,-7.195122,-4.207317
1548455380467,-0.983887,-0.243347,0.219849,-0.792683,-7.560976,-4.512195
1548455380482,-0.982849,-0.239197,0.221436,-2.012195,-8.292683,-4.939024
1548455380489,-0.978638,-0.236694,0.217285,-2.500000,-8.353659,-4.939024
1548455380497,-0.976685,-0.244568,0.228149,-2.439024,-8.536586,-5.121951
1548455380512,-0.979309,-0.251465,0.239441,-1.829268,-9.146341,-5.365854
1548455380520,-0.979980,-0.250183,0.248718,-1.280488,-9.695122,-5.304878
1548455380527,-0.981628,-0.251892,0.248535,-0.426829,-9.451220,-5.182927
1548455380542,-0.978516,-0.249512,0.234436,0.670732,-9.268292,-5.000000
1548455380550,-0.971191,-0.249939,0.220886,1.707317,-8.536586,-4.939024
1548455380557,-0.973633,-0.258789,0.216614,2.317073,-8.475610,-5.000000
1548455380581,-0.974304,-0.261841,0.216309,2.317073,-9.207317,-4.878049
1548455380581,-0.973389,-0.261719,0.223572,1.158537,-9.634147,-4.939024
1548455380587,-0.978333,-0.262939,0.244995,-0.914634,-10.426829,-5.365854
1548455380603,-0.980591,-0.261719,0.258728,-2.987805,-11.524390,-6.036585
1548455380610,-0.978088,-0.256348,0.262512,-4.146341,-11.707317,-6.280488
1548455380617,-0.976624,-0.256348,0.252747,-3.597561,-11.341464,-6.585366
1548455380632,-0.971069,-0.253601,0.239868,-2.317073,-11.036586,-7.012195
1548455380640,-0.967041,-0.260925,0.229126,-1.219512,-10.670732,-7.378049
1548455380647,-0.967224,-0.266052,0.226562,-0.975610,-11.158537,-7.560976
1548455380663,-0.965759,-0.266296,0.234314,-1.646341,-11.829268,-7.743903
1548455380670,-0.962463,-0.265320,0.239441,-3.109756,-12.439025,-7.987805
1548455380677,-0.961609,-0.264221,0.246033,-4.756098,-13.292684,-8.414635
1548455380692,-0.957825,-0.265259,0.252563,-5.487805,-13.963415,-8.841464
1548455380700,-0.956238,-0.262878,0.256348,-5.365854,-14.451220,-9.207317
1548455380707,-0.953186,-0.261230,0.261536,-4.939024,-14.756098,-9.451220
1548455380722,-0.954102,-0.268127,0.265442,-3.963415,-14.939025,-9.756098
1548455380730,-0.958496,-0.269531,0.261230,-2.682927,-15.487805,-9.939025
1548455380737,-0.957031,-0.270569,0.259888,-1.829268,-15.670732,-10.060976
1548455380752,-0.959412,-0.276855,0.264160,-1.890244,-15.853659,-10.365854
1548455380760,-0.963745,-0.278259,0.267822,-2.865854,-16.951220,-10.670732
1548455380767,-0.959167,-0.276917,0.266235,-3.719512,-17.560976,-10.670732
1548455380782,-0.957031,-0.281494,0.276062,-4.146341,-17.439024,-10.853659
1548455380790,-0.957214,-0.285156,0.283936,-4.329268,-18.109756,-11.280488
1548455380797,-0.955505,-0.284790,0.279602,-4.451220,-18.719513,-11.463415
1548455380812,-0.947632,-0.281372,0.259338,-4.390244,-18.475611,-11.524390
1548455380820,-0.937195,-0.280884,0.247375,-4.329268,-18.048780,-12.012196
1548455380827,-0.934448,-0.288147,0.243896,-5.365854,-18.841463,-13.170732
1548455380842,-0.931396,-0.296509,0.254761,-7.073171,-20.731709,-14.268293
1548455380850,-0.930420,-0.300781,0.264648,-8.841464,-22.439024,-14.939025
1548455380857,-0.929260,-0.295837,0.273499,-9.878049,-23.963415,-15.548780
1548455380872,-0.925964,-0.295654,0.283264,-9.756098,-24.939026,-16.402439
1548455380880,-0.926331,-0.298706,0.290649,-8.963415,-26.097561,-17.439024
1548455380887,-0.922241,-0.303650,0.302307,-7.500000,-26.890245,-17.987804
1548455380903,-0.924805,-0.313477,0.306641,-5.975610,-27.317074,-18.292683
1548455380910,-0.924255,-0.317139,0.310242,-5.243903,-28.231709,-18.536585
1548455380917,-0.920105,-0.322388,0.307983,-5.000000,-28.353659,-18.719513
1548455380932,-0.910889,-0.323669,0.300415,-5.182927,-28.902439,-18.841463
1548455380940,-0.901184,-0.332458,0.308411,-5.487805,-29.024391,-19.085367
1548455380947,-0.903198,-0.341797,0.320129,-6.036585,-30.060976,-19.573172
1548455380962,-0.899231,-0.343140,0.331116,-6.463415,-31.768293,-19.695122
1548455380970,-0.898682,-0.346741,0.354309,-6.158537,-32.256100,-19.512196
1548455380978,-0.900940,-0.345459,0.359375,-4.695122,-33.475609,-19.512196
1548455380992,-0.893311,-0.339478,0.345703,-1.829268,-33.780487,-19.024391
1548455381000,-0.887939,-0.345581,0.341003,0.670732,-32.317074,-18.902439
1548455381007,-0.890381,-0.359009,0.346008,1.341463,-33.170731,-19.695122
1548455381023,-0.887878,-0.365906,0.358765,0.487805,-34.939026,-20.060976
1548455381031,-0.885010,-0.369019,0.360962,-0.426829,-35.731709,-19.878050
1548455381037,-0.874023,-0.366272,0.358704,-1.463415,-36.280487,-19.756098
1548455381052,-0.862915,-0.371887,0.380432,-3.048780,-36.219513,-20.487804
1548455381060,-0.870422,-0.384644,0.404236,-4.878049,-37.621952,-21.585367
1548455381068,-0.865234,-0.380188,0.405762,-5.000000,-39.695122,-21.646341
1548455381082,-0.850525,-0.377502,0.401367,-3.414634,-38.353661,-21.219513
1548455381090,-0.850830,-0.387573,0.406494,-2.195122,-37.378048,-21.646341
1548455381098,-0.852600,-0.388367,0.403015,-1.951220,-39.268295,-22.378050
1548455381112,-0.836975,-0.393555,0.421387,-1.829268,-39.207317,-22.195122
1548455381120,-0.847961,-0.411316,0.454834,-2.073171,-39.085365,-22.195122
1548455381135,-0.854065,-0.407104,0.456055,-1.829268,-41.829269,-21.951220
1548455381143,-0.831116,-0.395447,0.430786,-0.121951,-40.487804,-20.853659
1548455381150,-0.816406,-0.406006,0.413391,0.670732,-37.682926,-20.853659
1548455381157,-0.811646,-0.416199,0.425415,-0.853659,-38.902439,-22.073172
1548455381172,-0.817810,-0.425720,0.441833,-3.658537,-40.975609,-22.804878
1548455381179,-0.812073,-0.421265,0.445435,-5.914634,-42.560978,-22.682928
1548455381187,-0.797852,-0.417725,0.453857,-6.524390,-42.378048,-22.500000
1548455381202,-0.798889,-0.420471,0.462891,-6.768293,-42.926830,-23.048780
1548455381209,-0.787781,-0.417358,0.453918,-7.378049,-44.268295,-23.658537
1548455381217,-0.777832,-0.421692,0.463013,-7.804878,-43.719513,-24.207317
1548455381232,-0.781982,-0.432861,0.482056,-8.658537,-44.817074,-24.939026
1548455381239,-0.772217,-0.435120,0.501526,-9.146341,-46.890244,-25.365854
1548455381247,-0.764832,-0.454285,0.545410,-9.085366,-46.524391,-25.365854
1548455381263,-0.772156,-0.454529,0.558899,-10.548780,-48.048782,-25.243902
1548455381270,-0.761047,-0.434265,0.525269,-3.231707,-47.804878,-24.329269
1548455381277,-0.744934,-0.441711,0.499939,2.195122,-43.902439,-23.963415
1548455381292,-0.745361,-0.462402,0.492004,3.597561,-43.231709,-24.878050
1548455381300,-0.744019,-0.469666,0.491150,2.560976,-45.670734,-25.548780
1548455381307,-0.728760,-0.476624,0.509338,-0.670732,-46.402439,-25.365854
1548455381322,-0.727051,-0.482971,0.526062,-5.000000,-48.170734,-25.548780
1548455381330,-0.709900,-0.475952,0.534363,-8.658537,-50.000000,-25.792683
1548455381339,-0.700439,-0.476379,0.537109,-11.280488,-49.390244,-26.402439
1548455381352,-0.689819,-0.475220,0.543823,-13.841464,-50.609756,-27.195122
1548455381360,-0.684753,-0.482483,0.559753,-15.304878,-51.341465,-28.048780
1548455381367,-0.683044,-0.490601,0.573486,-15.548780,-52.195122,-28.536587
1548455381382,-0.675720,-0.485962,0.557251,-14.329268,-53.170734,-28.597561
1548455381390,-0.661438,-0.489258,0.553162,-12.621951,-52.256100,-28.658537
1548455381397,-0.659241,-0.508057,0.578125,-11.768293,-52.317074,-29.390245
1548455381412,-0.657715,-0.515747,0.586426,-11.646341,-55.243904,-29.939026
1548455381420,-0.639771,-0.512329,0.593323,-10.975610,-55.731709,-29.451220
1548455381427,-0.633057,-0.526306,0.616089,-9.695122,-54.451221,-29.451220
1548455381442,-0.628540,-0.529419,0.623535,-9.573171,-56.219513,-29.756098
1548455381450,-0.609375,-0.523926,0.613892,-9.085366,-55.853661,-29.268293
1548455381457,-0.597473,-0.546814,0.656738,-6.097561,-53.597561,-29.207317
1548455381472,-0.608887,-0.572571,0.708069,-5.304878,-55.487804,-29.573172
1548455381480,-0.604126,-0.558289,0.711365,-4.695122,-56.829269,-28.109756
1548455381487,-0.596924,-0.554443,0.689148,1.402439,-52.560978,-26.036587
1548455381502,-0.594604,-0.558533,0.661621,5.182927,-49.695122,-25.548780
1548455381510,-0.591797,-0.564819,0.626038,5.000000,-48.658539,-25.914635
1548455381517,-0.581482,-0.573364,0.594116,0.731707,-48.109756,-26.036587
1548455381532,-0.561096,-0.575012,0.592712,-7.134147,-48.841465,-26.646341
1548455381539,-0.546509,-0.595276,0.673828,-17.317074,-51.036587,-27.804878
1548455381547,-0.546936,-0.623352,0.769592,-25.914635,-54.817074,-28.475611
1548455381562,-0.530457,-0.597595,0.788757,-28.109756,-56.707317,-26.951220
1548455381569,-0.502197,-0.576477,0.779236,-25.182928,-51.280491,-24.695122
1548455381577,-0.513489,-0.592529,0.780334,-17.378050,-45.975613,-24.817074
1548455381592,-0.533264,-0.599976,0.757507,-8.597561,-45.182926,-25.365854
1548455381599,-0.534851,-0.602356,0.704834,-2.195122,-41.585365,-23.902439
1548455381607,-0.529724,-0.613037,0.664856,0.121951,-37.682926,-22.682928
1548455381622,-0.519409,-0.623840,0.659424,-2.256098,-37.743904,-22.682928
1548455381630,-0.509827,-0.642151,0.672424,-7.987805,-39.268295,-22.743902
1548455381637,-0.489685,-0.637451,0.669922,-14.634147,-40.670734,-22.195122
1548455381652,-0.461914,-0.623840,0.662598,-20.426830,-39.634148,-21.463415
1548455381660,-0.449097,-0.627258,0.685547,-26.280489,-39.085365,-22.317074
1548455381667,-0.443237,-0.619446,0.698608,-31.646341,-41.341465,-23.658537
1548455381682,-0.431213,-0.602417,0.671875,-33.841465,-41.463417,-23.780489
1548455381689,-0.424011,-0.595154,0.643982,-32.926830,-39.573174,-23.719513
1548455381697,-0.422913,-0.600708,0.628479,-31.097561,-39.756100,-24.939026
1548455381713,-0.418457,-0.625427,0.660400,-30.487806,-41.829269,-26.341463
1548455381720,-0.412476,-0.651611,0.697327,-30.609756,-44.085365,-26.890245
1548455381727,-0.399048,-0.639160,0.707153,-29.146341,-46.097561,-26.341463
1548455381742,-0.381165,-0.623474,0.694336,-24.634148,-44.878048,-25.243902
1548455381750,-0.383118,-0.633179,0.690979,-18.292683,-43.414635,-25.609756
1548455381757,-0.393066,-0.648560,0.683655,-11.524390,-44.268295,-26.646341
1548455381772,-0.390076,-0.660950,0.677185,-5.670732,-44.146343,-26.524391
1548455381780,-0.385803,-0.670715,0.669678,-3.475610,-43.353661,-25.975611
1548455381794,-0.371521,-0.662781,0.654480,-6.097561,-44.207317,-25.914635
1548455381802,-0.352722,-0.671021,0.682007,-11.402439,-44.817074,-26.402439
1548455381810,-0.344299,-0.716858,0.772217,-16.036585,-46.158539,-27.256098
1548455381817,-0.335083,-0.711914,0.805237,-17.500000,-49.451221,-26.829269
1548455381833,-0.305542,-0.674072,0.774658,-14.756098,-47.073174,-24.024391
1548455381840,-0.304504,-0.677551,0.756836,-10.487805,-40.853661,-23.231709
1548455381847,-0.328796,-0.691956,0.750854,-5.487805,-40.243904,-24.634148
1548455381863,-0.335876,-0.705078,0.737305,-1.097561,-40.365856,-24.146341
1548455381870,-0.333923,-0.723999,0.738159,-0.304878,-38.048782,-22.500000
1548455381877,-0.328796,-0.727051,0.743958,-3.536585,-37.865856,-21.707317
1548455381893,-0.309509,-0.710327,0.740234,-9.146341,-38.292683,-21.158537
1548455381900,-0.289307,-0.712036,0.744568,-13.231708,-36.524391,-20.609756
1548455381908,-0.279297,-0.722534,0.761780,-13.780488,-35.975609,-20.548780
1548455381922,-0.264648,-0.714355,0.753479,-11.707317,-35.670734,-20.060976
1548455381930,-0.255798,-0.703186,0.740479,-9.634147,-33.719513,-19.146341
1548455381937,-0.255615,-0.721619,0.758728,-8.719512,-32.073170,-19.146341
1548455381953,-0.262207,-0.728333,0.772522,-8.231708,-32.743904,-19.390244
1548455381960,-0.251160,-0.714661,0.764465,-6.951220,-32.256100,-17.865854
1548455381968,-0.246033,-0.728577,0.768555,-5.000000,-28.963415,-16.463415
1548455381982,-0.253113,-0.740479,0.775024,-3.353659,-28.048780,-16.524391
1548455381990,-0.248230,-0.728027,0.758850,-1.951220,-27.743902,-15.731708
1548455381997,-0.240662,-0.726196,0.747131,-1.524390,-25.121952,-14.390244
1548455382012,-0.244690,-0.740234,0.755676,-1.890244,-23.963415,-14.024390
1548455382020,-0.239746,-0.734863,0.748047,-2.560976,-24.329269,-13.658537
1548455382028,-0.227112,-0.719299,0.728027,-3.231707,-22.926830,-12.317074
1548455382042,-0.218506,-0.718567,0.723083,-3.963415,-21.280489,-11.707317
1548455382057,-0.214905,-0.724243,0.727051,-4.390244,-21.707317,-12.012196
1548455382058,-0.208557,-0.717529,0.719238,-4.817073,-22.195122,-11.829268
1548455382072,-0.194763,-0.703857,0.705200,-5.121951,-21.463415,-11.280488
1548455382080,-0.184814,-0.705078,0.702454,-5.365854,-21.219513,-11.280488
1548455382095,-0.180054,-0.711731,0.715454,-5.792683,-22.317074,-11.890244
1548455382102,-0.171143,-0.708191,0.714355,-5.975610,-23.414635,-12.073171
1548455382110,-0.165894,-0.708740,0.721008,-5.792683,-23.292683,-11.829268
1548455382118,-0.171326,-0.715515,0.728394,-4.939024,-23.414635,-12.256098
1548455382132,-0.172424,-0.710327,0.724670,-3.231707,-23.902439,-12.439025
1548455382140,-0.174500,-0.721924,0.727722,-1.341463,-22.804878,-12.134147
1548455382147,-0.179260,-0.727478,0.732239,-0.182927,-22.621952,-12.317074
1548455382163,-0.176819,-0.725586,0.730896,0.182927,-22.865854,-12.012196
1548455382170,-0.172546,-0.729248,0.733276,-0.243902,-22.134148,-11.585366
1548455382178,-0.171814,-0.734802,0.743347,-0.670732,-22.073172,-11.524390
1548455382192,-0.162903,-0.728394,0.737976,-0.670732,-22.012196,-11.219512
1548455382200,-0.152161,-0.720581,0.723633,-0.304878,-20.792683,-10.609756
1548455382207,-0.145325,-0.727112,0.726440,-0.304878,-20.121952,-10.487805
1548455382230,-0.138489,-0.736694,0.743713,-0.853659,-20.548780,-10.731708
1548455382230,-0.132019,-0.743896,0.763672,-1.829268,-20.792683,-10.304878
1548455382237,-0.127441,-0.749634,0.779297,-2.195122,-20.000000,-9.390244
1548455382260,-0.128967,-0.758423,0.791626,-1.707317,-18.597561,-8.475610
1548455382260,-0.143677,-0.770813,0.807983,-0.792683,-16.768293,-7.682927
1548455382268,-0.160095,-0.784424,0.830261,0.060976,-15.060976,-6.951220
1548455382283,-0.166870,-0.787231,0.843567,-0.304878,-12.987805,-5.731708
1548455382290,-0.163513,-0.779968,0.838562,-3.231707,-9.878049,-4.085366
1548455382298,-0.156616,-0.770630,0.823608,-3.536585,-6.341464,-2.865854
1548455382313,-0.148987,-0.764282,0.808289,-3.353659,-3.536585,-2.195122
1548455382320,-0.132080,-0.751770,0.784119,-4.146341,-1.341463,-1.341463
1548455382328,-0.121033,-0.735779,0.752502,-4.756098,0.731707,-0.365854
1548455382342,-0.114075,-0.720703,0.726379,-5.670732,2.256098,0.121951
1548455382350,-0.114136,-0.712585,0.710938,-7.073171,2.439024,-0.182927
1548455382358,-0.111938,-0.708069,0.693176,-8.109756,1.890244,-0.487805
1548455382372,-0.109253,-0.704956,0.683044,-7.621952,1.646341,-0.426829
1548455382380,-0.108948,-0.703552,0.674316,-5.975610,1.219512,-0.487805
1548455382387,-0.111084,-0.709595,0.674316,-3.902439,0.121951,-0.853659
1548455382402,-0.116333,-0.719482,0.679138,-1.951220,-0.914634,-1.280488
1548455382410,-0.123779,-0.723755,0.689392,-0.487805,-1.951220,-1.585366
1548455382417,-0.127808,-0.727722,0.695496,0.487805,-2.926829,-1.646341
1548455382440,-0.130859,-0.737000,0.703064,0.731707,-3.231707,-1.524390
1548455382441,-0.132568,-0.741455,0.716003,0.609756,-3.597561,-1.585366
1548455382448,-0.130798,-0.745422,0.728333,0.548781,-3.719512,-1.341463
1548455382462,-0.127747,-0.749146,0.734192,0.487805,-3.353659,-0.853659
1548455382470,-0.125366,-0.747253,0.739746,0.426829,-2.926829,-0.609756
1548455382477,-0.125366,-0.746582,0.742676,0.548781,-2.500000,-0.365854
1548455382493,-0.125061,-0.745483,0.746643,0.731707,-1.829268,-0.060976
1548455382500,-0.123413,-0.741760,0.746094,0.792683,-1.402439,0.304878
1548455382507,-0.120667,-0.737366,0.734253,0.975610,-0.792683,0.792683
1548455382522,-0.123108,-0.733459,0.727661,1.097561,0.060976,0.975610
1548455382530,-0.123047,-0.732117,0.722778,1.097561,0.304878,0.853659
1548455382537,-0.122742,-0.726929,0.715637,1.158537,0.243902,1.036585
1548455382552,-0.119263,-0.723389,0.709534,1.097561,0.182927,1.341463
1548455382560,-0.118469,-0.723389,0.708069,0.975610,0.060976,1.158537
1548455382568,-0.118774,-0.725769,0.708191,0.975610,-0.365854,0.975610
1548455382582,-0.117676,-0.720825,0.707520,0.914634,-0.731707,1.036585
1548455382590,-0.119995,-0.724792,0.711609,1.158537,-0.792683,0.914634
1548455382597,-0.123779,-0.727356,0.715027,1.036585,-1.158537,0.609756
1548455382613,-0.121948,-0.721985,0.711731,1.158537,-1.341463,0.731707
1548455382620,-0.122437,-0.721497,0.711182,1.097561,-0.792683,0.670732
1548455382627,-0.129456,-0.726257,0.716675,1.219512,-0.914634,0.365854
1548455382642,-0.131470,-0.724548,0.716858,1.036585,-1.219512,0.060976
1548455382650,-0.127319,-0.720337,0.717529,0.304878,-0.975610,0.000000
1548455382657,-0.123291,-0.719482,0.721802,-0.487805,-0.853659,-0.243902
1548455382672,-0.121704,-0.723816,0.724426,-0.914634,-0.853659,-0.731707
1548455382679,-0.115967,-0.726868,0.722961,-0.975610,-0.914634,-1.036585
1548455382687,-0.108032,-0.726807,0.726318,-0.670732,-0.853659,-0.975610
1548455382702,-0.109253,-0.727234,0.724854,-0.609756,-0.670732,-0.975610
1548455382710,-0.114990,-0.730286,0.726868,-0.914634,-0.853659,-1.280488
1548455382717,-0.125061,-0.733521,0.730225,-1.097561,-1.097561,-1.524390
1548455382732,-0.130188,-0.732971,0.724304,-1.402439,-0.914634,-1.646341
1548455382739,-0.130798,-0.736206,0.720642,-1.585366,-0.426829,-1.951220
1548455382747,-0.128845,-0.739014,0.716553,-1.768293,-0.304878,-2.195122
1548455382762,-0.125427,-0.736084,0.709717,-1.951220,-0.182927,-2.073171
1548455382770,-0.121948,-0.735718,0.712341,-2.134146,-0.060976,-1.829268
1548455382777,-0.117981,-0.736389,0.714966,-2.073171,-0.365854,-1.402439
1548455382792,-0.111328,-0.734680,0.713013,-1.463415,-0.670732,-0.609756
1548455382800,-0.108582,-0.732727,0.706665,-0.487805,-0.426829,0.182927
1548455382807,-0.113770,-0.739685,0.712097,0.365854,-0.548781,0.548781
1548455382822,-0.117310,-0.736511,0.714722,0.609756,-1.158537,0.853659
1548455382830,-0.120789,-0.727173,0.711548,0.609756,-1.341463,1.341463
1548455382838,-0.126892,-0.728210,0.712891,0.731707,-1.158537,1.280488
1548455382852,-0.129700,-0.734009,0.714783,1.036585,-1.341463,0.975610
1548455382860,-0.128357,-0.732239,0.712708,1.280488,-1.463415,0.914634
1548455382875,-0.123657,-0.729858,0.715271,1.158537,-1.158537,0.792683
1548455382882,-0.119629,-0.729248,0.719421,0.609756,-1.219512,0.548781
1548455382893,-0.117310,-0.730713,0.718018,0.121951,-1.158537,0.365854
1548455382898,-0.118530,-0.728577,0.714783,-0.182927,-0.731707,0.182927
1548455382912,-0.119202,-0.730103,0.713196,-0.060976,-0.487805,0.060976
1548455382920,-0.118958,-0.731384,0.715637,0.182927,-0.487805,-0.121951
1548455382927,-0.120300,-0.731384,0.716736,0.182927,-0.731707,-0.243902
1548455382942,-0.120483,-0.731934,0.714844,0.000000,-0.609756,-0.304878
1548455382949,-0.118225,-0.734680,0.714661,-0.182927,-0.487805,-0.426829
1548455382982,-0.122559,-0.734070,0.716003,-0.121951,-0.670732,-0.487805
1548455382982,-0.123840,-0.733337,0.715759,0.182927,-0.670732,-0.548781
1548455382982,-0.124451,-0.731262,0.709839,0.670732,-0.548781,-0.365854
1548455382992,-0.123108,-0.735535,0.707886,0.975610,-0.426829,-0.182927
1548455383009,-0.122803,-0.734680,0.712769,1.097561,-0.487805,0.000000
1548455383010,-0.120728,-0.733276,0.711548,0.975610,-0.670732,0.182927
1548455383017,-0.118103,-0.736145,0.712524,0.975610,-0.487805,0.243902
1548455383033,-0.115845,-0.737671,0.712463,0.975610,-0.670732,0.000000
1548455383039,-0.115601,-0.732178,0.710571,0.792683,-0.731707,0.121951
1548455383046,-0.115662,-0.731750,0.713928,0.670732,-0.548781,0.365854
1548455383062,-0.118042,-0.732971,0.718262,0.914634,-0.853659,0.426829
1548455383069,-0.117126,-0.727051,0.716309,1.280488,-1.280488,0.731707
1548455383076,-0.119080,-0.727966,0.715027,1.585366,-0.975610,1.097561
1548455383099,-0.119080,-0.732056,0.718506,1.707317,-1.036585,1.280488
1548455383100,-0.119019,-0.727356,0.719910,1.951220,-1.402439,1.402439
1548455383107,-0.119629,-0.720337,0.718140,2.134146,-1.219512,1.890244
1548455383122,-0.123535,-0.723511,0.717468,2.195122,-1.036585,1.707317
1548455383129,-0.125000,-0.724426,0.721558,2.195122,-1.158537,1.585366
1548455383137,-0.124146,-0.716553,0.718445,2.134146,-1.219512,1.524390
1548455383151,-0.120361,-0.715027,0.719238,2.378049,-0.914634,1.463415
1548455383159,-0.117981,-0.722351,0.722290,3.597561,-0.975610,1.219512
1548455383167,-0.114075,-0.728455,0.723389,4.939024,-0.914634,1.097561
1548455383182,-0.116821,-0.730774,0.726318,4.634146,-0.670732,0.792683
1548455383189,-0.118896,-0.727356,0.729187,2.804878,-1.036585,0.670732
1548455383196,-0.118469,-0.727234,0.727417,1.036585,-0.914634,0.548781
1548455383212,-0.123718,-0.731323,0.728455,0.304878,-0.670732,0.243902
1548455383220,-0.125549,-0.732239,0.728699,0.365854,-0.609756,0.182927
1548455383227,-0.123108,-0.731506,0.724121,0.792683,-0.182927,0.426829
1548455383242,-0.124512,-0.731384,0.719238,1.280488,0.243902,0.487805
1548455383250,-0.124573,-0.734253,0.723694,1.341463,0.304878,0.304878
1548455383258,-0.124268,-0.738586,0.730042,0.914634,0.121951,0.304878
1548455383272,-0.119873,-0.732300,0.724976,0.426829,0.243902,0.487805
1548455383280,-0.117065,-0.729736,0.716003,0.365854,0.670732,0.731707
1548455383287,-0.118835,-0.727234,0.710510,0.548781,0.914634,0.487805
1548455383302,-0.122192,-0.729187,0.709595,0.914634,0.731707,0.304878
1548455383310,-0.125366,-0.731934,0.716858,0.975610,0.365854,0.365854
1548455383317,-0.126160,-0.728699,0.721069,0.853659,-0.060976,0.304878
1548455383332,-0.120972,-0.723938,0.716553,0.487805,-0.060976,0.426829
1548455383340,-0.121155,-0.724670,0.713257,0.243902,0.365854,0.426829
1548455383347,-0.124634,-0.731201,0.719482,0.609756,0.121951,0.304878
1548455383362,-0.124207,-0.732483,0.724915,1.280488,-0.304878,0.365854
1548455383370,-0.123718,-0.732849,0.729919,1.402439,0.060976,0.609756
1548455383377,-0.127747,-0.729431,0.728699,1.280488,0.000000,0.853659
1548455383392,-0.127686,-0.726807,0.721436,1.463415,0.243902,1.219512
1548455383400,-0.129761,-0.728027,0.725769,2.195122,0.487805,1.402439
1548455383407,-0.131165,-0.730530,0.728760,3.048780,0.304878,1.402439
1548455383422,-0.128113,-0.731384,0.734009,3.353659,0.548781,1.524390
1548455383430,-0.123657,-0.728699,0.739563,2.500000,0.609756,1.890244
1548455383437,-0.119812,-0.730286,0.742920,2.439024,0.975610,2.012195
1548455383452,-0.120056,-0.734924,0.741638,3.719512,1.402439,2.195122
1548455383460,-0.124207,-0.735596,0.739868,5.000000,1.951220,2.560976
1548455383467,-0.127808,-0.736145,0.745728,5.670732,2.378049,2.926829
1548455383482,-0.131897,-0.737427,0.747437,5.853659,2.865854,3.292683
1548455383490,-0.138916,-0.735413,0.744690,5.792683,3.353659,3.719512
1548455383497,-0.139038,-0.734436,0.740417,5.609756,4.085366,4.085366
1548455383512,-0.139160,-0.734070,0.747681,5.426829,4.817073,4.329268
1548455383520,-0.140442,-0.730835,0.755249,5.731708,5.121951,4.634146
1548455383528,-0.136780,-0.727844,0.758850,6.158537,5.426829,5.060976
1548455383542,-0.132874,-0.729431,0.752991,6.829268,6.585366,5.548780
1548455383550,-0.136902,-0.732788,0.751526,7.439024,7.621952,5.792683
1548455383557,-0.145508,-0.731689,0.750977,7.195122,8.109756,6.036585
1548455383573,-0.145264,-0.728821,0.748413,6.280488,8.597561,6.463415
1548455383580,-0.148193,-0.725708,0.750244,5.121951,9.329268,6.829268
1548455383588,-0.154419,-0.725830,0.753540,3.841464,9.756098,7.195122
1548455383602,-0.157043,-0.726013,0.756409,2.926829,10.121951,7.500000
1548455383611,-0.155701,-0.724243,0.755493,2.439024,10.853659,7.743903
1548455383617,-0.153870,-0.719360,0.752563,2.500000,11.707317,8.048780
1548455383633,-0.155029,-0.717896,0.749084,2.865854,12.378049,8.231708
1548455383640,-0.159790,-0.716553,0.748108,3.536585,12.804878,8.353659
1548455383647,-0.166260,-0.717712,0.744568,3.963415,13.231708,8.475610
1548455383662,-0.170837,-0.718018,0.747620,4.085366,13.536586,8.780488
1548455383670,-0.171631,-0.716980,0.752380,4.024390,13.719513,8.963415
1548455383677,-0.170471,-0.714172,0.748169,3.902439,14.329268,9.207317
1548455383692,-0.173218,-0.710266,0.743774,4.024390,15.000000,9.451220
1548455383700,-0.179260,-0.710205,0.740051,4.268293,15.609756,9.573171
1548455383707,-0.186829,-0.712585,0.742249,4.390244,15.975610,9.573171
1548455383722,-0.187012,-0.710876,0.747314,4.329268,15.975610,9.695122
1548455383730,-0.186768,-0.712219,0.753906,4.512195,16.280489,10.060976
1548455383737,-0.188171,-0.707886,0.748047,4.939024,16.890244,10.426829
1548455383752,-0.190186,-0.705444,0.743164,5.609756,17.743902,10.792684
1548455383760,-0.197144,-0.705505,0.743103,6.585366,18.231709,10.670732
1548455383769,-0.201965,-0.704285,0.741821,7.439024,18.475611,10.731708
1548455383782,-0.206482,-0.706604,0.741150,7.621952,18.902439,10.975610
1548455383797,-0.207336,-0.707764,0.747437,7.073171,18.963415,11.036586
1548455383798,-0.212646,-0.705139,0.752258,6.402439,19.085367,11.280488
1548455383812,-0.214294,-0.702393,0.751526,6.036585,19.390244,11.524390
1548455383820,-0.217407,-0.705872,0.755432,6.341464,19.878050,11.646341
1548455383835,-0.223633,-0.703186,0.757568,6.890244,20.243902,11.951220
1548455383842,-0.228516,-0.699951,0.753967,7.682927,20.792683,12.256098
1548455383850,-0.236755,-0.705078,0.756470,8.597561,21.707317,12.439025
1548455383857,-0.243958,-0.705994,0.758728,9.329268,21.951220,12.621951
1548455383872,-0.247375,-0.704163,0.755981,9.878049,22.439024,13.048780
1548455383887,-0.251465,-0.704285,0.756958,10.426829,23.414635,13.597561
1548455383888,-0.256470,-0.703979,0.760437,10.487805,24.207317,13.902439
1548455383902,-0.260986,-0.703857,0.763550,10.243902,24.756098,14.207317
1548455383910,-0.264038,-0.703674,0.767639,10.182927,25.548780,14.878049
1548455383917,-0.269226,-0.707886,0.773987,10.304878,26.707317,15.548780
1548455383932,-0.274719,-0.702637,0.780823,10.609756,27.378050,16.158537
1548455383940,-0.277832,-0.699158,0.781738,11.524390,28.597561,17.073172
1548455383955,-0.290161,-0.695923,0.777344,12.560976,30.000000,17.865854
1548455383962,-0.297607,-0.695862,0.777954,13.719513,31.158537,18.536585
1548455383970,-0.305908,-0.705322,0.788330,14.390244,32.500000,19.085367
1548455383977,-0.313599,-0.708252,0.794922,14.756098,33.231709,19.878050
1548455384000,-0.312866,-0.705627,0.796631,15.365854,34.695122,21.280489
1548455384000,-0.318115,-0.701538,0.796631,16.036585,36.768295,22.560976
1548455384007,-0.326111,-0.693604,0.798035,16.890244,38.231709,23.719513
1548455384022,-0.335327,-0.695923,0.796082,17.987804,39.939026,24.939026
1548455384030,-0.347412,-0.696472,0.797485,18.963415,41.707317,26.036587
1548455384037,-0.354736,-0.692322,0.795532,19.390244,43.292683,27.256098
1548455384052,-0.357971,-0.690308,0.800720,18.902439,45.121952,28.353659
1548455384060,-0.365723,-0.689941,0.815613,18.109756,46.829269,29.329269
1548455384075,-0.373901,-0.686340,0.823181,17.743902,48.414635,30.670732
1548455384082,-0.379089,-0.682556,0.831909,18.536585,50.609756,32.073170
1548455384090,-0.391113,-0.673340,0.815125,20.670732,53.353661,33.719513
1548455384097,-0.400391,-0.657471,0.790100,23.170732,56.280491,35.487804
1548455384114,-0.416687,-0.658875,0.776428,24.512196,59.512196,36.341465
1548455384120,-0.430481,-0.656250,0.762878,23.536587,60.792683,36.341465
1548455384128,-0.430603,-0.647522,0.761597,21.280489,61.829269,37.317074
1548455384142,-0.435425,-0.648743,0.768494,18.231709,63.353661,38.292683
1548455384151,-0.438782,-0.636780,0.757080,15.792684,63.841465,38.902439
1548455384166,-0.440002,-0.621460,0.747681,15.000000,65.243904,39.817074
1548455384172,-0.451904,-0.615662,0.753052,14.939025,67.012199,40.243904
1548455384179,-0.472229,-0.606995,0.740906,15.853659,67.256096,40.487804
1548455384187,-0.485840,-0.591492,0.719055,17.134148,68.536591,41.158539
1548455384202,-0.495728,-0.592468,0.718140,18.170732,70.609756,41.585365
1548455384209,-0.514954,-0.587830,0.716797,18.292683,70.609756,41.585365
1548455384217,-0.522705,-0.572266,0.707031,18.109756,70.853661,42.256100
1548455384232,-0.535522,-0.568726,0.695007,18.109756,72.804878,42.560978
1548455384240,-0.545532,-0.551697,0.669739,17.804878,72.804878,42.621952
1548455384247,-0.546875,-0.544617,0.654785,17.500000,74.024391,42.621952
1548455384262,-0.559814,-0.555298,0.677612,15.792684,74.573174,41.890244
1548455384270,-0.580505,-0.547058,0.677551,13.902439,72.865852,41.646343
1548455384277,-0.584045,-0.519470,0.644897,13.902439,73.048782,42.682926
1548455384292,-0.588806,-0.511841,0.628052,14.939025,75.670731,42.865856
1548455384300,-0.614258,-0.512756,0.616760,15.182927,75.121956,41.768295
1548455384307,-0.623962,-0.502686,0.608459,15.060976,73.902443,41.829269
1548455384322,-0.638672,-0.503723,0.612549,15.060976,74.329269,42.378048
1548455384330,-0.648682,-0.492249,0.588440,15.182927,73.353661,42.621952
1548455384337,-0.645203,-0.476929,0.569092,15.426829,73.841469,42.926830
1548455384352,-0.664734,-0.481384,0.565247,14.451220,74.146339,42.134148
1548455384359,-0.679688,-0.470093,0.553040,12.621951,71.768295,41.402439
1548455384367,-0.686157,-0.459839,0.536987,11.280488,71.402443,41.280487
1548455384382,-0.702209,-0.459656,0.538330,9.512196,71.280487,40.914635
1548455384390,-0.717407,-0.457825,0.534668,7.682927,69.207321,39.817074
1548455384397,-0.722961,-0.447998,0.524780,6.585366,68.353661,39.573174
1548455384412,-0.732849,-0.444519,0.515625,6.707317,68.292686,39.634148
1548455384419,-0.743225,-0.442017,0.516357,7.560976,66.890244,39.451221
1548455384427,-0.756653,-0.444702,0.528748,9.451220,66.219513,39.329269
1548455384442,-0.775146,-0.447876,0.534485,12.621951,65.182930,39.756100
1548455384449,-0.781738,-0.433411,0.514038,17.134148,64.634148,40.853661
1548455384457,-0.779236,-0.424072,0.490906,20.975611,66.341461,41.280487
1548455384472,-0.786560,-0.419678,0.479553,21.646341,66.585365,40.670734
1548455384480,-0.798218,-0.413818,0.466675,20.000000,66.036591,40.000000
1548455384487,-0.803040,-0.402954,0.453674,17.012196,66.036591,39.695122
1548455384503,-0.809692,-0.394165,0.452393,12.804878,66.280487,38.963417
1548455384509,-0.825256,-0.393250,0.471802,7.560976,65.792686,37.743904
1548455384517,-0.842773,-0.381958,0.476135,3.414634,64.573174,37.195122
1548455384532,-0.835632,-0.362183,0.480408,1.951220,65.670731,37.682926
1548455384539,-0.848572,-0.360535,0.483459,2.378049,67.621956,37.439026
1548455384547,-0.853088,-0.339478,0.442688,4.207317,67.256096,37.560978
1548455384562,-0.839233,-0.312683,0.375549,7.865854,70.487808,38.292683
1548455384570,-0.842590,-0.312561,0.361023,8.353659,73.536591,37.500000
1548455384577,-0.869263,-0.326904,0.372864,4.573171,71.219513,35.609756
1548455384592,-0.882996,-0.315308,0.369019,-0.914634,68.902443,35.548782
1548455384600,-0.889282,-0.305969,0.365234,-5.304878,70.243904,36.463417
1548455384607,-0.896729,-0.302185,0.366943,-9.146341,70.487808,36.280487
1548455384622,-0.895020,-0.284607,0.348755,-11.402439,69.878052,36.036587
1548455384629,-0.892334,-0.258484,0.304688,-11.158537,70.914635,36.585365
1548455384637,-0.891357,-0.248535,0.285400,-9.207317,72.073174,36.829269
1548455384652,-0.908752,-0.259644,0.276917,-7.621952,71.402443,35.487804
1548455384659,-0.919861,-0.250549,0.259766,-6.890244,68.780487,34.817074
1548455384667,-0.918030,-0.240784,0.242310,-6.280488,68.597565,35.243904
1548455384682,-0.929443,-0.246826,0.244812,-6.402439,68.231712,34.512196
1548455384689,-0.948242,-0.242188,0.235474,-5.670732,65.975609,33.048782
1548455384697,-0.947571,-0.217773,0.199768,-2.743902,65.000000,32.743904
1548455384712,-0.939392,-0.198914,0.157471,1.585366,65.975609,32.804878
1548455384720,-0.938171,-0.197449,0.128113,5.243903,65.670731,31.219513
1548455384727,-0.938782,-0.191772,0.085327,7.134147,63.719513,28.963415
1548455384743,-0.934875,-0.185486,0.039429,9.390244,61.585369,27.012196
1548455384749,-0.931885,-0.185364,-0.004517,5.121951,59.390244,24.695122
1548455384757,-0.932495,-0.186462,-0.043823,-1.951220,55.000000,21.097561
1548455384772,-0.929565,-0.170593,-0.111328,-10.243902,49.329269,17.256098
1548455384779,-0.911743,-0.143066,-0.132996,-18.841463,43.780487,13.231708
1548455384787,-0.914978,-0.131470,-0.118103,-33.414635,36.280487,8.963415
1548455384802,-0.925476,-0.138000,-0.067993,-46.341465,26.341463,4.085366
1548455384810,-0.941406,-0.139526,0.007568,-51.646343,18.902439,-0.609756
1548455384817,-0.966492,-0.150024,0.079285,-46.768295,13.170732,-4.024390
1548455384832,-0.981689,-0.153381,0.121094,-33.536587,8.292683,-5.304878
1548455384840,-0.979675,-0.151001,0.134033,-16.402439,6.463415,-5.000000
1548455384847,-0.970825,-0.146667,0.123657,0.548781,6.341464,-5.975610
1548455384862,-0.971375,-0.148315,0.106873,14.878049,5.182927,-7.926829
1548455384870,-0.979065,-0.166260,0.117859,25.975611,3.902439,-9.817074
1548455384877,-1.006287,-0.202271,0.119629,32.073170,2.012195,-11.341464
1548455384893,-1.018372,-0.222900,0.124146,31.768293,-0.487805,-12.560976
1548455384899,-1.018982,-0.235046,0.134460,27.317074,-0.975610,-13.048780
1548455384907,-1.014954,-0.259888,0.155212,21.646341,-1.341463,-12.439025
1548455384922,-1.008362,-0.279114,0.152039,17.378050,-1.463415,-11.463415
1548455384930,-1.004578,-0.284790,0.143494,14.695123,-0.670732,-10.792684
1548455384937,-1.001465,-0.295044,0.141235,12.073171,0.000000,-9.695122
1548455384952,-1.001160,-0.303894,0.134521,9.695122,-0.304878,-8.475610
1548455384960,-0.996399,-0.298767,0.121826,7.317073,-0.792683,-7.256098
1548455384967,-0.990234,-0.295410,0.118835,5.121951,-0.426829,-6.219512
1548455384982,-0.995300,-0.292542,0.110535,3.231707,-0.792683,-5.548780
1548455384990,-0.996765,-0.288452,0.105225,2.500000,-2.012195,-5.304878
1548455384997,-0.999268,-0.308105,0.150818,3.719512,-2.195122,-5.121951
1548455385012,-1.013245,-0.341370,0.180237,5.548780,-3.170732,-5.365854
1548455385020,-1.011780,-0.340393,0.168701,5.914634,-3.841464,-4.695122
1548455385027,-1.004761,-0.324829,0.137512,4.512195,-1.402439,-3.963415
1548455385042,-1.002136,-0.311340,0.121704,1.158537,0.060976,-4.268293
1548455385050,-1.004395,-0.316101,0.118408,-2.439024,-0.426829,-4.756098
1548455385057,-1.007996,-0.327637,0.138489,-5.365854,-0.975610,-4.817073
1548455385079,-1.017944,-0.336304,0.158508,-7.439024,-1.646341,-4.146341
1548455385080,-1.020081,-0.314209,0.143188,-9.329268,-2.195122,-3.048780
1548455385087,-1.009705,-0.284119,0.136780,-11.158537,-1.341463,-2.378049
1548455385102,-1.006897,-0.280518,0.132935,-11.890244,-0.243902,-2.560976
1548455385110,-0.996155,-0.281067,0.116516,-11.890244,-0.609756,-2.682927
1548455385117,-0.981079,-0.271362,0.090088,-10.914635,0.670732,-1.890244
1548455385140,-0.973328,-0.255737,0.066284,-10.975610,1.280488,-0.792683
1548455385140,-0.964844,-0.249390,0.065674,-12.804878,0.365854,-0.670732
1548455385147,-0.960388,-0.243835,0.069580,-14.756098,-0.975610,-1.524390
1548455385162,-0.962158,-0.231262,0.091858,-15.304878,-3.231707,-1.585366
1548455385169,-0.960999,-0.218872,0.099854,-13.963415,-4.939024,-0.609756
1548455385177,-0.959900,-0.215393,0.124451,-11.707317,-6.097561,-0.182927
1548455385192,-0.971069,-0.226257,0.169556,-8.841464,-7.256098,-0.914634
1548455385200,-0.978333,-0.235474,0.200073,-6.158537,-8.719512,-1.402439
1548455385207,-0.981873,-0.238464,0.198303,-3.536585,-8.475610,-1.524390
1548455385223,-0.982849,-0.242798,0.198730,-1.402439,-7.073171,-2.195122
