timestamp, accel_x, accel_y, accel_z, gyro_x, gyro_y, gyro_z
1548456532723,-1.024536,0.113708,0.071350,0.121951,-0.853659,-0.609756
1548456532730,-1.031677,0.115723,0.069519,0.121951,-0.670732,-0.426829
1548456532737,-1.024841,0.114868,0.071777,-0.060976,-0.426829,-0.182927
1548456532752,-1.023438,0.114807,0.074768,-0.182927,-0.182927,-0.060976
1548456532760,-1.020813,0.115112,0.073914,-0.243902,-0.121951,0.060976
1548456532768,-1.023010,0.113098,0.075745,-0.060976,0.000000,0.182927
1548456532782,-1.026062,0.112244,0.077698,0.121951,0.121951,0.365854
1548456532790,-1.028259,0.111084,0.077087,0.243902,0.304878,0.487805
1548456532797,-1.029114,0.111938,0.077942,0.426829,0.487805,0.609756
1548456532812,-1.029968,0.108765,0.080994,0.304878,0.609756,0.792683
1548456532820,-1.037354,0.107178,0.078674,0.304878,0.792683,0.975610
1548456532827,-1.039673,0.108276,0.080750,0.243902,0.975610,1.097561
1548456532850,-1.042786,0.107910,0.081970,0.243902,1.158537,1.097561
1548456532850,-1.042236,0.108704,0.083679,0.304878,1.280488,1.036585
1548456532857,-1.042542,0.108704,0.084961,0.487805,1.402439,1.036585
1548456532872,-1.039795,0.111206,0.085510,0.609756,1.524390,0.914634
1548456532880,-1.035645,0.109924,0.087830,1.036585,1.707317,0.914634
1548456532888,-1.034119,0.109131,0.090454,1.402439,1.890244,0.853659
1548456532903,-1.029297,0.111511,0.089539,1.768293,2.012195,0.975610
1548456532917,-1.028076,0.111267,0.095093,1.951220,2.012195,0.914634
1548456532918,-1.023010,0.110535,0.093262,2.073171,1.890244,0.853659
1548456532933,-1.022827,0.107178,0.095886,2.134146,1.646341,0.914634
1548456532940,-1.020325,0.107422,0.095337,2.134146,1.402439,0.975610
1548456532955,-1.023193,0.107239,0.096069,1.890244,1.036585,1.158537
1548456532963,-1.023865,0.107910,0.096069,1.463415,0.548781,1.158537
1548456532970,-1.024048,0.106262,0.096497,0.792683,0.060976,1.219512
1548456532977,-1.025635,0.106445,0.096008,0.365854,-0.365854,1.280488
1548456532993,-1.030273,0.107849,0.095276,-0.060976,-0.853659,1.219512
1548456533000,-1.030762,0.110291,0.095581,-0.487805,-1.219512,1.158537
1548456533007,-1.030090,0.109131,0.093689,-0.609756,-1.524390,0.975610
1548456533022,-1.031250,0.110046,0.091125,-0.609756,-1.707317,0.853659
1548456533031,-1.031189,0.109680,0.089905,-0.365854,-2.012195,0.731707
1548456533037,-1.029419,0.110535,0.088440,-0.060976,-2.134146,0.548781
1548456533052,-1.027039,0.110168,0.089539,0.243902,-2.317073,0.365854
1548456533060,-1.025757,0.108521,0.089355,0.487805,-2.317073,0.243902
1548456533067,-1.024597,0.108643,0.088318,0.487805,-2.439024,0.060976
1548456533082,-1.024170,0.108826,0.087036,0.548781,-2.378049,-0.060976
1548456533090,-1.022705,0.110779,0.086243,0.365854,-2.256098,-0.060976
1548456533098,-1.022705,0.112915,0.083679,0.121951,-2.195122,0.060976
1548456533112,-1.023987,0.113464,0.083801,-0.060976,-2.195122,0.060976
1548456533120,-1.023438,0.112732,0.083191,-0.121951,-2.134146,0.060976
1548456533128,-1.025085,0.114014,0.084473,-0.243902,-2.195122,0.121951
1548456533142,-1.026855,0.113708,0.083923,-0.243902,-2.134146,0.121951
1548456533150,-1.027405,0.113220,0.082458,-0.182927,-2.134146,0.243902
1548456533157,-1.027527,0.114136,0.082458,-0.121951,-2.134146,0.121951
1548456533172,-1.026978,0.118530,0.081787,-0.060976,-2.134146,0.182927
1548456533180,-1.030151,0.117676,0.082703,0.121951,-2.195122,0.243902
1548456533187,-1.029480,0.116028,0.080566,0.121951,-2.012195,0.182927
1548456533202,-1.027710,0.115723,0.079651,0.060976,-1.951220,0.243902
1548456533210,-1.028320,0.118225,0.078247,0.243902,-2.012195,0.243902
1548456533217,-1.028198,0.115784,0.078674,0.365854,-2.073171,0.304878
1548456533232,-1.027283,0.114624,0.078186,0.365854,-2.012195,0.182927
1548456533240,-1.029907,0.115112,0.080200,0.487805,-2.073171,0.121951
1548456533247,-1.026855,0.116577,0.079590,0.548781,-1.890244,0.121951
1548456533262,-1.026489,0.116638,0.078613,0.670732,-1.646341,0.060976
1548456533270,-1.027527,0.116089,0.078613,0.609756,-1.585366,0.182927
1548456533277,-1.029602,0.117310,0.080139,0.670732,-1.463415,0.121951
1548456533292,-1.026672,0.115601,0.078369,0.548781,-1.280488,0.121951
1548456533300,-1.027161,0.114746,0.082581,0.548781,-1.097561,0.121951
1548456533307,-1.026184,0.115234,0.082397,0.426829,-0.914634,0.121951
1548456533322,-1.026184,0.113831,0.081543,0.304878,-0.792683,0.182927
1548456533330,-1.026550,0.113525,0.083374,0.121951,-0.670732,0.182927
1548456533338,-1.027283,0.114929,0.083069,0.000000,-0.670732,0.365854
1548456533360,-1.026489,0.116333,0.084961,0.000000,-0.609756,0.487805
1548456533361,-1.027649,0.116394,0.086609,-0.121951,-0.548781,0.487805
1548456533375,-1.027893,0.115540,0.087524,-0.121951,-0.548781,0.426829
1548456533383,-1.028381,0.116699,0.085632,-0.060976,-0.609756,0.426829
1548456533390,-1.028992,0.116943,0.087524,0.060976,-0.426829,0.487805
1548456533397,-1.026672,0.116455,0.091492,0.182927,-0.487805,0.548781
1548456533412,-1.026428,0.114319,0.088135,0.365854,-0.548781,0.487805
1548456533420,-1.023682,0.113403,0.089539,0.548781,-0.487805,0.365854
1548456533427,-1.025635,0.112671,0.088440,0.609756,-0.548781,0.365854
1548456533442,-1.026917,0.114014,0.090515,0.609756,-0.609756,0.365854
1548456533450,-1.025696,0.112793,0.089539,0.609756,-0.609756,0.304878
1548456533458,-1.024780,0.112610,0.088684,0.426829,-0.548781,0.304878
1548456533472,-1.025696,0.111084,0.090149,0.304878,-0.487805,0.304878
1548456533480,-1.026489,0.109680,0.091736,0.426829,-0.426829,0.304878
1548456533487,-1.028015,0.111023,0.089722,0.365854,-0.426829,0.304878
1548456533503,-1.027954,0.111511,0.091675,0.243902,-0.426829,0.304878
1548456533510,-1.028625,0.110352,0.089111,0.182927,-0.426829,0.304878
1548456533517,-1.026245,0.112000,0.088379,0.182927,-0.365854,0.304878
1548456533533,-1.027344,0.111328,0.090393,0.060976,-0.243902,0.365854
1548456533540,-1.027710,0.112305,0.091064,-0.060976,-0.182927,0.365854
1548456533547,-1.026672,0.110046,0.089844,0.060976,-0.243902,0.365854
1548456533562,-1.027283,0.108398,0.090149,0.060976,-0.243902,0.365854
1548456533570,-1.026978,0.109619,0.091736,0.000000,-0.182927,0.365854
1548456533578,-1.025940,0.111023,0.092224,0.121951,-0.365854,0.426829
1548456533592,-1.028625,0.112366,0.091858,0.182927,-0.304878,0.365854
1548456533607,-1.028503,0.111206,0.091675,0.304878,-0.304878,0.304878
1548456533608,-1.027710,0.111694,0.092590,0.548781,-0.426829,0.304878
1548456533623,-1.028748,0.110901,0.090088,0.731707,-0.426829,0.243902
1548456533630,-1.025635,0.110962,0.089478,0.853659,-0.426829,0.182927
1548456533637,-1.025818,0.111145,0.090271,0.914634,-0.487805,0.182927
1548456533652,-1.025024,0.111877,0.091553,0.792683,-0.487805,0.060976
1548456533660,-1.026001,0.110718,0.092651,0.853659,-0.548781,0.060976
1548456533667,-1.028259,0.112366,0.089905,0.792683,-0.670732,0.060976
1548456533682,-1.027954,0.113770,0.091370,0.548781,-0.731707,0.060976
1548456533690,-1.026917,0.112610,0.089539,0.487805,-0.792683,0.121951
1548456533697,-1.028259,0.113831,0.087585,0.365854,-0.914634,0.121951
1548456533712,-1.028687,0.113464,0.088684,0.304878,-0.853659,0.182927
1548456533720,-1.029602,0.113708,0.089783,0.182927,-0.914634,0.182927
1548456533727,-1.029785,0.114014,0.085083,0.060976,-0.914634,0.243902
1548456533750,-1.031677,0.114441,0.087708,0.121951,-0.975610,0.304878
1548456533750,-1.030640,0.116333,0.086426,0.243902,-0.914634,0.365854
1548456533758,-1.028503,0.114319,0.085815,0.426829,-0.914634,0.243902
1548456533773,-1.030823,0.113770,0.085388,0.365854,-0.914634,0.243902
1548456533780,-1.029907,0.112793,0.085022,0.426829,-0.853659,0.304878
1548456533788,-1.028076,0.114380,0.085449,0.426829,-0.914634,0.304878
1548456533803,-1.027466,0.116638,0.083801,0.426829,-0.914634,0.365854
1548456533810,-1.024780,0.114746,0.084229,0.487805,-0.914634,0.304878
1548456533818,-1.024048,0.116211,0.085083,0.548781,-0.914634,0.365854
1548456533832,-1.026672,0.116943,0.085571,0.487805,-0.975610,0.426829
1548456533840,-1.026855,0.117554,0.086243,0.609756,-0.975610,0.487805
1548456533847,-1.027344,0.119812,0.086914,0.853659,-0.853659,0.426829
1548456533862,-1.024658,0.119812,0.085144,0.914634,-0.914634,0.609756
1548456533870,-1.026367,0.118835,0.085510,1.097561,-0.975610,0.609756
1548456533877,-1.029236,0.120911,0.088867,1.097561,-0.975610,0.609756
1548456533892,-1.028625,0.124207,0.091858,1.280488,-1.036585,0.792683
1548456533900,-1.027283,0.125427,0.092346,1.646341,-1.036585,0.975610
1548456533907,-1.026917,0.123474,0.092773,1.707317,-1.097561,1.097561
1548456533922,-1.027466,0.122742,0.092834,1.585366,-1.097561,1.341463
1548456533930,-1.026733,0.124695,0.096619,1.402439,-1.219512,1.524390
1548456533938,-1.024963,0.130493,0.100586,1.402439,-1.341463,1.585366
1548456533952,-1.027222,0.136658,0.100891,1.524390,-1.402439,1.951220
1548456533960,-1.025330,0.142883,0.103455,1.829268,-1.768293,2.256098
1548456533967,-1.023926,0.142395,0.107300,2.256098,-2.134146,2.621951
1548456533982,-1.020142,0.144775,0.111877,2.743902,-2.500000,3.048780
1548456533990,-1.014343,0.148804,0.116943,3.170732,-2.865854,3.414634
1548456533997,-1.012390,0.153259,0.120911,3.292683,-3.353659,3.902439
1548456534012,-1.013611,0.159241,0.122498,3.719512,-4.146341,4.634146
1548456534020,-1.018616,0.160645,0.124207,4.085366,-4.695122,5.182927
1548456534027,-1.019165,0.161804,0.123657,3.719512,-5.000000,5.853659
1548456534042,-1.019714,0.165222,0.126892,3.292683,-5.548780,6.585366
1548456534050,-1.019348,0.171570,0.131653,3.048780,-6.097561,7.439024
1548456534057,-1.019104,0.178467,0.132202,2.865854,-6.829268,8.231708
1548456534072,-1.017578,0.185364,0.132812,2.682927,-7.439024,8.963415
1548456534080,-1.018066,0.190674,0.135071,2.743902,-7.987805,9.939025
1548456534087,-1.016052,0.194214,0.138794,2.926829,-8.658537,11.036586
1548456534102,-1.016357,0.201721,0.143250,2.987805,-9.329268,12.012196
1548456534110,-1.015198,0.206848,0.144775,3.353659,-10.000000,13.109756
1548456534117,-1.012268,0.210449,0.146423,3.597561,-10.792684,14.268293
1548456534132,-1.012451,0.214600,0.149475,3.841464,-11.402439,15.487805
1548456534140,-1.009216,0.215820,0.154663,4.085366,-12.012196,16.768293
1548456534147,-1.009827,0.224731,0.156555,3.902439,-12.743903,18.048780
1548456534162,-1.010010,0.234741,0.159973,3.597561,-13.475610,19.512196
1548456534170,-1.009216,0.243042,0.161804,3.231707,-14.207317,20.853659
1548456534177,-1.007141,0.250366,0.162476,2.987805,-14.939025,22.317074
1548456534192,-1.007446,0.258118,0.165894,2.621951,-15.548780,24.024391
1548456534200,-1.004089,0.270874,0.174316,2.682927,-16.280489,25.792683
1548456534207,-1.006409,0.286133,0.178467,3.109756,-17.195122,27.560976
1548456534222,-1.008301,0.299927,0.184387,3.963415,-18.292683,29.268293
1548456534230,-1.010681,0.311218,0.191650,5.000000,-19.390244,31.097561
1548456534237,-1.006287,0.319824,0.196777,5.853659,-20.548780,33.048782
1548456534252,-1.002380,0.326294,0.200134,6.585366,-21.829269,35.060978
1548456534260,-0.999146,0.331482,0.206543,6.890244,-23.048780,36.951221
1548456534267,-0.994629,0.341614,0.216736,6.707317,-24.268293,38.963417
1548456534282,-0.994751,0.353943,0.223999,6.707317,-25.487806,41.524391
1548456534290,-0.996460,0.360596,0.228760,6.768293,-26.829269,44.024391
1548456534297,-0.992920,0.366516,0.238037,6.890244,-27.987806,46.402439
1548456534312,-0.990845,0.383240,0.250793,6.524390,-29.329269,48.597561
1548456534320,-0.994934,0.399536,0.253662,6.097561,-31.036587,50.609756
1548456534327,-0.997864,0.402527,0.255371,5.914634,-32.926830,52.743904
1548456534342,-0.993652,0.402954,0.255920,5.000000,-34.512196,54.878052
1548456534350,-0.986084,0.411377,0.266296,3.780488,-35.670734,57.012196
1548456534358,-0.983643,0.423828,0.274292,2.743902,-36.951221,59.390244
1548456534373,-0.985840,0.434265,0.278381,2.256098,-38.658539,61.829269
1548456534380,-0.985962,0.442688,0.283691,2.073171,-40.426830,64.207321
1548456534387,-0.992126,0.435669,0.288025,1.890244,-41.890244,65.853661
1548456534402,-0.994263,0.438293,0.291748,1.951220,-43.170734,67.256096
1548456534410,-0.994385,0.436646,0.297058,1.768293,-43.902439,69.207321
1548456534418,-0.990784,0.439026,0.298218,1.158537,-44.390244,71.036591
1548456534432,-0.989075,0.439575,0.300110,0.792683,-44.939026,72.621956
1548456534440,-0.989258,0.436890,0.304199,0.182927,-45.670734,73.963417
1548456534447,-0.988220,0.438232,0.305969,-0.426829,-46.524391,75.000000
1548456534462,-0.983459,0.447876,0.310913,-1.036585,-47.317074,75.914635
1548456534470,-0.977112,0.459595,0.312866,-1.585366,-48.048782,76.890244
1548456534477,-0.978394,0.436279,0.306335,-1.829268,-48.658539,77.926834
1548456534492,-0.974854,0.435730,0.309387,-1.829268,-48.719513,78.414635
1548456534500,-0.961243,0.476624,0.319153,-0.914634,-47.134148,77.804878
1548456534507,-0.953613,0.477356,0.318054,-4.268293,-46.829269,78.231712
1548456534522,-0.951111,0.488953,0.323486,-6.280488,-46.768295,78.780487
1548456534530,-0.944336,0.500427,0.324097,-4.390244,-47.439026,79.146347
1548456534537,-0.933777,0.498108,0.321655,-2.926829,-47.256100,78.902443
1548456534552,-0.925171,0.499390,0.324707,-1.829268,-47.012196,78.292686
1548456534560,-0.915161,0.512817,0.334656,0.121951,-46.402439,77.926834
1548456534567,-0.902100,0.530273,0.341736,2.195122,-45.853661,77.621956
1548456534582,-0.889465,0.547607,0.346375,4.451220,-45.487804,76.890244
1548456534590,-0.872803,0.556702,0.353088,6.768293,-45.548782,76.341469
1548456534597,-0.857849,0.575256,0.361938,8.780488,-45.609756,75.731712
1548456534612,-0.844666,0.604980,0.371521,11.097561,-45.731709,75.487808
1548456534620,-0.829041,0.641052,0.383545,13.414635,-45.670734,75.853661
1548456534627,-0.815735,0.666138,0.390320,15.548780,-45.426830,76.341469
1548456534642,-0.807922,0.662476,0.386780,17.378050,-45.182926,76.768295
1548456534650,-0.808411,0.635803,0.386841,18.658537,-45.182926,77.439026
1548456534657,-0.812805,0.618408,0.395935,19.573172,-44.939026,77.682930
1548456534672,-0.810120,0.613098,0.406006,20.853659,-44.207317,77.743904
1548456534680,-0.805481,0.610474,0.413574,21.280489,-42.804878,77.500000
1548456534687,-0.791626,0.625793,0.420715,20.609756,-41.646343,77.256096
1548456534702,-0.767761,0.677246,0.429260,19.939024,-40.792683,76.707321
1548456534710,-0.745728,0.716797,0.424683,19.939024,-40.182926,76.341469
1548456534717,-0.726929,0.718628,0.417480,18.475611,-39.756100,76.768295
1548456534732,-0.720032,0.698181,0.429993,17.743902,-40.914635,77.256096
1548456534740,-0.731018,0.657776,0.421631,17.012196,-41.524391,77.560974
1548456534747,-0.733521,0.625488,0.429138,15.975610,-39.756100,77.195122
1548456534762,-0.718933,0.614502,0.434082,15.792684,-38.841465,75.914635
1548456534770,-0.692993,0.634094,0.434021,14.451220,-37.317074,74.451218
1548456534777,-0.657532,0.662415,0.425049,12.439025,-35.975609,72.926834
1548456534792,-0.636475,0.645874,0.407715,10.304878,-34.878048,71.707321
1548456534800,-0.630310,0.614746,0.399658,7.865854,-35.000000,70.426834
1548456534807,-0.627441,0.635864,0.405518,7.073171,-35.792683,68.414635
1548456534822,-0.606995,0.686768,0.410400,7.743903,-35.243904,66.402443
1548456534830,-0.587036,0.704224,0.405701,7.743903,-33.597561,65.121956
1548456534837,-0.576660,0.685425,0.395752,7.134147,-32.682926,63.597561
1548456534852,-0.570923,0.658203,0.382385,7.621952,-32.926830,61.524391
1548456534860,-0.560425,0.639465,0.377380,8.902439,-32.804878,59.329269
1548456534867,-0.537292,0.659241,0.385071,10.060976,-31.585367,57.378052
1548456534882,-0.503723,0.710205,0.392639,11.402439,-29.451220,55.487804
1548456534890,-0.483948,0.714661,0.381897,13.231708,-27.804878,54.085365
1548456534897,-0.492126,0.661194,0.367615,14.390244,-28.109756,52.682926
1548456534912,-0.507996,0.624390,0.364197,15.609756,-29.878050,50.609756
1548456534920,-0.499023,0.642822,0.373535,17.256098,-30.000000,48.231709
1548456534927,-0.468872,0.691406,0.381775,17.500000,-27.439026,46.036587
1548456534942,-0.442322,0.737183,0.382141,15.914635,-24.512196,44.268295
1548456534950,-0.423462,0.764526,0.383972,14.695123,-23.414635,42.682926
1548456534957,-0.413452,0.779968,0.378601,15.487805,-23.902439,41.097561
1548456534972,-0.416748,0.754761,0.367249,17.317074,-23.963415,40.304878
1548456534980,-0.427368,0.717346,0.360413,18.109756,-23.414635,40.121952
1548456534987,-0.427734,0.704651,0.371521,18.658537,-22.012196,39.207317
1548456535002,-0.411072,0.728210,0.384521,18.902439,-20.121952,37.073170
1548456535010,-0.393677,0.756653,0.394348,17.987804,-18.414635,34.817074
1548456535018,-0.385559,0.769714,0.396423,16.158537,-17.865854,32.987804
1548456535033,-0.366211,0.804932,0.396667,15.304878,-17.865854,31.097561
1548456535040,-0.344421,0.824646,0.388611,15.914635,-17.134148,29.878050
1548456535048,-0.342407,0.789368,0.379211,16.280489,-16.097561,29.695122
1548456535063,-0.352905,0.746277,0.374573,15.792684,-15.914635,29.451220
1548456535070,-0.357178,0.734985,0.373108,15.426829,-15.853659,28.353659
1548456535078,-0.352173,0.750854,0.372314,13.963415,-15.121951,26.829269
1548456535093,-0.346130,0.758911,0.370667,11.280488,-13.841464,25.365854
1548456535100,-0.343811,0.747803,0.365845,8.353659,-12.987805,23.902439
1548456535108,-0.340454,0.743042,0.365601,6.036585,-12.621951,22.195122
1548456535122,-0.334412,0.744141,0.361938,4.634146,-11.524390,20.182928
1548456535130,-0.315613,0.751831,0.368469,2.804878,-10.000000,18.353659
1548456535138,-0.299072,0.781799,0.384216,1.829268,-8.475610,16.524391
1548456535152,-0.288818,0.811035,0.384094,2.073171,-8.109756,15.121951
1548456535160,-0.289124,0.804138,0.358643,2.012195,-8.475610,14.390244
1548456535167,-0.304382,0.744934,0.337036,1.219512,-8.719512,13.963415
1548456535182,-0.330078,0.660217,0.333557,1.036585,-8.658537,13.170732
1548456535190,-0.352661,0.612671,0.339417,1.219512,-7.987805,11.158537
1548456535197,-0.356628,0.636169,0.348633,0.426829,-6.829268,7.804878
1548456535213,-0.337219,0.699402,0.350098,-1.768293,-4.756098,3.841464
1548456535220,-0.321838,0.730103,0.347473,-5.365854,-2.439024,0.304878
1548456535227,-0.317627,0.720398,0.339111,-7.865854,-0.914634,-3.048780
1548456535242,-0.324524,0.672241,0.321716,-8.048780,0.060976,-6.341464
1548456535250,-0.331787,0.642151,0.315308,-8.109756,1.463415,-9.390244
1548456535257,-0.324097,0.672668,0.323547,-8.048780,3.536585,-12.500000
1548456535272,-0.306458,0.718384,0.329773,-8.292683,5.609756,-15.243903
1548456535280,-0.298767,0.734680,0.327454,-9.390244,6.707317,-17.256098
1548456535287,-0.308228,0.717773,0.325073,-9.024390,6.646342,-18.902439
1548456535302,-0.323242,0.688965,0.327698,-6.402439,6.402439,-20.304878
1548456535310,-0.341370,0.668213,0.338806,-2.195122,6.890244,-21.890244
1548456535317,-0.354675,0.664001,0.352295,1.280488,7.682927,-23.841463
1548456535333,-0.365112,0.674316,0.357910,3.475610,8.109756,-26.585367
1548456535340,-0.377319,0.689819,0.356567,3.963415,8.414635,-29.573172
1548456535347,-0.382385,0.710632,0.352112,3.109756,9.146341,-32.439026
1548456535362,-0.388672,0.727112,0.349609,2.073171,10.548780,-35.365856
1548456535370,-0.399841,0.726135,0.343872,1.402439,12.317074,-37.987804
1548456535377,-0.409485,0.729187,0.352234,0.853659,14.024390,-40.670734
1548456535392,-0.410583,0.755432,0.360474,0.609756,15.731708,-43.353661
1548456535400,-0.403503,0.792786,0.366089,0.548781,17.621952,-45.365856
1548456535407,-0.400146,0.790039,0.363953,0.121951,19.085367,-46.646343
1548456535423,-0.419434,0.728699,0.360046,-0.426829,19.817074,-47.378052
1548456535430,-0.451843,0.664185,0.365601,-0.426829,19.878050,-48.353661
1548456535437,-0.482727,0.660278,0.375793,0.000000,19.756098,-50.182926
1548456535452,-0.493408,0.726929,0.389099,-1.097561,20.304878,-52.621952
1548456535460,-0.486145,0.810669,0.399109,-3.658537,21.036587,-54.878052
1548456535467,-0.478271,0.836243,0.392639,-6.829268,21.646341,-56.219513
1548456535482,-0.480957,0.791931,0.384155,-9.451220,22.378050,-56.402439
1548456535490,-0.492859,0.743103,0.375488,-9.634147,23.048780,-56.463417
1548456535497,-0.512817,0.726257,0.372803,-7.560976,23.780489,-56.951221
1548456535512,-0.531738,0.731384,0.378601,-5.548780,24.512196,-57.682930
1548456535520,-0.550354,0.730225,0.380981,-4.634146,24.695122,-58.780491
1548456535527,-0.578674,0.689270,0.374573,-5.365854,24.268293,-60.243904
1548456535542,-0.610474,0.626343,0.365601,-7.743903,23.841463,-62.012196
1548456535550,-0.639771,0.585022,0.362000,-10.000000,24.146341,-64.268295
1548456535557,-0.651917,0.600220,0.363831,-12.743903,25.487806,-67.012199
1548456535573,-0.648621,0.643982,0.356750,-15.853659,27.865854,-69.878052
1548456535580,-0.641174,0.667603,0.345703,-18.902439,30.548780,-71.829269
1548456535587,-0.635010,0.680908,0.337402,-21.585367,32.621952,-72.804878
1548456535602,-0.627380,0.708557,0.338318,-22.134148,34.085365,-73.475609
1548456535610,-0.624634,0.740784,0.343506,-19.939024,35.365856,-73.780487
1548456535617,-0.632874,0.745605,0.340576,-16.890244,36.402439,-73.170731
1548456535640,-0.658325,0.723511,0.335205,-14.512196,36.829269,-72.134148
1548456535640,-0.695557,0.704163,0.340088,-11.951220,36.585365,-72.012199
1548456535647,-0.733093,0.709900,0.352112,-8.475610,36.097561,-73.048782
1548456535663,-0.763550,0.729187,0.364319,-5.121951,36.097561,-74.634148
1548456535670,-0.783936,0.736572,0.370483,-1.707317,36.768295,-75.609756
1548456535678,-0.800903,0.714050,0.375793,2.256098,38.048782,-75.792686
1548456535693,-0.804932,0.696472,0.387512,6.951220,39.634148,-75.792686
1548456535700,-0.804138,0.703491,0.395508,12.317074,40.548782,-76.280487
1548456535708,-0.797180,0.716431,0.396179,17.134148,40.243904,-76.890244
1548456535722,-0.804688,0.712219,0.386597,19.817074,38.963417,-76.585365
1548456535730,-0.823547,0.692627,0.381470,20.000000,36.951221,-75.914635
1548456535737,-0.836304,0.693787,0.385742,18.170732,35.365856,-76.219513
1548456535752,-0.837891,0.711670,0.381592,15.670732,35.243904,-76.402443
1548456535760,-0.828613,0.713318,0.372498,12.256098,36.402439,-75.365852
1548456535767,-0.822449,0.701843,0.364929,8.109756,37.378048,-73.475609
1548456535782,-0.824097,0.681091,0.359009,5.121951,37.865856,-71.341469
1548456535790,-0.830078,0.651611,0.356201,2.621951,37.682926,-69.268295
1548456535797,-0.834900,0.631470,0.357788,1.158537,37.195122,-67.926834
1548456535812,-0.841553,0.622253,0.361328,0.304878,36.219513,-66.402443
1548456535820,-0.848999,0.620300,0.362854,-0.121951,34.695122,-64.634148
1548456535827,-0.858582,0.610535,0.357117,-0.365854,32.926830,-62.804878
1548456535850,-0.871582,0.585999,0.346069,-1.585366,31.341465,-60.853661
1548456535851,-0.885559,0.563354,0.335999,-3.841464,30.182928,-59.451221
1548456535857,-0.899719,0.558105,0.329712,-6.768293,29.390245,-58.536587
1548456535873,-0.901550,0.580688,0.329285,-9.756098,29.512196,-57.804878
1548456535880,-0.895752,0.601257,0.324524,-12.560976,30.121952,-56.402439
1548456535887,-0.891479,0.606995,0.314026,-14.268293,30.182928,-54.390244
1548456535902,-0.887085,0.588745,0.302612,-13.170732,29.817074,-52.073174
1548456535910,-0.880432,0.564026,0.293396,-10.792684,29.207317,-50.487804
1548456535918,-0.878296,0.546692,0.294922,-8.719512,28.475611,-49.573174
1548456535932,-0.880127,0.537537,0.295898,-6.768293,27.378050,-48.475613
1548456535940,-0.886414,0.528259,0.298157,-3.841464,25.792683,-47.073174
1548456535947,-0.899902,0.513123,0.296814,-0.914634,24.146341,-45.731709
1548456535963,-0.917175,0.500793,0.291260,1.219512,22.073172,-44.634148
1548456535970,-0.921387,0.507080,0.285278,2.865854,21.097561,-44.207317
1548456535977,-0.922180,0.500183,0.275024,3.475610,20.487804,-43.414635
1548456535992,-0.932129,0.484619,0.267822,2.682927,19.207317,-41.890244
1548456536000,-0.933655,0.478271,0.261230,2.621951,18.292683,-41.036587
1548456536008,-0.929993,0.475952,0.254822,1.707317,17.987804,-40.304878
1548456536022,-0.927612,0.467529,0.249329,0.426829,17.926830,-39.085365
1548456536030,-0.934265,0.451233,0.245361,-0.365854,17.195122,-37.317074
1548456536037,-0.936707,0.443542,0.242188,-0.060976,16.829269,-36.280487
1548456536052,-0.938477,0.438110,0.240906,0.060976,16.646341,-35.609756
1548456536060,-0.943909,0.431580,0.236755,0.000000,16.219513,-34.939026
1548456536067,-0.942200,0.422791,0.233032,0.365854,15.548780,-33.841465
1548456536082,-0.947571,0.404358,0.225220,0.670732,15.000000,-32.743904
1548456536090,-0.955750,0.381897,0.219482,0.365854,14.207317,-31.646341
1548456536098,-0.956177,0.381592,0.218506,0.000000,14.146341,-31.341465
1548456536112,-0.961243,0.381592,0.213074,-1.280488,14.146341,-30.853659
1548456536120,-0.963135,0.380554,0.207153,-2.865854,14.024390,-29.939026
1548456536135,-0.963623,0.372375,0.201843,-4.207317,13.719513,-28.841465
1548456536142,-0.965881,0.367310,0.198730,-5.304878,13.536586,-28.170732
1548456536150,-0.965088,0.362854,0.192017,-6.280488,13.658537,-27.500000
1548456536157,-0.964966,0.357971,0.191345,-6.829268,13.780488,-26.829269
1548456536172,-0.968811,0.347656,0.189453,-6.890244,13.719513,-26.280489
1548456536180,-0.971008,0.336426,0.186523,-6.707317,13.536586,-25.975611
1548456536187,-0.972046,0.327637,0.182251,-6.341464,13.292684,-25.609756
1548456536203,-0.975708,0.322876,0.175903,-6.036585,13.353659,-25.243902
1548456536210,-0.977478,0.320740,0.175415,-5.853659,13.475610,-25.182928
1548456536218,-0.981262,0.320862,0.172974,-5.365854,13.231708,-25.000000
1548456536232,-0.982666,0.312012,0.169250,-4.512195,13.109756,-24.756098
1548456536247,-0.983459,0.305420,0.166016,-3.719512,13.048780,-24.695122
1548456536248,-0.984192,0.299683,0.160461,-2.743902,13.048780,-24.634148
1548456536263,-0.984558,0.291260,0.159424,-2.256098,13.048780,-24.695122
1548456536270,-0.990662,0.282593,0.159729,-2.012195,12.987805,-24.939026
1548456536277,-0.992737,0.275269,0.154480,-1.829268,12.804878,-24.939026
1548456536293,-0.994324,0.267456,0.151978,-1.585366,12.926829,-24.939026
1548456536300,-0.996521,0.262085,0.151428,-1.463415,13.109756,-24.817074
1548456536308,-0.997681,0.255127,0.145264,-1.463415,13.231708,-24.878050
1548456536323,-0.999390,0.248047,0.141663,-1.524390,13.231708,-25.182928
1548456536330,-1.002319,0.240601,0.142090,-1.463415,13.109756,-25.548780
1548456536338,-1.004700,0.238037,0.136658,-1.402439,13.048780,-25.792683
1548456536353,-1.006104,0.232971,0.132751,-1.341463,13.048780,-26.097561
1548456536360,-1.010498,0.227783,0.131714,-1.524390,13.170732,-26.280489
1548456536368,-1.010803,0.226807,0.130066,-1.707317,13.109756,-26.463415
1548456536383,-1.011597,0.223633,0.128418,-1.768293,13.292684,-26.463415
1548456536390,-1.012695,0.217896,0.127014,-1.768293,13.536586,-26.585367
1548456536397,-1.014954,0.216370,0.124084,-1.768293,13.597561,-27.073172
1548456536412,-1.014465,0.214172,0.122864,-1.463415,13.536586,-27.256098
1548456536420,-1.015564,0.213501,0.119812,-1.097561,13.658537,-27.500000
1548456536428,-1.017212,0.213562,0.117920,-0.914634,13.719513,-27.560976
1548456536442,-1.018066,0.211548,0.117554,-0.487805,13.658537,-27.865854
1548456536450,-1.018372,0.210205,0.119690,-0.182927,13.597561,-28.170732
1548456536457,-1.020630,0.208191,0.117065,0.182927,13.658537,-28.231709
1548456536472,-1.021423,0.209412,0.113892,0.426829,13.658537,-28.048780
1548456536480,-1.021118,0.208130,0.113342,0.792683,13.536586,-28.048780
1548456536488,-1.021606,0.207764,0.113770,1.280488,13.475610,-27.926830
1548456536502,-1.022095,0.205566,0.114197,2.012195,13.109756,-27.804878
1548456536510,-1.023438,0.204895,0.117310,2.682927,12.743903,-27.682928
1548456536517,-1.023865,0.202637,0.115601,3.353659,12.256098,-27.500000
1548456536532,-1.026062,0.201965,0.113892,4.085366,11.768293,-27.073172
1548456536540,-1.024170,0.199585,0.115295,4.695122,11.585366,-26.585367
1548456536547,-1.022583,0.199158,0.114929,4.817073,11.280488,-26.097561
1548456536562,-1.022339,0.200317,0.115662,4.939024,11.036586,-25.365854
1548456536570,-1.022583,0.198303,0.113342,5.060976,10.548780,-24.512196
1548456536577,-1.018860,0.197571,0.114380,5.121951,9.939025,-23.658537
1548456536592,-1.020752,0.196472,0.115234,5.000000,9.390244,-22.865854
1548456536600,-1.019287,0.197510,0.115112,4.817073,8.963415,-21.890244
1548456536607,-1.020447,0.196899,0.114563,4.695122,8.536586,-20.731709
1548456536622,-1.020142,0.193848,0.112488,4.329268,7.987805,-19.695122
1548456536630,-1.017029,0.194153,0.112854,3.841464,7.378049,-18.536585
1548456536637,-1.016113,0.194702,0.113525,3.292683,6.890244,-17.439024
1548456536652,-1.015381,0.193604,0.113831,2.804878,6.341464,-16.158537
1548456536660,-1.015747,0.192444,0.114258,2.378049,5.853659,-14.695123
1548456536667,-1.016785,0.190674,0.113464,1.890244,5.243903,-13.353659
1548456536682,-1.019043,0.189636,0.111023,1.402439,4.634146,-12.012196
1548456536690,-1.023071,0.190735,0.108154,0.792683,4.268293,-10.731708
1548456536697,-1.024475,0.189331,0.109497,0.182927,3.841464,-9.451220
1548456536712,-1.024231,0.187378,0.108582,-0.182927,3.414634,-7.926829
1548456536720,-1.025146,0.187622,0.104980,-0.304878,2.865854,-6.463415
1548456536727,-1.026062,0.182983,0.104248,-0.121951,2.195122,-5.182927
1548456536742,-1.027161,0.180603,0.103943,0.182927,1.524390,-3.963415
1548456536750,-1.026184,0.172485,0.099976,0.426829,0.853659,-2.682927
1548456536757,-1.028015,0.167603,0.101746,0.487805,0.304878,-1.585366
1548456536772,-1.033569,0.160156,0.097412,0.487805,-0.487805,-0.609756
1548456536780,-1.044189,0.151855,0.093872,0.670732,-0.914634,0.304878
1548456536787,-1.050293,0.145813,0.091187,0.731707,-1.158537,1.097561
1548456536802,-1.048462,0.138794,0.087891,0.548781,-1.402439,1.524390
1548456536810,-1.038391,0.133911,0.088013,0.182927,-1.585366,2.256098
1548456536817,-1.024353,0.130615,0.085632,-0.182927,-1.951220,3.170732
1548456536832,-1.018311,0.122986,0.084167,-0.426829,-2.439024,3.780488
1548456536840,-1.018738,0.113892,0.080994,-0.670732,-2.804878,4.024390
1548456536847,-1.023254,0.107300,0.078186,-0.792683,-2.987805,4.024390
1548456536863,-1.025208,0.104492,0.071594,-0.670732,-2.926829,3.963415
1548456536870,-1.021057,0.097107,0.068604,-0.670732,-2.743902,4.024390
1548456536877,-1.013672,0.093750,0.066956,-0.792683,-2.500000,4.268293
1548456536892,-1.008545,0.093323,0.066895,-0.975610,-2.500000,4.451220
1548456536900,-1.006836,0.091797,0.065735,-1.097561,-2.500000,4.451220
1548456536907,-1.004761,0.093323,0.065796,-1.402439,-2.500000,4.329268
1548456536922,-1.005676,0.093872,0.067627,-1.646341,-2.500000,4.146341
1548456536930,-1.007141,0.093140,0.064636,-1.829268,-2.378049,3.719512
1548456536938,-1.005615,0.093994,0.062866,-2.134146,-2.134146,3.597561
1548456536952,-1.005188,0.096069,0.064514,-2.256098,-1.829268,3.353659
1548456536960,-1.009338,0.095825,0.063171,-2.439024,-1.463415,2.987805
1548456536968,-1.010315,0.095215,0.063049,-2.560976,-1.036585,2.682927
1548456536983,-1.016541,0.096863,0.062927,-2.500000,-0.670732,2.317073
1548456536990,-1.023560,0.095703,0.063904,-2.256098,-0.243902,1.890244
1548456536998,-1.025818,0.095581,0.066528,-1.768293,0.000000,1.463415
1548456537013,-1.028870,0.103088,0.067627,-1.036585,0.243902,0.975610
1548456537020,-1.031860,0.100708,0.064148,-0.243902,0.365854,0.670732
1548456537027,-1.034424,0.098450,0.064636,0.182927,0.792683,0.243902
1548456537042,-1.031494,0.103333,0.069336,0.182927,1.341463,-0.182927
1548456537050,-1.032532,0.107056,0.073669,0.487805,1.646341,-0.365854
1548456537057,-1.033813,0.108521,0.073242,1.036585,1.707317,-0.487805
1548456537072,-1.032166,0.110962,0.076172,1.402439,1.890244,-0.731707
1548456537080,-1.031494,0.114685,0.081177,1.463415,2.195122,-0.853659
1548456537087,-1.025085,0.116028,0.083252,1.585366,2.378049,-0.792683
1548456537102,-1.023560,0.120972,0.087280,1.707317,2.256098,-0.853659
1548456537110,-1.021240,0.122925,0.088806,1.463415,2.256098,-0.609756
1548456537118,-1.019836,0.126160,0.092712,0.914634,2.134146,-0.365854
1548456537132,-1.018005,0.129517,0.089294,0.426829,2.256098,0.060976
1548456537140,-1.017883,0.132324,0.093750,-0.243902,2.195122,0.487805
1548456537147,-1.018921,0.138916,0.096252,-1.036585,1.768293,0.853659
1548456537162,-1.020020,0.140564,0.095886,-1.707317,1.402439,1.280488
1548456537170,-1.019226,0.144409,0.098938,-2.439024,1.097561,1.768293
1548456537178,-1.019470,0.148621,0.098877,-2.682927,0.670732,2.317073
1548456537193,-1.017456,0.154724,0.099854,-3.170732,0.121951,2.804878
1548456537200,-1.019409,0.161316,0.099304,-3.536585,-0.670732,3.292683
1548456537207,-1.019714,0.164246,0.100769,-3.719512,-1.341463,3.780488
1548456537222,-1.017395,0.165405,0.101685,-3.719512,-2.134146,4.390244
1548456537230,-1.016785,0.167297,0.098694,-3.902439,-2.804878,5.000000
1548456537237,-1.018738,0.173096,0.097717,-3.902439,-3.414634,5.609756
1548456537252,-1.020142,0.177856,0.100403,-3.780488,-4.146341,6.158537
1548456537260,-1.020508,0.178833,0.095154,-3.658537,-4.817073,6.951220
1548456537268,-1.019775,0.178162,0.094971,-3.353659,-5.426829,7.743903
1548456537282,-1.019714,0.178162,0.095642,-2.926829,-5.853659,8.475610
1548456537290,-1.020874,0.178894,0.095825,-2.682927,-6.402439,9.146341
1548456537298,-1.019226,0.177002,0.094543,-2.317073,-6.829268,10.000000
1548456537312,-1.021301,0.172791,0.093811,-1.890244,-7.256098,10.792684
1548456537320,-1.022217,0.173340,0.092529,-1.829268,-7.621952,11.463415
1548456537327,-1.025330,0.172119,0.090698,-1.829268,-7.865854,12.134147
1548456537342,-1.028076,0.171448,0.090027,-2.073171,-7.987805,12.865854
1548456537350,-1.028198,0.172546,0.088257,-2.378049,-8.170732,13.475610
1548456537357,-1.028381,0.169250,0.087524,-2.682927,-8.170732,14.146341
1548456537372,-1.030029,0.168762,0.090393,-3.048780,-8.170732,14.695123
1548456537380,-1.031189,0.170044,0.091003,-3.231707,-8.170732,15.182927
1548456537387,-1.033630,0.171387,0.090942,-3.292683,-8.048780,15.731708
1548456537403,-1.032959,0.173706,0.093079,-3.353659,-7.865854,16.158537
1548456537410,-1.032349,0.173279,0.094543,-3.170732,-7.926829,16.524391
1548456537417,-1.028381,0.170593,0.094849,-2.804878,-7.743903,16.707317
1548456537432,-1.026733,0.168884,0.097778,-2.378049,-7.743903,16.951220
1548456537440,-1.024170,0.169861,0.100342,-2.134146,-7.804878,16.890244
1548456537447,-1.022888,0.172058,0.104126,-1.768293,-7.865854,17.073172
1548456537463,-1.024048,0.178528,0.104736,-1.524390,-7.926829,17.256098
1548456537470,-1.023499,0.181519,0.106567,-1.219512,-7.987805,17.317074
1548456537477,-1.019958,0.182861,0.106750,-0.792683,-8.048780,17.378050
1548456537492,-1.014343,0.181458,0.112000,-0.426829,-8.048780,17.378050
1548456537500,-1.012512,0.183472,0.111694,0.000000,-8.231708,17.256098
1548456537507,-1.011230,0.184998,0.113464,0.426829,-8.536586,17.256098
1548456537522,-1.009827,0.183594,0.116943,0.792683,-8.780488,17.256098
1548456537530,-1.009766,0.185669,0.120361,0.853659,-9.085366,17.195122
1548456537537,-1.011841,0.191650,0.118774,0.914634,-9.268292,17.195122
1548456537552,-1.012634,0.197144,0.120361,0.670732,-9.512196,17.195122
1548456537560,-1.015198,0.200256,0.116882,0.365854,-9.634147,17.195122
1548456537567,-1.015564,0.203308,0.118164,0.060976,-9.634147,17.256098
1548456537583,-1.015137,0.210083,0.120850,-0.060976,-9.756098,17.195122
1548456537590,-1.014526,0.213257,0.121338,0.060976,-9.939025,17.256098
1548456537598,-1.016113,0.216248,0.123718,0.304878,-10.121951,17.195122
1548456537613,-1.016846,0.218933,0.122314,0.426829,-10.304878,17.134148
1548456537620,-1.015991,0.223145,0.126465,0.487805,-10.426829,17.195122
1548456537628,-1.015259,0.227966,0.126465,0.670732,-10.487805,17.378050
1548456537643,-1.012146,0.232239,0.128479,0.670732,-10.670732,17.378050
1548456537650,-1.010254,0.233459,0.126648,0.853659,-10.731708,17.500000
1548456537658,-1.007324,0.230286,0.128784,0.853659,-10.670732,17.560976
1548456537673,-1.005859,0.231628,0.127502,0.731707,-10.670732,17.560976
1548456537680,-1.004578,0.235046,0.133484,0.670732,-10.609756,17.621952
1548456537687,-1.002380,0.235413,0.134399,0.487805,-10.548780,17.682928
1548456537703,-1.002441,0.237488,0.134033,0.243902,-10.487805,17.621952
1548456537710,-1.000061,0.244141,0.135315,-0.182927,-10.365854,17.560976
1548456537717,-0.997498,0.247742,0.134644,-0.487805,-10.182927,17.621952
1548456537732,-0.993347,0.251282,0.137207,-0.365854,-10.121951,17.560976
1548456537740,-0.991760,0.253784,0.138672,-0.182927,-10.060976,17.500000
1548456537747,-0.991394,0.256042,0.144043,0.304878,-10.000000,17.439024
1548456537762,-0.990234,0.257568,0.146851,1.036585,-9.878049,17.378050
1548456537770,-0.991272,0.261963,0.150208,1.524390,-10.000000,17.195122
1548456537777,-0.994507,0.270813,0.152039,1.890244,-10.121951,17.073172
1548456537792,-0.993591,0.272949,0.154602,2.256098,-10.304878,17.073172
1548456537800,-0.992065,0.276245,0.156921,2.439024,-10.365854,17.073172
1548456537807,-0.991516,0.278687,0.159424,2.560976,-10.426829,17.195122
1548456537822,-0.991516,0.285034,0.163696,2.682927,-10.609756,17.073172
1548456537830,-0.986938,0.291809,0.164429,2.560976,-10.670732,17.317074
1548456537837,-0.985901,0.300903,0.166809,2.500000,-10.853659,17.500000
1548456537852,-0.984253,0.307556,0.167786,2.439024,-11.036586,17.743902
1548456537860,-0.976624,0.312134,0.171997,2.378049,-11.158537,18.109756
1548456537867,-0.969788,0.316223,0.172546,2.500000,-11.280488,18.353659
1548456537882,-0.971436,0.321411,0.175964,2.987805,-11.585366,18.597561
1548456537890,-0.967529,0.326355,0.182617,3.475610,-11.890244,18.963415
1548456537897,-0.965332,0.330505,0.182312,3.658537,-12.134147,19.329269
1548456537912,-0.965149,0.338013,0.184082,3.902439,-12.439025,19.695122
1548456537920,-0.964050,0.340881,0.187317,4.024390,-12.743903,20.121952
1548456537927,-0.964294,0.344421,0.188049,3.780488,-13.109756,20.670732
1548456537942,-0.964172,0.351318,0.192871,3.536585,-13.231708,21.158537
1548456537950,-0.961548,0.357727,0.195679,3.048780,-13.353659,21.768293
1548456537957,-0.962830,0.361084,0.195740,2.865854,-13.597561,22.500000
1548456537972,-0.963684,0.365723,0.198059,2.743902,-13.719513,23.231709
1548456537980,-0.958740,0.368774,0.202209,2.317073,-13.902439,23.841463
1548456537987,-0.960327,0.367249,0.204529,2.134146,-14.146341,24.573172
1548456538002,-0.960999,0.367676,0.209778,2.134146,-14.451220,25.243902
1548456538010,-0.960449,0.369080,0.210876,1.768293,-14.878049,25.914635
1548456538017,-0.961792,0.373230,0.212952,1.341463,-14.939025,26.402439
1548456538032,-0.957947,0.374939,0.213989,0.853659,-15.060976,26.890245
1548456538040,-0.956970,0.375244,0.216919,0.365854,-15.121951,27.439026
1548456538047,-0.952454,0.377991,0.219238,-0.060976,-15.243903,27.865854
1548456538063,-0.949646,0.380798,0.218323,-0.609756,-15.304878,28.109756
1548456538070,-0.944763,0.380005,0.218750,-0.914634,-15.426829,28.597561
1548456538078,-0.941956,0.382690,0.219849,-1.158537,-15.426829,29.024391
1548456538092,-0.936523,0.386230,0.219238,-1.524390,-15.365854,29.329269
1548456538100,-0.931824,0.390503,0.222717,-1.707317,-15.365854,29.573172
1548456538107,-0.930969,0.395203,0.225708,-1.646341,-15.243903,29.695122
1548456538123,-0.927185,0.401306,0.227295,-1.463415,-15.365854,29.878050
1548456538130,-0.921204,0.407349,0.229248,-1.158537,-15.609756,30.000000
1548456538137,-0.918335,0.408875,0.236084,-0.426829,-15.792684,30.121952
1548456538152,-0.915344,0.414612,0.239502,0.000000,-15.975610,30.182928
1548456538160,-0.913269,0.422852,0.241760,0.487805,-16.280489,30.243902
1548456538167,-0.911926,0.432800,0.249146,0.853659,-16.646341,30.487806
1548456538182,-0.910278,0.444580,0.253601,1.402439,-17.073172,30.731709
1548456538190,-0.908264,0.457520,0.256653,1.951220,-17.560976,31.036587
1548456538197,-0.907166,0.465820,0.260376,2.804878,-17.926830,31.463415
1548456538213,-0.904907,0.474365,0.263000,3.902439,-18.231709,31.951220
1548456538220,-0.904968,0.480774,0.271057,4.878049,-18.780489,32.317074
1548456538228,-0.905273,0.491760,0.278015,5.731708,-19.268293,32.621952
1548456538243,-0.904663,0.497131,0.280823,6.402439,-19.817074,33.048782
1548456538250,-0.903870,0.501282,0.281555,7.012195,-20.426830,33.475609
1548456538258,-0.901306,0.501770,0.287170,7.317073,-20.914635,33.963417
1548456538273,-0.902527,0.507202,0.290100,7.195122,-21.280489,34.390244
1548456538280,-0.901672,0.514954,0.291199,6.768293,-21.646341,34.939026
1548456538287,-0.896851,0.521729,0.291077,6.158537,-21.768293,35.548782
1548456538302,-0.895813,0.520996,0.290161,5.731708,-22.073172,36.280487
1548456538310,-0.892456,0.525574,0.292480,5.121951,-22.439024,36.707317
1548456538317,-0.888306,0.530212,0.295166,4.634146,-22.500000,37.439026
1548456538332,-0.882385,0.533691,0.297668,4.024390,-22.439024,38.353661
1548456538340,-0.872559,0.541260,0.299316,3.536585,-22.378050,39.329269
1548456538348,-0.867981,0.541077,0.304077,3.231707,-22.560976,40.121952
1548456538363,-0.861938,0.544678,0.305725,3.109756,-22.865854,40.731709
1548456538370,-0.858643,0.543640,0.306763,2.560976,-23.170732,41.463417
1548456538378,-0.852417,0.544983,0.309204,1.890244,-23.658537,42.134148
1548456538392,-0.846558,0.551453,0.311401,1.158537,-23.719513,42.682926
1548456538400,-0.843262,0.555908,0.312317,0.365854,-23.963415,43.353661
1548456538408,-0.841431,0.557495,0.314880,-0.243902,-24.329269,43.902439
1548456538422,-0.837463,0.557678,0.314941,-0.853659,-24.451220,44.390244
1548456538430,-0.834778,0.555664,0.314270,-1.402439,-24.451220,44.634148
1548456538438,-0.836914,0.549194,0.312805,-1.890244,-24.451220,44.695122
1548456538452,-0.836609,0.560242,0.316528,-2.134146,-24.329269,44.756100
1548456538460,-0.827209,0.588806,0.320923,-1.951220,-23.902439,44.329269
1548456538468,-0.814026,0.605103,0.320923,-2.743902,-23.414635,44.207317
1548456538482,-0.804871,0.608826,0.318909,-3.292683,-22.987806,44.390244
1548456538490,-0.798950,0.607117,0.319458,-2.378049,-23.109756,44.512196
1548456538497,-0.793152,0.604797,0.324768,-1.158537,-22.865854,44.329269
1548456538512,-0.784973,0.607910,0.327881,0.182927,-22.500000,44.024391
1548456538520,-0.778137,0.607727,0.330994,1.951220,-22.134148,43.719513
1548456538527,-0.773499,0.605286,0.337097,3.719512,-21.890244,43.414635
1548456538543,-0.768677,0.606262,0.340149,5.243903,-21.951220,43.170734
1548456538550,-0.762695,0.606445,0.337952,6.463415,-21.951220,42.865856
1548456538557,-0.758667,0.599976,0.337158,7.012195,-21.951220,42.439026
1548456538572,-0.752441,0.595886,0.339661,6.951220,-21.646341,41.829269
1548456538580,-0.747437,0.596558,0.341980,6.402439,-21.219513,41.280487
1548456538587,-0.741089,0.608459,0.339905,5.548780,-20.731709,40.731709
1548456538602,-0.728271,0.624573,0.342834,4.634146,-20.121952,40.304878
1548456538610,-0.716125,0.637512,0.346252,3.719512,-19.512196,39.878048
1548456538617,-0.705872,0.645691,0.351562,2.987805,-19.329269,39.573174
1548456538633,-0.694153,0.645935,0.354248,2.987805,-19.085367,39.329269
1548456538640,-0.685364,0.643127,0.354370,3.353659,-18.902439,39.146343
1548456538647,-0.684082,0.638794,0.356140,3.963415,-18.841463,38.780487
1548456538663,-0.686646,0.631165,0.359619,4.573171,-18.841463,38.353661
1548456538670,-0.688782,0.628235,0.364563,4.939024,-19.085367,37.743904
1548456538677,-0.690796,0.635620,0.366760,5.000000,-19.207317,36.707317
1548456538693,-0.690063,0.646118,0.365723,4.695122,-19.085367,35.792683
1548456538700,-0.679932,0.661194,0.365417,3.841464,-18.658537,34.817074
1548456538707,-0.667358,0.678711,0.367554,2.804878,-17.865854,34.207317
1548456538722,-0.655396,0.691772,0.368225,2.195122,-17.317074,33.841465
1548456538730,-0.641907,0.697754,0.369995,1.951220,-16.707317,33.597561
1548456538737,-0.635010,0.703064,0.375244,2.317073,-16.463415,33.292683
1548456538752,-0.632507,0.701294,0.375610,3.109756,-16.585365,32.987804
1548456538760,-0.633179,0.692566,0.377075,3.963415,-16.646341,32.621952
1548456538767,-0.632080,0.691406,0.378418,4.756098,-16.768293,32.073170
1548456538782,-0.627747,0.698181,0.380981,5.365854,-16.829269,31.463415
1548456538790,-0.622925,0.709961,0.381714,5.304878,-16.707317,30.975611
1548456538797,-0.614807,0.724670,0.380920,5.243903,-16.402439,30.548780
1548456538812,-0.606262,0.735657,0.385315,5.365854,-16.097561,30.487806
1548456538820,-0.593872,0.749939,0.393188,5.609756,-15.853659,30.365854
1548456538828,-0.583496,0.765259,0.392578,6.463415,-15.548780,30.304878
1548456538842,-0.574524,0.767761,0.395630,7.256098,-15.426829,30.548780
1548456538850,-0.571228,0.760254,0.398926,7.987805,-15.548780,31.097561
1548456538858,-0.568420,0.754639,0.400879,8.597561,-15.792684,31.341465
1548456538873,-0.566589,0.749817,0.402039,8.902439,-16.158537,31.463415
1548456538880,-0.566956,0.744751,0.406494,8.780488,-16.524391,31.524391
1548456538888,-0.566956,0.751831,0.411316,8.292683,-16.829269,31.524391
1548456538903,-0.562927,0.761536,0.410034,7.743903,-16.829269,31.341465
1548456538910,-0.553040,0.767883,0.406616,6.707317,-16.707317,31.341465
1548456538918,-0.542419,0.785950,0.410339,5.609756,-16.341463,31.219513
1548456538933,-0.526367,0.811157,0.407043,4.939024,-16.158537,31.402439
1548456538940,-0.514282,0.822021,0.405762,4.390244,-16.036585,32.073170
1548456538948,-0.514709,0.807312,0.406738,4.207317,-16.280489,33.170731
1548456538962,-0.523010,0.781128,0.405884,4.268293,-17.012196,33.902439
1548456538971,-0.530090,0.764832,0.404541,4.329268,-17.743902,34.146343
1548456538977,-0.531677,0.759766,0.400757,3.719512,-17.865854,33.902439
1548456538992,-0.532898,0.755310,0.403198,2.195122,-17.500000,33.597561
1548456539000,-0.528320,0.761475,0.406372,0.914634,-17.012196,33.109756
1548456539007,-0.521606,0.752930,0.405518,0.609756,-16.646341,32.378048
1548456539022,-0.518616,0.730103,0.403809,0.304878,-16.341463,31.402439
1548456539030,-0.505493,0.734253,0.409302,0.548781,-16.036585,30.182928
1548456539045,-0.486267,0.740356,0.403809,0.975610,-15.365854,28.841465
1548456539052,-0.472229,0.724731,0.396606,-0.121951,-14.512196,28.109756
1548456539060,-0.460754,0.724731,0.391663,-2.073171,-14.390244,27.317074
1548456539067,-0.446045,0.746460,0.393677,-3.536585,-14.817074,26.158537
1548456539082,-0.438171,0.758484,0.394043,-4.756098,-15.000000,25.487806
1548456539090,-0.438354,0.759766,0.388062,-5.670732,-15.121951,25.060976
1548456539097,-0.443970,0.755432,0.382324,-6.036585,-15.365854,24.695122
1548456539112,-0.446777,0.763245,0.380737,-5.792683,-15.426829,24.207317
1548456539120,-0.449097,0.772949,0.383362,-4.634146,-15.243903,23.353659
1548456539127,-0.446899,0.782898,0.390503,-3.353659,-14.695123,22.560976
1548456539142,-0.435791,0.809143,0.391479,-1.829268,-13.902439,21.646341
1548456539150,-0.424988,0.833435,0.388489,0.060976,-13.109756,20.914635
1548456539158,-0.417175,0.840271,0.389771,1.646341,-12.317074,20.548780
1548456539172,-0.409058,0.851013,0.395325,3.475610,-11.890244,20.365854
1548456539180,-0.402466,0.870178,0.401367,6.097561,-11.646341,20.426830
1548456539188,-0.398560,0.879761,0.412048,8.658537,-11.280488,20.853659
1548456539202,-0.389954,0.899231,0.420654,10.914635,-11.280488,21.463415
1548456539210,-0.376892,0.940063,0.426758,13.658537,-11.585366,22.134148
1548456539217,-0.366028,0.956177,0.428345,16.158537,-11.646341,23.292683
1548456539233,-0.369873,0.917053,0.418518,17.804878,-12.073171,25.182928
1548456539240,-0.394653,0.837402,0.415649,18.780489,-12.926829,26.951220
1548456539247,-0.417480,0.787170,0.419250,19.329269,-13.475610,27.743902
1548456539262,-0.416504,0.801208,0.431763,19.207317,-13.109756,27.256098
1548456539270,-0.396362,0.854797,0.442871,17.926830,-11.768293,26.097561
1548456539277,-0.368530,0.904358,0.447876,15.487805,-10.975610,25.426830
1548456539293,-0.352112,0.912048,0.445618,12.256098,-11.158537,25.731709
1548456539300,-0.350281,0.877563,0.435852,9.817074,-11.829268,26.524391
1548456539307,-0.355713,0.823669,0.423950,8.109756,-12.378049,27.987806
1548456539322,-0.366882,0.785828,0.413208,5.487805,-12.378049,28.719513
1548456539330,-0.374390,0.760315,0.411499,2.439024,-11.890244,28.780489
1548456539338,-0.372620,0.776489,0.418945,-1.646341,-11.585366,28.109756
1548456539352,-0.359436,0.822632,0.424988,-5.182927,-11.524390,26.829269
1548456539360,-0.335632,0.871765,0.423218,-7.621952,-10.914635,25.853659
1548456539367,-0.312439,0.898987,0.420837,-8.963415,-10.121951,25.426830
1548456539382,-0.305054,0.884766,0.417114,-8.353659,-10.000000,25.548780
1548456539390,-0.313965,0.830139,0.407837,-6.036585,-10.914635,25.792683
1548456539397,-0.330383,0.785156,0.399536,-3.597561,-11.707317,25.731709
1548456539412,-0.336426,0.765381,0.396484,-1.463415,-11.646341,25.243902
1548456539420,-0.327454,0.781616,0.404175,-0.060976,-11.219512,24.146341
1548456539427,-0.306152,0.836609,0.416260,0.914634,-10.548780,22.439024
1548456539442,-0.286804,0.872314,0.414734,2.012195,-9.817074,21.097561
1548456539458,-0.284912,0.854553,0.401611,2.621951,-10.182927,20.426830
1548456539458,-0.295593,0.811646,0.399109,3.780488,-10.975610,20.000000
1548456539472,-0.301636,0.792419,0.405579,5.670732,-11.036586,19.146341
1548456539480,-0.288330,0.823669,0.408447,6.768293,-10.243902,18.231709
1548456539487,-0.271729,0.864990,0.405457,7.073171,-8.780488,17.378050
1548456539503,-0.263123,0.877991,0.404968,6.280488,-8.353659,16.951220
1548456539510,-0.270325,0.849426,0.401184,6.341464,-9.146341,17.012196
1548456539518,-0.284485,0.798706,0.398621,7.073171,-9.817074,17.012196
1548456539533,-0.287720,0.781250,0.399353,7.500000,-9.695122,16.341463
1548456539540,-0.275818,0.814209,0.405640,6.585366,-8.597561,15.304878
1548456539548,-0.249084,0.891235,0.415405,4.146341,-7.195122,14.085366
1548456539563,-0.238220,0.913757,0.402283,1.951220,-6.707317,13.292684
1548456539570,-0.250366,0.852112,0.384277,0.182927,-7.682927,13.353659
1548456539578,-0.270996,0.794189,0.384216,0.609756,-8.475610,13.353659
1548456539593,-0.271729,0.786804,0.386719,2.317073,-7.804878,12.560976
1548456539600,-0.260498,0.810974,0.385620,2.256098,-6.097561,11.402439
1548456539607,-0.244019,0.846863,0.390259,0.182927,-4.756098,10.060976
1548456539630,-0.238770,0.858154,0.384888,-1.585366,-4.695122,8.780488
1548456539630,-0.241089,0.829163,0.378662,-2.317073,-5.121951,8.109756
1548456539637,-0.251892,0.795166,0.373718,-2.439024,-5.121951,7.621952
1548456539652,-0.249878,0.799622,0.373535,-1.646341,-4.695122,6.585366
1548456539660,-0.237610,0.833557,0.383301,-1.097561,-3.414634,5.365854
1548456539667,-0.234253,0.841431,0.388611,-1.585366,-2.256098,4.817073
1548456539682,-0.237793,0.825867,0.382996,-1.890244,-2.804878,4.085366
1548456539690,-0.250427,0.792969,0.377563,-0.670732,-3.475610,3.292683
1548456539697,-0.258545,0.763367,0.378906,0.792683,-3.231707,2.500000
1548456539712,-0.254822,0.771790,0.384705,1.646341,-2.378049,0.975610
1548456539720,-0.243896,0.799377,0.385010,1.280488,-1.158537,-0.975610
1548456539727,-0.236206,0.811096,0.385376,-0.365854,0.000000,-2.560976
1548456539742,-0.237427,0.817688,0.381958,-1.829268,0.060976,-3.902439
1548456539750,-0.242371,0.817627,0.377991,-1.768293,-0.060976,-5.304878
1548456539757,-0.245728,0.817810,0.387573,-1.280488,0.792683,-6.402439
1548456539772,-0.230530,0.850647,0.402344,-0.243902,1.768293,-7.378049
1548456539780,-0.217529,0.881897,0.410034,1.646341,2.500000,-7.987805
1548456539787,-0.225647,0.859802,0.406677,2.926829,2.256098,-7.865854
1548456539802,-0.244141,0.824890,0.404419,4.207317,1.097561,-7.621952
1548456539810,-0.260498,0.794006,0.405090,6.280488,0.243902,-7.743903
1548456539818,-0.266235,0.790466,0.414307,7.439024,0.670732,-8.292683
1548456539832,-0.263733,0.828979,0.417664,6.829268,1.280488,-9.634147
1548456539840,-0.247009,0.875244,0.423279,5.426829,1.951220,-10.853659
1548456539847,-0.234863,0.895447,0.423889,3.475610,2.621951,-11.768293
1548456539862,-0.238281,0.886414,0.414917,1.463415,2.621951,-12.195122
1548456539870,-0.248657,0.860840,0.406738,-0.365854,2.378049,-12.134147
1548456539877,-0.262207,0.840088,0.408264,-2.439024,2.378049,-11.829268
1548456539892,-0.266968,0.845032,0.415649,-4.878049,2.378049,-11.707317
1548456539900,-0.271606,0.855225,0.419373,-7.378049,2.378049,-11.646341
1548456539908,-0.273926,0.867493,0.424683,-9.573171,2.378049,-11.463415
1548456539922,-0.271912,0.889526,0.427063,-10.731708,2.256098,-11.463415
1548456539930,-0.267883,0.908875,0.428040,-10.365854,2.743902,-11.646341
1548456539938,-0.265747,0.903198,0.426514,-9.024390,3.231707,-11.646341
1548456539960,-0.271362,0.891968,0.418945,-7.256098,2.926829,-11.707317
1548456539960,-0.271973,0.892029,0.415222,-5.304878,2.804878,-11.646341
1548456539968,-0.272095,0.897644,0.414856,-3.414634,2.987805,-11.524390
1548456539983,-0.273010,0.897888,0.415833,-1.829268,3.109756,-11.341464
1548456539990,-0.276245,0.889587,0.418274,-0.304878,2.926829,-11.097561
1548456539997,-0.279419,0.884460,0.424438,0.975610,2.500000,-10.975610
1548456540012,-0.279358,0.877441,0.426514,2.439024,2.500000,-10.792684
1548456540020,-0.284241,0.864807,0.427307,3.048780,2.621951,-10.548780
1548456540027,-0.288086,0.851440,0.422607,3.109756,2.682927,-10.487805
1548456540042,-0.296387,0.836670,0.419250,2.926829,2.378049,-10.487805
1548456540050,-0.302002,0.828430,0.411499,1.951220,2.439024,-10.609756
1548456540058,-0.299683,0.838745,0.411316,-0.182927,2.865854,-11.036586
1548456540072,-0.296875,0.855286,0.409790,-2.256098,3.536585,-11.341464
1548456540080,-0.298035,0.849060,0.409729,-3.963415,4.207317,-11.524390
1548456540087,-0.305664,0.830322,0.406616,-5.365854,4.268293,-11.463415
1548456540102,-0.311829,0.823730,0.400635,-5.853659,4.207317,-11.646341
1548456540110,-0.312805,0.832581,0.400146,-5.731708,4.512195,-12.012196
1548456540117,-0.312134,0.842529,0.401611,-5.792683,5.121951,-12.439025
1548456540133,-0.317627,0.837402,0.403931,-5.609756,5.426829,-12.682927
1548456540140,-0.325623,0.820129,0.400574,-5.000000,5.365854,-13.109756
1548456540148,-0.335266,0.803162,0.401428,-3.780488,5.182927,-13.902439
1548456540163,-0.341003,0.799011,0.403748,-2.256098,5.853659,-14.756098
1548456540170,-0.337646,0.812988,0.406677,-1.036585,6.402439,-15.792684
1548456540178,-0.328674,0.843323,0.406128,-0.365854,6.951220,-16.951220
1548456540193,-0.319031,0.852661,0.403320,0.121951,7.378049,-17.682928
1548456540200,-0.325317,0.833069,0.397034,0.548781,7.500000,-17.621952
1548456540208,-0.336914,0.804871,0.392578,1.341463,7.134147,-17.621952
1548456540223,-0.348755,0.786926,0.397522,2.317073,7.134147,-17.682928
1548456540230,-0.359497,0.782837,0.407654,2.865854,7.500000,-17.987804
1548456540237,-0.366211,0.801819,0.414612,2.500000,7.682927,-18.780489
1548456540253,-0.363342,0.826233,0.413025,1.463415,7.865854,-19.817074
1548456540260,-0.359131,0.846680,0.409302,-0.060976,8.292683,-20.548780
1548456540267,-0.357056,0.844299,0.408264,-0.853659,8.841464,-20.853659
1548456540282,-0.361572,0.831360,0.408691,-1.036585,9.268292,-20.975611
1548456540290,-0.370239,0.824829,0.410889,-0.426829,9.329268,-21.158537
1548456540297,-0.378113,0.838379,0.414124,0.792683,9.268292,-21.402439
1548456540312,-0.378845,0.853699,0.422119,1.585366,9.207317,-21.524391
1548456540320,-0.376038,0.858826,0.424072,2.134146,9.268292,-21.524391
1548456540327,-0.378113,0.846985,0.421936,2.682927,9.146341,-21.402439
1548456540342,-0.385864,0.814941,0.422974,3.292683,9.085366,-21.158537
1548456540350,-0.399475,0.794678,0.425232,3.780488,8.597561,-20.975611
1548456540358,-0.413757,0.800049,0.425720,4.024390,8.048780,-21.280489
1548456540372,-0.420715,0.830322,0.425720,2.743902,7.743903,-21.829269
1548456540380,-0.413818,0.870972,0.421265,0.121951,7.621952,-22.500000
1548456540387,-0.408630,0.884155,0.416931,-2.378049,8.048780,-22.621952
1548456540402,-0.409424,0.856934,0.413574,-4.329268,8.780488,-22.073172
1548456540410,-0.413635,0.833069,0.411926,-4.451220,9.085366,-21.341463
1548456540417,-0.422607,0.829712,0.414917,-3.170732,9.085366,-21.097561
1548456540432,-0.429260,0.839050,0.424500,-2.195122,8.719512,-20.731709
1548456540440,-0.433044,0.851990,0.426758,-2.073171,8.231708,-20.548780
1548456540447,-0.435059,0.853577,0.422974,-2.560976,7.926829,-20.487804
1548456540470,-0.434814,0.839294,0.417847,-3.353659,7.926829,-20.121952
1548456540471,-0.430542,0.840088,0.417786,-4.024390,8.170732,-19.695122
1548456540477,-0.429077,0.842102,0.412903,-3.170732,8.536586,-19.268293
1548456540493,-0.438171,0.822144,0.411194,-2.500000,8.597561,-18.597561
1548456540500,-0.452271,0.795227,0.411621,-2.256098,8.048780,-18.048780
1548456540515,-0.466064,0.779053,0.412170,-1.890244,7.256098,-18.170732
1548456540523,-0.472656,0.791382,0.414368,-1.951220,6.768293,-18.841463
1548456540530,-0.470520,0.811829,0.411072,-2.621951,7.134147,-19.329269
1548456540537,-0.465088,0.818604,0.405457,-4.268293,7.865854,-19.329269
1548456540553,-0.462341,0.812317,0.399048,-6.097561,8.597561,-19.207317
1548456540560,-0.458496,0.805603,0.399963,-6.890244,9.085366,-19.329269
1548456540567,-0.458984,0.817932,0.400635,-6.585366,9.207317,-19.329269
1548456540590,-0.458862,0.831238,0.403198,-5.853659,9.085366,-18.902439
1548456540591,-0.466797,0.816711,0.397400,-5.182927,8.963415,-18.170732
1548456540598,-0.481750,0.784180,0.395447,-4.573171,8.536586,-17.378050
1548456540612,-0.493713,0.770081,0.405823,-3.414634,8.048780,-17.378050
1548456540620,-0.500610,0.775940,0.411316,-1.951220,7.987805,-17.865854
1548456540628,-0.502136,0.775879,0.409180,-1.585366,8.353659,-18.109756
1548456540642,-0.508667,0.765076,0.404602,-1.951220,8.475610,-18.414635
1548456540650,-0.517029,0.755798,0.399841,-2.682927,8.292683,-18.963415
1548456540657,-0.515320,0.768616,0.400391,-3.048780,8.292683,-19.756098
1548456540680,-0.507751,0.786011,0.403137,-3.170732,8.719512,-20.426830
1548456540681,-0.502808,0.781494,0.398743,-3.536585,9.573171,-20.365854
1548456540687,-0.504944,0.758850,0.391968,-4.146341,9.817074,-20.121952
1548456540703,-0.511780,0.740356,0.385498,-4.329268,9.512196,-20.426830
1548456540710,-0.520447,0.740723,0.389343,-4.695122,9.329268,-20.914635
1548456540718,-0.526306,0.742737,0.397095,-4.939024,9.634147,-21.097561
1548456540732,-0.533142,0.744507,0.398865,-5.731708,9.756098,-21.158537
1548456540740,-0.538757,0.751282,0.396851,-6.097561,9.817074,-21.646341
1548456540747,-0.538879,0.756592,0.396545,-5.853659,10.121951,-22.317074
1548456540763,-0.537354,0.760376,0.395203,-5.243903,10.670732,-22.682928
1548456540770,-0.536011,0.759155,0.396729,-4.451220,11.036586,-22.682928
1548456540778,-0.538635,0.753052,0.394043,-3.719512,11.280488,-22.621952
1548456540793,-0.546570,0.742004,0.388794,-3.170732,11.219512,-22.865854
1548456540800,-0.559631,0.727417,0.386780,-3.048780,10.914635,-23.231709
1548456540808,-0.570557,0.727722,0.390015,-3.170732,10.670732,-23.597561
1548456540823,-0.577576,0.747681,0.392700,-3.109756,10.609756,-24.146341
1548456540830,-0.580688,0.759644,0.389893,-2.987805,11.036586,-24.451220
1548456540838,-0.580505,0.760498,0.387146,-3.292683,11.585366,-24.451220
1548456540852,-0.581543,0.764343,0.388184,-2.926829,12.134147,-24.634148
1548456540860,-0.573792,0.761536,0.389709,-1.768293,12.743903,-24.634148
1548456540867,-0.576416,0.742371,0.387146,-0.853659,13.231708,-24.268293
1548456540882,-0.588928,0.720886,0.386292,-0.060976,13.292684,-24.085367
1548456540890,-0.598022,0.713318,0.394165,0.670732,12.987805,-24.146341
1548456540898,-0.605957,0.711853,0.392456,0.975610,12.439025,-24.207317
1548456540912,-0.615601,0.706726,0.388245,0.304878,12.073171,-24.512196
1548456540920,-0.623657,0.699158,0.389648,-1.219512,12.073171,-24.878050
1548456540927,-0.630493,0.696411,0.391724,-2.439024,12.378049,-25.121952
1548456540942,-0.631470,0.704224,0.391907,-3.170732,12.804878,-25.487806
1548456540950,-0.629211,0.711914,0.388977,-3.536585,13.353659,-25.853659
1548456540957,-0.625488,0.720764,0.392883,-3.841464,13.719513,-26.036587
1548456540972,-0.627075,0.721863,0.389893,-3.353659,13.841464,-26.036587
1548456540980,-0.629944,0.711182,0.387695,-2.560976,13.780488,-25.914635
1548456540987,-0.639038,0.696533,0.382874,-1.951220,13.475610,-25.975611
1548456541002,-0.645203,0.691650,0.386719,-1.951220,13.475610,-26.219513
1548456541010,-0.648743,0.695862,0.391663,-1.768293,13.475610,-26.463415
1548456541017,-0.650391,0.700256,0.389221,-1.768293,13.414635,-26.524391
1548456541032,-0.654724,0.697937,0.386719,-2.378049,13.170732,-26.585367
1548456541040,-0.657227,0.695557,0.387146,-2.865854,12.926829,-26.524391
1548456541048,-0.660767,0.688171,0.385193,-2.804878,13.109756,-26.585367
1548456541063,-0.661377,0.686218,0.386414,-2.743902,13.292684,-26.463415
1548456541070,-0.661621,0.696594,0.385803,-2.378049,13.292684,-26.402439
1548456541077,-0.661438,0.700500,0.385925,-1.829268,13.292684,-26.219513
1548456541093,-0.666687,0.689026,0.380615,-1.707317,12.926829,-25.731709
1548456541100,-0.676941,0.668335,0.378967,-1.646341,12.500000,-25.487806
1548456541107,-0.688110,0.654419,0.375977,-1.402439,12.317074,-25.487806
1548456541122,-0.696777,0.648254,0.375977,-1.341463,11.951220,-25.731709
1548456541130,-0.702148,0.654358,0.375244,-1.707317,11.951220,-25.975611
1548456541137,-0.708435,0.660706,0.373718,-2.378049,12.073171,-26.158537
1548456541160,-0.710327,0.658508,0.368896,-3.292683,12.134147,-26.097561
1548456541161,-0.713135,0.664917,0.366028,-4.451220,12.256098,-25.853659
1548456541167,-0.710876,0.670105,0.363708,-4.939024,12.621951,-25.670732
1548456541182,-0.707092,0.670532,0.365967,-5.304878,13.170732,-25.426830
1548456541190,-0.702881,0.670593,0.367798,-5.304878,13.414635,-25.121952
1548456541197,-0.707458,0.665283,0.366577,-4.573171,13.414635,-24.695122
1548456541213,-0.717224,0.660583,0.370361,-3.475610,12.560976,-24.207317
1548456541220,-0.717896,0.656799,0.367188,-2.134146,12.134147,-24.146341
1548456541227,-0.725525,0.631836,0.362732,-1.341463,11.829268,-23.780489
1548456541242,-0.735718,0.609131,0.362671,-1.280488,11.463415,-23.536587
1548456541250,-0.747437,0.606384,0.360291,-1.158537,11.158537,-23.841463
1548456541258,-0.756775,0.605408,0.356323,-1.768293,10.914635,-24.085367
1548456541272,-0.761963,0.600464,0.349243,-2.865854,11.158537,-24.390244
1548456541287,-0.766724,0.598694,0.347717,-4.024390,11.524390,-24.451220
1548456541288,-0.762390,0.621277,0.344055,-4.573171,11.768293,-24.634148
1548456541302,-0.751648,0.630127,0.343262,-4.573171,12.317074,-24.512196
1548456541310,-0.746887,0.623596,0.341614,-4.695122,12.682927,-23.963415
1548456541317,-0.742432,0.619080,0.342896,-3.841464,12.743903,-23.658537
1548456541332,-0.741760,0.615479,0.339783,-2.439024,12.378049,-23.658537
1548456541340,-0.743408,0.605347,0.340271,-1.402439,12.073171,-23.353659
1548456541347,-0.755554,0.588135,0.338013,-1.341463,11.829268,-22.865854
1548456541362,-0.769653,0.576965,0.337830,-0.975610,11.463415,-22.865854
1548456541377,-0.779602,0.569641,0.335571,-0.792683,11.219512,-23.048780
1548456541378,-0.793579,0.557983,0.334290,-1.707317,11.341464,-23.414635
1548456541392,-0.802490,0.547241,0.327454,-2.378049,11.646341,-23.902439
1548456541400,-0.800537,0.549561,0.324280,-2.804878,12.073171,-24.451220
1548456541408,-0.809753,0.535339,0.317505,-4.085366,12.500000,-24.512196
1548456541423,-0.820618,0.533569,0.316833,-5.121951,12.500000,-24.756098
1548456541430,-0.821655,0.535461,0.313049,-4.695122,12.804878,-25.487806
1548456541438,-0.818420,0.528442,0.306396,-5.121951,13.780488,-26.036587
1548456541453,-0.813416,0.531128,0.305359,-5.670732,14.756098,-26.402439
1548456541460,-0.820129,0.518799,0.299133,-5.548780,15.121951,-26.646341
1548456541468,-0.826050,0.510986,0.296875,-4.878049,14.939025,-27.134148
1548456541483,-0.828064,0.511658,0.295349,-4.146341,15.304878,-27.987806
1548456541490,-0.827209,0.507385,0.291016,-4.390244,15.853659,-28.719513
1548456541505,-0.837952,0.489014,0.289612,-4.878049,15.853659,-28.902439
1548456541520,-0.847961,0.486328,0.291809,-4.146341,15.853659,-29.817074
1548456541521,-0.846985,0.492981,0.289612,-3.719512,16.585365,-31.097561
1548456541527,-0.848938,0.501770,0.286438,-4.634146,17.560976,-31.951220
1548456541543,-0.848877,0.509827,0.289124,-5.000000,18.048780,-32.195122
1548456541550,-0.846558,0.517090,0.290588,-4.512195,18.170732,-32.256100
1548456541557,-0.846313,0.525635,0.294983,-3.414634,18.170732,-32.560978
1548456541572,-0.846436,0.531189,0.294861,-1.585366,18.048780,-32.865856
1548456541580,-0.847778,0.529724,0.294006,0.487805,17.804878,-33.109756
1548456541588,-0.846924,0.537781,0.295532,2.073171,17.682928,-33.170731
1548456541602,-0.851807,0.529236,0.294006,3.536585,17.439024,-32.865856
1548456541610,-0.861938,0.520020,0.297668,5.243903,16.768293,-32.500000
1548456541617,-0.868774,0.521057,0.299194,6.890244,16.341463,-32.682926
1548456541632,-0.871216,0.527466,0.299072,7.500000,16.036585,-32.865856
1548456541640,-0.889648,0.502563,0.292725,6.951220,15.365854,-32.073170
1548456541648,-0.896118,0.502808,0.295227,7.317073,14.512196,-31.463415
1548456541662,-0.897949,0.506775,0.292297,7.500000,14.390244,-31.158537
1548456541670,-0.899109,0.506775,0.286072,5.731708,14.390244,-30.548780
1548456541678,-0.896790,0.504944,0.285278,4.817073,14.573171,-29.756098
1548456541692,-0.893494,0.497559,0.284729,3.597561,14.512196,-28.597561
1548456541700,-0.893982,0.490051,0.278870,2.439024,14.329268,-27.500000
1548456541707,-0.893738,0.482178,0.273865,1.463415,14.146341,-26.646341
1548456541730,-0.891846,0.475037,0.274902,0.670732,13.780488,-25.792683
1548456541731,-0.899231,0.454041,0.271973,-0.365854,13.414635,-24.695122
1548456541745,-0.903931,0.453674,0.274780,-1.219512,13.109756,-23.963415
1548456541752,-0.905212,0.461548,0.269897,-2.073171,13.353659,-23.780489
1548456541760,-0.906738,0.460144,0.263550,-3.414634,13.414635,-22.987806
1548456541767,-0.905273,0.448242,0.257935,-4.268293,13.353659,-21.951220
1548456541782,-0.905945,0.434937,0.252930,-4.939024,13.170732,-21.280489
1548456541790,-0.907410,0.425354,0.249695,-5.243903,12.987805,-21.219513
1548456541797,-0.910278,0.420837,0.248413,-5.609756,12.987805,-20.975611
1548456541812,-0.915283,0.411011,0.247314,-5.487805,12.926829,-20.487804
1548456541820,-0.921570,0.399048,0.245972,-5.000000,12.804878,-20.121952
1548456541828,-0.925110,0.387085,0.241699,-4.695122,12.804878,-19.939024
1548456541850,-0.929565,0.380737,0.236450,-4.756098,12.804878,-20.121952
1548456541850,-0.931885,0.375488,0.234253,-4.695122,12.682927,-20.365854
1548456541857,-0.938232,0.366211,0.229309,-4.512195,12.500000,-20.426830
1548456541872,-0.943604,0.368591,0.227295,-4.146341,12.378049,-20.731709
1548456541880,-0.945007,0.369568,0.221069,-3.841464,12.682927,-21.036587
1548456541902,-0.945007,0.367004,0.219055,-3.536585,12.865854,-21.219513
1548456541903,-0.945312,0.362427,0.216248,-3.048780,12.987805,-21.402439
1548456541910,-0.945190,0.361023,0.210266,-2.317073,13.048780,-21.707317
1548456541917,-0.947510,0.359436,0.211975,-1.829268,12.926829,-22.256098
1548456541932,-0.947571,0.362122,0.211548,-1.341463,12.804878,-22.743902
1548456541940,-0.949707,0.362549,0.207764,-0.670732,12.865854,-22.987806
1548456541947,-0.951355,0.362122,0.204529,0.000000,12.865854,-23.414635
1548456541962,-0.953857,0.360413,0.202942,0.609756,12.865854,-23.780489
1548456541970,-0.955444,0.356079,0.205811,1.219512,12.743903,-23.963415
1548456541978,-0.955994,0.348328,0.203430,1.768293,12.621951,-24.268293
1548456541992,-0.959778,0.346252,0.199463,2.073171,12.560976,-24.573172
1548456542000,-0.964172,0.348877,0.200500,2.073171,12.439025,-24.817074
1548456542007,-0.965271,0.342163,0.200439,2.134146,12.256098,-25.000000
1548456542022,-0.965820,0.339600,0.200256,2.378049,12.073171,-24.939026
1548456542030,-0.968628,0.340149,0.196167,2.560976,12.073171,-24.878050
1548456542038,-0.969421,0.336121,0.192444,2.621951,12.073171,-24.695122
1548456542060,-0.969360,0.330505,0.192749,2.804878,12.012196,-24.390244
1548456542061,-0.969727,0.327454,0.193726,2.804878,11.951220,-24.024391
1548456542075,-0.969482,0.327332,0.193848,2.560976,11.890244,-23.780489
1548456542083,-0.979492,0.314392,0.190125,2.134146,11.463415,-23.170732
1548456542090,-0.983398,0.312012,0.184998,1.890244,11.036586,-22.865854
1548456542098,-0.981995,0.306396,0.180176,1.402439,11.524390,-23.109756
1548456542113,-0.982361,0.301636,0.179688,0.243902,11.829268,-23.109756
1548456542120,-0.983032,0.296082,0.177551,-0.792683,11.829268,-22.682928
1548456542127,-0.988647,0.289429,0.174194,-1.707317,11.829268,-22.439024
1548456542142,-0.991211,0.284241,0.169006,-2.256098,11.890244,-22.439024
1548456542150,-0.989807,0.279907,0.167908,-2.743902,12.134147,-22.317074
1548456542158,-0.989136,0.274780,0.164185,-3.170732,12.378049,-22.012196
1548456542172,-0.991333,0.267700,0.161743,-3.353659,12.560976,-21.951220
1548456542180,-0.993347,0.264526,0.160706,-3.170732,12.621951,-22.012196
1548456542188,-0.996094,0.259583,0.158142,-3.231707,12.743903,-22.012196
1548456542202,-0.998962,0.256409,0.153564,-3.170732,12.804878,-22.012196
1548456542210,-1.000122,0.251587,0.150208,-2.926829,12.926829,-22.012196
1548456542218,-1.000671,0.250244,0.150696,-2.500000,13.109756,-22.073172
1548456542232,-0.999451,0.246155,0.146729,-2.317073,13.170732,-22.134148
1548456542240,-1.002075,0.243652,0.142578,-2.195122,13.170732,-22.256098
1548456542247,-1.003784,0.241760,0.142822,-1.829268,13.109756,-22.500000
1548456542263,-1.006104,0.242493,0.140076,-1.524390,12.987805,-22.621952
1548456542270,-1.008667,0.240295,0.141541,-0.914634,12.865854,-22.743902
1548456542277,-1.009460,0.238464,0.140930,-0.426829,12.621951,-22.865854
1548456542292,-1.008301,0.236755,0.137695,0.121951,12.500000,-23.048780
1548456542300,-1.008850,0.236511,0.136292,0.548781,12.439025,-23.292683
1548456542307,-1.009216,0.234253,0.136108,1.097561,12.317074,-23.414635
1548456542322,-1.009766,0.230042,0.134521,1.646341,12.195122,-23.414635
1548456542330,-1.010559,0.229065,0.134949,2.073171,12.073171,-23.475611
1548456542337,-1.009521,0.228821,0.135010,2.621951,11.951220,-23.414635
1548456542353,-1.009216,0.229248,0.132629,2.987805,11.768293,-23.170732
1548456542360,-1.011597,0.225159,0.131165,3.475610,11.402439,-22.926830
1548456542368,-1.010193,0.222595,0.131104,3.841464,11.158537,-22.682928
1548456542382,-1.010620,0.222351,0.132019,3.963415,10.853659,-22.439024
1548456542390,-1.010498,0.222046,0.132446,3.841464,10.487805,-22.012196
1548456542397,-1.011108,0.221436,0.130554,3.597561,10.243902,-21.585367
1548456542413,-1.010498,0.222107,0.129578,3.414634,10.000000,-20.975611
1548456542420,-1.010925,0.222534,0.128418,3.292683,9.512196,-20.243902
1548456542427,-1.009033,0.221863,0.128784,2.926829,9.146341,-19.512196
1548456542443,-1.009583,0.221680,0.127319,2.804878,8.719512,-18.719513
1548456542450,-1.011841,0.220459,0.129578,2.621951,8.353659,-17.865854
1548456542458,-1.011963,0.222168,0.125427,2.378049,7.926829,-17.012196
1548456542472,-1.010437,0.223206,0.125671,2.195122,7.439024,-16.036585
1548456542480,-1.011292,0.224976,0.126282,2.134146,7.012195,-15.182927
1548456542488,-1.010376,0.222534,0.125977,1.951220,6.524390,-14.146341
1548456542503,-1.006836,0.220947,0.128052,1.829268,6.097561,-12.987805
1548456542510,-1.007996,0.224182,0.127991,1.646341,5.609756,-11.890244
1548456542517,-1.005432,0.222656,0.127441,1.524390,5.060976,-10.792684
1548456542532,-1.004333,0.222778,0.125916,1.524390,4.512195,-9.756098
1548456542540,-1.006348,0.222351,0.125427,1.463415,4.024390,-8.597561
1548456542548,-1.004456,0.222595,0.124695,1.585366,3.536585,-7.378049
1548456542563,-1.003967,0.221252,0.126282,1.646341,2.926829,-6.158537
1548456542570,-1.005615,0.218750,0.125366,1.768293,2.317073,-5.000000
1548456542577,-1.005432,0.217285,0.125366,1.768293,1.707317,-3.841464
1548456542592,-1.004700,0.217529,0.122009,1.524390,1.097561,-2.560976
1548456542600,-1.005676,0.215576,0.120605,1.280488,0.609756,-1.280488
1548456542607,-1.005371,0.211304,0.121887,1.097561,0.060976,-0.121951
1548456542622,-1.006714,0.207275,0.120300,0.853659,-0.609756,1.036585
1548456542630,-1.008728,0.205017,0.119812,0.609756,-1.036585,2.195122
1548456542637,-1.009827,0.199402,0.118713,0.487805,-1.524390,3.353659
1548456542652,-1.010803,0.200867,0.115112,0.182927,-1.890244,4.329268
1548456542660,-1.010193,0.200073,0.115417,-0.243902,-2.256098,5.243903
1548456542667,-1.011292,0.195435,0.114563,-0.609756,-2.743902,6.219512
1548456542682,-1.014099,0.193481,0.114868,-0.853659,-3.170732,7.073171
1548456542690,-1.013672,0.189575,0.109741,-1.158537,-3.597561,7.926829
1548456542698,-1.013672,0.187195,0.111145,-1.341463,-3.780488,8.536586
1548456542713,-1.013855,0.187378,0.109802,-1.097561,-4.085366,9.024390
1548456542720,-1.012512,0.184143,0.108643,-1.036585,-4.390244,9.573171
1548456542728,-1.013245,0.179504,0.109009,-0.731707,-4.634146,10.304878
1548456542743,-1.015076,0.172791,0.112244,-0.487805,-4.939024,10.670732
1548456542750,-1.018127,0.172119,0.109070,-0.548781,-5.243903,10.975610
1548456542758,-1.019592,0.169434,0.108337,-0.975610,-5.426829,11.097561
1548456542773,-1.021118,0.168213,0.105896,-1.341463,-5.670732,11.097561
1548456542781,-1.023621,0.166565,0.102234,-1.707317,-5.975610,11.219512
1548456542788,-1.026062,0.166748,0.100525,-2.256098,-6.036585,11.463415
1548456542802,-1.028137,0.166931,0.100952,-2.804878,-6.036585,11.463415
1548456542810,-1.028320,0.167603,0.098145,-3.231707,-6.097561,11.280488
1548456542817,-1.029968,0.167725,0.097717,-3.414634,-6.158537,11.158537
1548456542832,-1.025452,0.167114,0.096252,-3.475610,-6.036585,11.036586
1548456542840,-1.024841,0.166870,0.095886,-3.292683,-5.914634,10.731708
1548456542847,-1.023865,0.166931,0.094788,-2.743902,-5.792683,10.548780
1548456542862,-1.020935,0.166687,0.095886,-2.195122,-5.609756,10.121951
1548456542870,-1.020813,0.165649,0.096375,-1.646341,-5.548780,9.695122
1548456542877,-1.018677,0.165771,0.096191,-1.097561,-5.365854,9.329268
1548456542892,-1.014771,0.163757,0.094177,-0.548781,-5.000000,9.024390
1548456542900,-1.012634,0.162476,0.095642,-0.060976,-4.695122,8.475610
1548456542908,-1.012024,0.160583,0.096619,0.243902,-4.634146,7.987805
1548456542922,-1.011353,0.158997,0.093506,0.487805,-4.390244,7.439024
1548456542930,-1.013611,0.158142,0.092834,0.670732,-4.207317,6.829268
1548456542937,-1.012207,0.157715,0.095764,0.792683,-3.841464,6.219512
1548456542952,-1.013062,0.157654,0.095825,0.731707,-3.597561,5.731708
1548456542960,-1.015747,0.156982,0.092468,0.792683,-3.231707,5.243903
1548456542967,-1.017151,0.156921,0.095642,0.853659,-2.865854,4.634146
1548456542982,-1.018127,0.156372,0.095154,0.975610,-2.560976,3.963415
1548456542990,-1.019531,0.155701,0.093140,1.036585,-2.317073,3.353659
1548456543005,-1.023743,0.156799,0.096191,1.036585,-2.012195,2.682927
1548456543012,-1.022217,0.156799,0.094971,0.853659,-1.646341,1.951220
1548456543020,-1.025208,0.158691,0.094788,0.731707,-1.219512,1.280488
1548456543028,-1.024597,0.158264,0.096802,0.670732,-0.914634,0.609756
1548456543042,-1.023621,0.159729,0.094849,0.548781,-0.548781,-0.060976
1548456543050,-1.021240,0.162109,0.095093,0.426829,-0.121951,-0.670732
1548456543057,-1.019958,0.164734,0.097900,0.487805,0.365854,-1.280488
1548456543072,-1.018799,0.163818,0.096313,0.609756,0.609756,-1.829268
1548456543080,-1.015564,0.166931,0.096985,1.036585,0.853659,-2.500000
1548456543087,-1.013794,0.167419,0.099121,1.524390,1.158537,-3.170732
1548456543103,-1.014160,0.167603,0.101013,1.951220,1.402439,-3.719512
1548456543110,-1.013428,0.169922,0.101013,2.256098,1.707317,-4.146341
1548456543117,-1.011719,0.171082,0.101440,2.682927,1.829268,-4.756098
1548456543132,-1.010315,0.172791,0.103882,2.987805,1.951220,-5.121951
1548456543140,-1.010010,0.173279,0.104065,3.292683,2.134146,-5.487805
1548456543147,-1.010193,0.176208,0.105591,3.597561,2.256098,-5.914634
1548456543162,-1.011047,0.177490,0.106140,3.658537,2.378049,-6.219512
1548456543170,-1.011658,0.179504,0.108337,3.719512,2.378049,-6.341464
1548456543178,-1.012573,0.184570,0.110535,3.658537,2.378049,-6.524390
1548456543192,-1.017212,0.192993,0.114014,3.658537,2.439024,-6.768293
1548456543200,-1.018677,0.204590,0.115540,3.536585,2.378049,-6.707317
1548456543207,-1.020447,0.215393,0.115723,3.658537,2.317073,-6.463415
1548456543222,-1.016785,0.224365,0.118958,3.963415,2.195122,-6.158537
1548456543230,-1.014526,0.234558,0.123962,4.512195,1.829268,-5.792683
1548456543237,-1.010681,0.239868,0.127930,5.365854,1.341463,-5.243903
1548456543252,-1.007446,0.248291,0.133484,6.280488,0.792683,-4.573171
1548456543260,-1.005127,0.258606,0.138306,7.195122,0.304878,-3.902439
1548456543267,-1.002380,0.267639,0.141479,8.170732,-0.426829,-2.865854
1548456543282,-0.999268,0.275024,0.144836,8.780488,-1.158537,-1.585366
1548456543290,-0.995667,0.279541,0.149170,9.024390,-1.951220,-0.121951
1548456543297,-0.993469,0.285706,0.152344,9.085366,-2.804878,1.341463
1548456543312,-0.994263,0.293579,0.156616,8.780488,-3.597561,2.987805
1548456543320,-0.992554,0.297607,0.158508,8.292683,-4.573171,4.695122
1548456543328,-0.991943,0.301636,0.162842,7.682927,-5.487805,6.707317
1548456543343,-0.989563,0.300049,0.163879,6.890244,-6.280488,8.658537
1548456543350,-0.984497,0.299805,0.161987,5.914634,-7.195122,10.609756
1548456543358,-0.984985,0.302368,0.165527,4.939024,-8.109756,12.560976
1548456543373,-0.988525,0.302246,0.164917,3.841464,-8.902439,14.756098
1548456543380,-0.990784,0.305237,0.166077,2.865854,-9.634147,17.012196
1548456543388,-0.993896,0.305359,0.164551,1.951220,-10.243902,19.268293
1548456543402,-0.995911,0.303345,0.166931,0.914634,-11.036586,21.341463
1548456543410,-0.994873,0.305359,0.167419,-0.182927,-11.707317,23.353659
1548456543417,-0.997925,0.305664,0.167908,-1.341463,-12.500000,25.304878
1548456543432,-0.997864,0.305054,0.170837,-2.378049,-13.292684,27.195122
1548456543440,-0.997925,0.305969,0.168152,-3.414634,-13.902439,29.024391
1548456543447,-0.996582,0.307739,0.166626,-4.268293,-14.512196,30.731709
1548456543462,-0.996338,0.310059,0.169678,-4.695122,-15.121951,32.195122
1548456543470,-0.998901,0.313171,0.169922,-4.817073,-15.853659,33.475609
1548456543477,-0.998291,0.315125,0.170471,-4.878049,-16.646341,34.817074
1548456543492,-0.996399,0.317383,0.169800,-4.451220,-17.378050,35.975609
1548456543500,-0.995117,0.318420,0.173462,-3.963415,-18.170732,37.012196
1548456543507,-0.995422,0.320801,0.177856,-3.353659,-18.841463,37.926830
1548456543522,-0.996277,0.321289,0.178894,-2.804878,-19.573172,38.841465
1548456543530,-0.996643,0.324402,0.183228,-2.073171,-20.304878,39.695122
1548456543544,-0.999512,0.329590,0.182190,-1.463415,-20.975611,40.426830
1548456543571,-0.998413,0.334595,0.186829,-0.975610,-21.463415,41.158539
1548456543572,-0.997803,0.339966,0.187134,-0.548781,-22.073172,41.829269
1548456543572,-0.994324,0.348877,0.189209,-0.060976,-22.560976,42.378048
1548456543585,-0.988953,0.357361,0.191895,0.243902,-23.109756,42.987804
1548456543590,-0.984558,0.363953,0.195801,0.609756,-23.536587,43.719513
1548456543598,-0.980530,0.369629,0.199219,1.097561,-23.841463,44.451221
1548456543612,-0.976685,0.375061,0.200073,1.585366,-24.268293,45.000000
1548456543621,-0.974487,0.378357,0.205688,2.012195,-24.756098,45.487804
1548456543628,-0.973083,0.381165,0.208252,2.378049,-25.182928,45.975613
1548456543643,-0.968445,0.385681,0.211304,2.621951,-25.304878,46.463417
1548456543651,-0.966675,0.389282,0.216431,2.560976,-25.548780,46.951221
1548456543657,-0.963013,0.396912,0.219299,2.134146,-25.853659,47.500000
1548456543672,-0.957336,0.402466,0.223206,1.585366,-26.036587,47.987804
1548456543680,-0.956299,0.403748,0.223755,1.280488,-26.158537,48.414635
1548456543688,-0.953796,0.406738,0.228333,0.731707,-26.219513,48.719513
1548456543702,-0.949890,0.417236,0.231262,0.243902,-26.219513,49.085365
1548456543710,-0.946777,0.427734,0.235535,0.000000,-26.341463,49.451221
1548456543717,-0.943848,0.436218,0.238831,-0.182927,-26.585367,49.756100
1548456543732,-0.940308,0.440552,0.241821,0.060976,-26.768293,49.878052
1548456543740,-0.934998,0.437561,0.247070,0.426829,-26.890245,50.000000
1548456543747,-0.929016,0.435913,0.248901,0.609756,-27.134148,49.817074
1548456543764,-0.926636,0.434204,0.251648,0.548781,-27.317074,49.634148
1548456543771,-0.925110,0.437805,0.255798,0.182927,-27.621952,49.268295
1548456543778,-0.927368,0.442078,0.255249,-0.121951,-27.865854,48.963417
1548456543793,-0.924744,0.448853,0.256226,-0.426829,-27.743902,48.780487
1548456543801,-0.919312,0.455017,0.260376,-0.975610,-27.256098,48.597561
1548456543808,-0.908691,0.468811,0.265320,-1.158537,-26.585367,48.353661
1548456543823,-0.898010,0.484436,0.267273,-0.792683,-26.341463,47.987804
1548456543830,-0.891907,0.490417,0.270325,0.121951,-26.402439,47.621952
1548456543838,-0.885925,0.487244,0.271545,1.341463,-26.707317,47.439026
1548456543853,-0.877197,0.483154,0.280579,2.317073,-26.890245,47.012196
1548456543860,-0.865112,0.484680,0.284058,3.048780,-26.890245,46.280487
1548456543868,-0.860718,0.491150,0.287598,3.475610,-26.951220,45.426830
1548456543883,-0.855835,0.499634,0.289856,3.597561,-27.012196,44.878048
1548456543890,-0.853333,0.503052,0.290466,3.719512,-27.012196,44.329269
1548456543898,-0.855042,0.506470,0.293884,3.597561,-26.890245,43.780487
1548456543913,-0.850281,0.513428,0.295410,3.292683,-26.402439,43.292683
1548456543920,-0.838806,0.524292,0.297241,2.865854,-25.731709,42.743904
1548456543928,-0.832520,0.539917,0.296692,2.560976,-25.304878,42.195122
1548456543943,-0.826416,0.545654,0.303406,2.317073,-25.243902,41.707317
1548456543950,-0.819031,0.552917,0.310608,2.378049,-25.060976,41.280487
1548456543958,-0.813660,0.554443,0.312195,2.682927,-24.817074,40.731709
1548456543973,-0.806274,0.556152,0.313599,3.231707,-24.207317,40.304878
1548456543980,-0.796387,0.566956,0.316467,3.841464,-23.292683,39.817074
1548456543988,-0.788635,0.577515,0.322205,4.085366,-22.743902,39.390244
1548456544003,-0.783264,0.576965,0.325806,4.146341,-22.256098,39.146343
1548456544011,-0.782104,0.578125,0.324402,4.024390,-22.195122,38.841465
1548456544018,-0.780640,0.579346,0.328430,4.268293,-22.012196,38.597561
1548456544033,-0.777771,0.578857,0.331238,4.329268,-21.646341,38.109756
1548456544040,-0.772217,0.586487,0.333984,3.902439,-21.280489,37.682926
1548456544048,-0.762512,0.596130,0.337036,3.475610,-20.792683,37.256100
1548456544063,-0.755310,0.607727,0.336243,2.987805,-20.365854,37.012196
1548456544071,-0.749756,0.610901,0.336487,2.439024,-20.000000,36.890244
1548456544078,-0.738525,0.607056,0.336731,2.317073,-19.573172,36.768295
1548456544095,-0.734192,0.604126,0.339783,2.317073,-19.390244,36.524391
1548456544101,-0.730042,0.605103,0.344910,2.682927,-19.329269,36.036587
1548456544109,-0.727112,0.607178,0.346680,3.231707,-19.146341,35.365856
1548456544123,-0.724243,0.612244,0.347778,3.597561,-19.024391,34.817074
1548456544131,-0.718262,0.617126,0.349060,3.841464,-18.719513,34.329269
1548456544138,-0.713135,0.620483,0.348755,3.780488,-18.475611,33.963417
1548456544154,-0.710022,0.619873,0.350464,3.109756,-18.292683,33.475609
1548456544161,-0.706055,0.629395,0.352661,2.560976,-17.987804,32.804878
1548456544176,-0.697021,0.641113,0.356323,2.439024,-17.682928,32.073170
1548456544183,-0.691406,0.654968,0.358704,2.195122,-17.256098,31.524391
1548456544191,-0.685120,0.666199,0.359131,2.073171,-16.890244,31.158537
1548456544199,-0.677490,0.675537,0.363037,2.256098,-16.402439,30.853659
1548456544213,-0.668152,0.686646,0.371033,2.865854,-16.097561,30.609756
1548456544221,-0.661316,0.697266,0.370361,3.780488,-16.097561,30.304878
1548456544229,-0.656677,0.708679,0.378540,4.939024,-16.219513,30.121952
1548456544236,-0.652344,0.718018,0.382446,6.036585,-16.219513,30.121952
1548456544251,-0.647217,0.719604,0.381531,7.073171,-16.097561,30.304878
1548456544258,-0.646545,0.721924,0.385681,8.048780,-16.341463,30.365854
1548456544266,-0.641846,0.725098,0.386047,8.719512,-16.524391,30.365854
1548456544282,-0.640930,0.722717,0.389893,8.902439,-16.524391,30.548780
1548456544295,-0.638184,0.722900,0.389771,8.475610,-16.646341,30.548780
1548456544296,-0.634949,0.723511,0.386658,8.292683,-16.463415,30.670732
1548456544310,-0.631348,0.716736,0.383667,7.682927,-16.402439,30.792685
1548456544318,-0.628723,0.707092,0.382874,6.890244,-16.097561,30.853659
1548456544325,-0.628906,0.688965,0.375610,6.097561,-15.853659,30.792685
1548456544340,-0.629456,0.669067,0.364441,4.939024,-15.548780,30.670732
1548456544348,-0.626648,0.658569,0.360779,3.414634,-14.939025,30.121952
1548456544355,-0.616272,0.668640,0.366577,1.829268,-14.085366,29.268293
1548456544371,-0.606384,0.683838,0.372375,0.792683,-13.353659,28.658537
1548456544378,-0.599548,0.688538,0.371643,-0.365854,-12.865854,28.170732
1548456544386,-0.591431,0.692505,0.366455,-1.951220,-12.317074,27.621952
1548456544400,-0.579834,0.705505,0.367004,-3.353659,-11.707317,26.951220
1548456544408,-0.566895,0.725098,0.371216,-3.963415,-10.975610,26.402439
1548456544415,-0.552795,0.743408,0.375061,-3.780488,-10.487805,25.914635
1548456544430,-0.547180,0.747070,0.377991,-2.500000,-10.487805,25.548780
1548456544438,-0.549622,0.746460,0.371948,-0.121951,-11.219512,25.243902
1548456544446,-0.555298,0.742981,0.371399,2.804878,-11.707317,24.878050
1548456544460,-0.560425,0.741150,0.378601,5.792683,-11.890244,24.512196
1548456544468,-0.559875,0.744812,0.388489,8.475610,-11.951220,23.902439
1548456544483,-0.557129,0.755005,0.398254,11.219512,-11.829268,23.170732
1548456544490,-0.547302,0.775574,0.402649,13.353659,-11.768293,22.560976
1548456544498,-0.537170,0.793152,0.399597,14.817074,-11.646341,22.073172
1548456544506,-0.529785,0.799072,0.398010,15.487805,-11.646341,22.012196
1548456544520,-0.523987,0.794739,0.398132,15.914635,-11.707317,22.195122
1548456544528,-0.521973,0.785522,0.400635,16.036585,-11.829268,22.439024
1548456544535,-0.516357,0.794434,0.406311,15.731708,-11.768293,22.621952
1548456544550,-0.505066,0.807678,0.403687,15.243903,-11.524390,22.621952
1548456544558,-0.498047,0.808228,0.402710,13.414635,-11.097561,23.292683
1548456544566,-0.490967,0.807678,0.402405,11.036586,-11.036586,24.268293
1548456544581,-0.487732,0.815186,0.402344,9.451220,-11.219512,24.878050
1548456544588,-0.487793,0.819275,0.406860,7.804878,-11.463415,25.609756
1548456544596,-0.489258,0.827087,0.410767,6.219512,-11.890244,26.280489
1548456544611,-0.494629,0.820435,0.415527,5.304878,-12.317074,26.646341
1548456544619,-0.497742,0.817383,0.417969,4.390244,-12.500000,27.012196
1548456544626,-0.494141,0.821838,0.417725,3.597561,-12.621951,27.012196
1548456544642,-0.484375,0.821838,0.418213,2.865854,-12.439025,27.195122
1548456544648,-0.476929,0.819092,0.416870,2.195122,-12.256098,27.560976
1548456544656,-0.469299,0.819336,0.411255,1.890244,-12.256098,27.743902
1548456544670,-0.463135,0.823059,0.408081,1.646341,-12.560976,27.865854
1548456544678,-0.454651,0.838257,0.410706,1.951220,-12.865854,27.865854
1548456544685,-0.444702,0.854980,0.410400,2.500000,-13.048780,28.048780
1548456544700,-0.438721,0.852661,0.406311,3.109756,-13.170732,28.658537
1548456544708,-0.438660,0.834595,0.406494,4.085366,-13.536586,29.329269
1548456544715,-0.447754,0.814392,0.405212,5.487805,-14.024390,29.634148
1548456544730,-0.447937,0.807617,0.408691,6.829268,-14.268293,29.573172
1548456544738,-0.446106,0.809143,0.408447,7.439024,-14.268293,29.329269
1548456544745,-0.441162,0.808289,0.405334,7.134147,-13.902439,28.841465
1548456544760,-0.431458,0.803223,0.397217,6.158537,-13.658537,28.292683
1548456544768,-0.423279,0.795227,0.389526,5.304878,-13.536586,27.804878
1548456544775,-0.414185,0.789795,0.385010,4.756098,-13.292684,27.317074
1548456544790,-0.405579,0.796021,0.387817,4.329268,-12.804878,26.829269
1548456544798,-0.398376,0.811401,0.389160,4.268293,-12.439025,26.402439
1548456544805,-0.393494,0.820312,0.383667,3.963415,-12.378049,26.158537
1548456544820,-0.389709,0.818909,0.378662,3.353659,-12.500000,25.853659
1548456544828,-0.389709,0.806213,0.374573,3.170732,-12.621951,25.426830
1548456544835,-0.391602,0.785278,0.374390,3.048780,-12.317074,25.060976
1548456544850,-0.392822,0.777405,0.373657,3.231707,-11.768293,24.390244
1548456544858,-0.388062,0.795044,0.375122,3.597561,-11.097561,23.292683
1548456544865,-0.377075,0.826050,0.376038,3.658537,-10.426829,22.195122
1548456544880,-0.375671,0.826965,0.368469,3.536585,-10.000000,21.402439
1548456544888,-0.386169,0.801697,0.368286,4.207317,-10.000000,20.792683
1548456544896,-0.393005,0.785095,0.368103,6.036585,-9.939025,19.634148
1548456544910,-0.387390,0.793884,0.368164,8.109756,-9.146341,17.804878
1548456544918,-0.370239,0.807373,0.365295,8.963415,-7.621952,15.914635
1548456544925,-0.353882,0.806091,0.365295,8.475610,-6.280488,14.451220
1548456544940,-0.339722,0.821594,0.367493,7.743903,-5.914634,13.109756
1548456544948,-0.324707,0.838135,0.364502,8.170732,-5.792683,12.012196
1548456544955,-0.316711,0.832642,0.356140,8.292683,-5.609756,11.646341
1548456544970,-0.310852,0.833557,0.353699,7.560976,-5.670732,12.012196
1548456544978,-0.310669,0.846558,0.353333,7.378049,-5.731708,12.317074
1548456544985,-0.315552,0.851074,0.350830,6.829268,-5.853659,12.743903
1548456545000,-0.323975,0.866638,0.360229,5.792683,-6.280488,13.414635
1548456545008,-0.334229,0.883667,0.370667,5.975610,-6.341464,14.024390
1548456545015,-0.344910,0.877502,0.378723,6.829268,-6.280488,14.512196
1548456545030,-0.349731,0.872070,0.376526,7.865854,-6.036585,14.085366
1548456545038,-0.335449,0.899963,0.393066,9.573171,-5.243903,12.743903
1548456545045,-0.310913,0.942688,0.415344,12.134147,-3.902439,11.829268
1548456545060,-0.289551,0.965271,0.416016,14.329268,-3.170732,11.768293
1548456545068,-0.287659,0.932190,0.397644,15.365854,-3.963415,12.621951
1548456545075,-0.306763,0.866516,0.375793,14.817074,-5.426829,13.658537
1548456545090,-0.325806,0.821655,0.374207,13.536586,-6.524390,14.451220
1548456545098,-0.328979,0.839294,0.382263,11.402439,-6.402439,14.329268
1548456545105,-0.309143,0.894043,0.393311,7.987805,-5.487805,14.024390
1548456545120,-0.287964,0.941956,0.399048,4.451220,-4.512195,13.780488
1548456545128,-0.277771,0.964600,0.402649,2.378049,-4.695122,14.268293
1548456545135,-0.273071,0.963196,0.400818,2.317073,-5.487805,15.487805
1548456545151,-0.282837,0.918762,0.386841,3.719512,-5.853659,17.073172
1548456545158,-0.307190,0.829346,0.374817,4.146341,-6.097561,18.719513
1548456545165,-0.326843,0.778625,0.370850,3.231707,-6.585366,18.841463
1548456545181,-0.320251,0.799316,0.371033,2.134146,-6.402439,17.378050
1548456545188,-0.299622,0.845581,0.368469,-0.243902,-5.243903,15.792684
1548456545195,-0.291321,0.847107,0.357300,-3.170732,-4.329268,14.573171
1548456545210,-0.290405,0.828064,0.350220,-4.878049,-4.695122,13.109756
1548456545218,-0.285889,0.836670,0.350159,-3.780488,-4.756098,11.463415
1548456545225,-0.273682,0.857056,0.354309,-1.524390,-3.536585,10.182927
1548456545240,-0.264954,0.861389,0.358398,-0.060976,-2.256098,9.634147
1548456545247,-0.258545,0.856140,0.357666,0.731707,-2.621951,9.024390
1548456545255,-0.245605,0.881531,0.350708,1.951220,-3.231707,8.414635
1548456545270,-0.234619,0.894775,0.344971,3.170732,-3.048780,8.780488
1548456545278,-0.244629,0.868958,0.339783,4.451220,-3.231707,9.817074
1548456545285,-0.267029,0.821106,0.344666,6.585366,-4.573171,10.487805
1548456545300,-0.292297,0.791565,0.349731,9.756098,-5.914634,10.121951
1548456545308,-0.297485,0.800720,0.352112,12.012196,-6.158537,9.024390
1548456545315,-0.282104,0.840820,0.356812,11.585366,-4.512195,7.621952
1548456545331,-0.269775,0.867249,0.361328,10.304878,-2.682927,5.914634
1548456545338,-0.258789,0.891541,0.362244,8.353659,-2.621951,3.963415
1548456545346,-0.246338,0.924927,0.355042,7.073171,-2.439024,2.195122
1548456545360,-0.250427,0.883850,0.337158,6.707317,-1.280488,1.768293
1548456545372,-0.270081,0.804810,0.322754,5.000000,-0.975610,2.012195
1548456545375,-0.278320,0.780640,0.327271,4.146341,-1.158537,1.280488
1548456545393,-0.261353,0.825317,0.343384,4.024390,0.060976,-0.121951
1548456545413,-0.241638,0.879150,0.356262,2.378049,1.402439,-0.792683
1548456545413,-0.237732,0.895142,0.356262,-0.121951,1.219512,-0.975610
1548456545420,-0.245728,0.881104,0.348877,-1.341463,-0.060976,-1.158537
1548456545428,-0.257446,0.840332,0.334229,-1.097561,-0.670732,-1.280488
1548456545436,-0.276062,0.797913,0.321838,-0.792683,-0.243902,-1.463415
1548456545450,-0.287170,0.792603,0.320801,-0.243902,0.365854,-2.134146
1548456545458,-0.277771,0.831299,0.330322,-0.121951,1.036585,-3.536585
1548456545466,-0.253113,0.891602,0.340088,-0.731707,2.256098,-5.243903
1548456545480,-0.231384,0.933228,0.342712,-1.463415,3.353659,-6.341464
1548456545487,-0.233398,0.914795,0.338501,-1.341463,3.475610,-6.524390
1548456545496,-0.250305,0.867065,0.335632,-0.060976,2.926829,-6.524390
1548456545510,-0.268677,0.840210,0.334656,2.500000,2.378049,-6.707317
1548456545518,-0.272827,0.839355,0.341858,4.390244,2.500000,-6.707317
1548456545525,-0.274902,0.847351,0.350403,4.878049,3.048780,-6.829268
1548456545540,-0.280457,0.847351,0.353394,4.268293,3.109756,-7.500000
1548456545547,-0.282715,0.844910,0.349121,3.353659,2.804878,-8.414635
1548456545555,-0.278198,0.862488,0.352966,2.439024,3.109756,-9.329268
1548456545570,-0.277527,0.880127,0.357239,2.195122,4.085366,-10.304878
1548456545578,-0.279785,0.872803,0.349182,1.890244,4.573171,-11.097561
1548456545586,-0.278381,0.877808,0.343994,0.731707,4.634146,-11.829268
1548456545600,-0.270752,0.891968,0.343323,-0.182927,5.365854,-12.317074
1548456545607,-0.266357,0.889587,0.344971,-0.914634,6.341464,-12.195122
1548456545615,-0.279236,0.865479,0.349731,-1.158537,6.280488,-11.829268
1548456545630,-0.295776,0.841431,0.358276,-0.670732,5.426829,-11.707317
1548456545637,-0.303589,0.844727,0.367310,0.548781,4.756098,-12.012196
1548456545645,-0.304626,0.850891,0.370483,1.036585,5.060976,-12.378049
1548456545660,-0.302551,0.851379,0.366089,0.182927,5.487805,-12.987805
1548456545668,-0.305054,0.854797,0.360229,-0.914634,5.609756,-13.841464
1548456545675,-0.306824,0.860718,0.350098,-2.012195,5.670732,-14.817074
1548456545690,-0.309875,0.855774,0.341919,-2.682927,5.975610,-15.731708
1548456545698,-0.312866,0.842834,0.339172,-3.231707,6.341464,-16.341463
1548456545705,-0.316223,0.844788,0.347595,-3.475610,6.829268,-16.829269
1548456545720,-0.311462,0.870117,0.356323,-3.231707,7.317073,-17.500000
1548456545736,-0.311646,0.868469,0.353760,-2.865854,7.621952,-17.865854
1548456545736,-0.326233,0.835388,0.352600,-3.048780,7.500000,-17.743902
1548456545750,-0.336792,0.821594,0.357483,-2.743902,6.890244,-17.987804
1548456545758,-0.339783,0.835632,0.359314,-1.585366,6.951220,-18.963415
1548456545765,-0.338318,0.849854,0.357056,-1.280488,7.682927,-19.573172
1548456545782,-0.339783,0.847351,0.350647,-1.829268,7.865854,-20.000000
1548456545788,-0.347107,0.833923,0.345764,-1.951220,7.439024,-20.548780
1548456545796,-0.359070,0.828064,0.347900,-1.585366,7.134147,-21.158537
1548456545810,-0.367737,0.827209,0.346313,-0.731707,7.378049,-21.829269
1548456545818,-0.374512,0.833008,0.347168,-1.097561,7.987805,-22.682928
1548456545825,-0.373840,0.854675,0.349609,-2.195122,8.353659,-23.658537
1548456545841,-0.368530,0.876831,0.352905,-2.987805,8.902439,-24.573172
1548456545848,-0.364319,0.883911,0.358154,-3.719512,9.573171,-25.000000
1548456545855,-0.367371,0.873291,0.350647,-3.475610,9.878049,-24.817074
1548456545871,-0.374634,0.855225,0.348206,-2.256098,10.000000,-24.573172
1548456545878,-0.381531,0.853333,0.358826,-0.609756,9.939025,-24.573172
1548456545885,-0.387756,0.854309,0.370117,1.280488,9.695122,-24.390244
1548456545901,-0.398193,0.853088,0.367920,1.890244,9.085366,-24.329269
1548456545908,-0.410217,0.847778,0.363281,1.219512,8.353659,-24.390244
1548456545915,-0.417542,0.846130,0.361267,0.243902,7.987805,-24.756098
1548456545931,-0.423523,0.835388,0.357422,-0.792683,8.170732,-25.182928
1548456545938,-0.431213,0.815247,0.353088,-2.073171,8.658537,-25.487806
1548456545946,-0.440674,0.808655,0.353149,-3.597561,9.146341,-26.036587
1548456545961,-0.440613,0.832153,0.351257,-4.939024,9.207317,-27.134148
1548456545968,-0.434021,0.864380,0.352173,-6.219512,9.756098,-28.170732
1548456545975,-0.426514,0.876038,0.356140,-7.500000,10.487805,-28.292683
1548456545990,-0.422302,0.860840,0.353271,-8.048780,11.219512,-27.682928
1548456545998,-0.432434,0.822388,0.350586,-7.621952,11.402439,-27.012196
1548456546005,-0.447876,0.782227,0.348450,-6.524390,11.036586,-26.707317
1548456546020,-0.464539,0.768005,0.346863,-5.853659,10.548780,-27.073172
1548456546028,-0.476624,0.782227,0.354248,-6.524390,10.182927,-27.926830
1548456546035,-0.482422,0.815613,0.353271,-7.926829,10.060976,-28.963415
1548456546051,-0.480896,0.838745,0.347473,-9.390244,10.121951,-29.756098
1548456546058,-0.478394,0.839478,0.346802,-10.609756,10.670732,-29.695122
1548456546065,-0.476746,0.840149,0.348633,-10.000000,11.524390,-29.451220
1548456546080,-0.468811,0.862671,0.358459,-7.682927,12.317074,-29.329269
1548456546088,-0.456848,0.893616,0.363586,-4.390244,12.621951,-29.207317
1548456546095,-0.468018,0.867798,0.353210,-1.341463,12.195122,-28.353659
1548456546110,-0.493408,0.796631,0.344482,-0.243902,11.036586,-27.195122
1548456546118,-0.520874,0.755371,0.347656,0.670732,9.817074,-27.317074
1548456546126,-0.541931,0.744690,0.354797,1.890244,9.390244,-28.170732
1548456546140,-0.557617,0.749146,0.364807,1.341463,9.817074,-29.085367
1548456546148,-0.559570,0.761169,0.357056,-0.975610,10.304878,-30.182928
1548456546157,-0.556946,0.768372,0.348633,-3.902439,10.853659,-31.341465
1548456546171,-0.546875,0.773499,0.341614,-6.890244,11.829268,-32.439026
1548456546178,-0.534302,0.775757,0.338501,-8.414635,13.170732,-33.109756
1548456546186,-0.527405,0.756958,0.340271,-8.902439,14.695123,-32.987804
1548456546200,-0.529663,0.732849,0.335815,-8.475610,15.487805,-32.621952
1548456546208,-0.537903,0.721558,0.332520,-7.195122,15.304878,-33.109756
1548456546215,-0.549500,0.716919,0.331116,-6.219512,14.634147,-34.024391
1548456546230,-0.561707,0.704712,0.332458,-6.280488,14.024390,-34.573170
1548456546238,-0.578552,0.679199,0.326843,-7.256098,13.780488,-34.878048
1548456546245,-0.601807,0.636047,0.317932,-9.085366,13.902439,-35.609756
1548456546260,-0.629761,0.594238,0.315552,-11.158537,14.268293,-37.073170
1548456546268,-0.656189,0.582520,0.317566,-13.292684,14.756098,-39.451221
1548456546275,-0.664673,0.632690,0.320679,-14.878049,15.487805,-42.682926
1548456546290,-0.653137,0.715027,0.324463,-15.731708,16.829269,-45.609756
1548456546298,-0.631653,0.781067,0.329651,-16.280489,18.414635,-46.829269
1548456546305,-0.615601,0.798401,0.318542,-15.121951,19.756098,-46.585365
1548456546320,-0.607178,0.773987,0.307251,-11.768293,21.097561,-46.158539
1548456546328,-0.604309,0.760132,0.313782,-7.621952,22.926830,-45.853661
1548456546335,-0.609802,0.757324,0.323853,-2.987805,24.024391,-45.304878
1548456546350,-0.628906,0.746948,0.326843,1.097561,23.841463,-45.182926
1548456546358,-0.659668,0.726379,0.328064,3.780488,22.439024,-45.548782
1548456546366,-0.688171,0.717346,0.334167,5.792683,20.914635,-46.280487
1548456546381,-0.708374,0.717773,0.341919,7.500000,19.512196,-47.195122
1548456546388,-0.718994,0.731079,0.344360,8.048780,18.780489,-47.500000
1548456546396,-0.718811,0.744995,0.347534,7.560976,18.719513,-47.195122
1548456546410,-0.718628,0.748535,0.348816,6.829268,19.024391,-46.585365
1548456546418,-0.719604,0.733276,0.347412,6.280488,19.573172,-45.914635
1548456546425,-0.718994,0.726379,0.340088,5.487805,20.060976,-45.731709
1548456546441,-0.718567,0.730347,0.333069,4.573171,20.365854,-45.609756
1548456546448,-0.722961,0.716797,0.325012,3.475610,20.548780,-44.939026
1548456546456,-0.732544,0.681946,0.315247,2.073171,20.426830,-43.841465
1548456546471,-0.749268,0.642639,0.309692,0.060976,20.304878,-42.926830
1548456546478,-0.765442,0.624756,0.307678,-2.378049,20.060976,-42.682926
1548456546485,-0.773682,0.624634,0.304688,-5.000000,20.121952,-42.560978
1548456546500,-0.780823,0.627686,0.305542,-8.292683,20.426830,-42.073174
1548456546517,-0.783997,0.646179,0.304504,-11.646341,20.609756,-41.524391
1548456546517,-0.770081,0.678406,0.302734,-14.024390,20.792683,-40.975609
1548456546531,-0.759216,0.693237,0.302551,-15.426829,21.158537,-39.939026
1548456546538,-0.754456,0.696655,0.303345,-15.487805,21.341463,-38.658539
1548456546553,-0.754822,0.683838,0.296143,-13.475610,21.158537,-37.743904
1548456546585,-0.762024,0.665100,0.297607,-11.280488,21.280489,-37.195122
1548456546585,-0.763489,0.657898,0.300903,-9.390244,21.402439,-36.524391
1548456546585,-0.776550,0.642639,0.304199,-7.560976,21.219513,-35.487804
1548456546600,-0.795410,0.636719,0.309509,-5.426829,19.878050,-35.000000
1548456546600,-0.814270,0.639038,0.307617,-2.682927,18.414635,-34.939026
1548456546605,-0.813965,0.651062,0.305237,-0.670732,17.682928,-34.939026
1548456546621,-0.817627,0.651428,0.303162,0.426829,17.317074,-34.268295
1548456546628,-0.828064,0.648010,0.301270,1.341463,16.097561,-33.231709
1548456546635,-0.827271,0.642029,0.294495,3.414634,15.243903,-32.743904
1548456546651,-0.822144,0.624451,0.292114,4.329268,15.365854,-32.195122
1548456546657,-0.812378,0.614746,0.292236,4.512195,15.792684,-31.524391
1548456546665,-0.819702,0.588867,0.291565,4.695122,15.426829,-30.426830
1548456546680,-0.832458,0.581360,0.294312,4.817073,14.024390,-29.878050
1548456546688,-0.838379,0.584595,0.288696,4.756098,13.292684,-29.512196
1548456546695,-0.839417,0.575378,0.282776,3.353659,13.109756,-28.841465
1548456546710,-0.833801,0.570679,0.277344,1.829268,13.353659,-27.926830
1548456546717,-0.831604,0.563110,0.269409,-0.243902,13.780488,-27.134148
1548456546725,-0.838440,0.553650,0.269165,-2.926829,13.414635,-26.097561
1548456546740,-0.838440,0.555115,0.270996,-4.268293,13.170732,-25.670732
1548456546747,-0.833740,0.546570,0.264099,-5.609756,13.292684,-25.121952
1548456546755,-0.836365,0.537781,0.262268,-6.829268,13.536586,-24.512196
1548456546770,-0.839233,0.541077,0.263184,-7.621952,13.414635,-23.841463
1548456546778,-0.846558,0.546875,0.260254,-8.414635,13.231708,-23.231709
1548456546786,-0.850403,0.557739,0.259827,-8.780488,12.378049,-22.500000
1548456546801,-0.850159,0.554077,0.256409,-7.621952,12.256098,-21.890244
1548456546808,-0.846680,0.538696,0.253235,-6.585366,12.256098,-21.280489
1548456546815,-0.847107,0.536377,0.252502,-5.914634,12.134147,-20.975611
1548456546830,-0.849426,0.536133,0.254150,-5.121951,11.646341,-20.609756
1548456546838,-0.855957,0.525391,0.251892,-4.146341,10.975610,-20.121952
1548456546846,-0.864502,0.511169,0.248718,-3.109756,10.000000,-19.634148
1548456546860,-0.869446,0.504761,0.245361,-2.256098,9.573171,-19.451220
1548456546868,-0.886292,0.485474,0.237061,-2.073171,9.329268,-19.451220
1548456546876,-0.892700,0.481079,0.235168,-2.012195,8.719512,-19.268293
1548456546890,-0.893127,0.474365,0.227234,-1.341463,9.207317,-19.878050
1548456546898,-0.894775,0.461304,0.219177,-1.524390,9.512196,-20.304878
1548456546906,-0.895508,0.451721,0.217896,-1.646341,9.939025,-20.121952
1548456546920,-0.895874,0.444885,0.216858,-1.768293,10.121951,-20.000000
1548456546928,-0.897400,0.446838,0.215698,-1.768293,10.304878,-20.304878
1548456546936,-0.895081,0.449219,0.213196,-1.585366,10.609756,-20.609756
1548456546950,-0.895813,0.446472,0.209473,-1.524390,10.792684,-20.792683
1548456546959,-0.890198,0.449158,0.204346,-1.341463,11.036586,-20.975611
1548456546965,-0.890259,0.434998,0.202332,-1.646341,11.341464,-21.097561
1548456546981,-0.896423,0.424866,0.204590,-2.195122,11.036586,-20.792683
1548456546988,-0.898193,0.428162,0.199707,-1.707317,11.707317,-21.707317
1548456546996,-0.900879,0.424500,0.199768,-2.317073,12.073171,-22.439024
1548456547010,-0.906006,0.423523,0.200867,-3.536585,12.378049,-22.804878
1548456547018,-0.910339,0.424805,0.200806,-4.207317,12.256098,-22.926830
1548456547025,-0.914551,0.419128,0.201599,-4.268293,12.439025,-23.170732
1548456547041,-0.918579,0.420532,0.200378,-4.268293,12.682927,-23.658537
1548456547048,-0.923645,0.429871,0.200012,-4.329268,12.865854,-24.085367
1548456547055,-0.927246,0.430298,0.198914,-3.841464,12.682927,-24.390244
1548456547071,-0.927063,0.425476,0.197571,-2.865854,12.560976,-24.512196
1548456547078,-0.930237,0.421448,0.194580,-1.951220,12.439025,-24.756098
1548456547085,-0.932434,0.419922,0.194153,-1.158537,12.256098,-25.000000
1548456547108,-0.932129,0.419556,0.197021,-0.304878,12.012196,-25.243902
1548456547109,-0.934937,0.421326,0.196350,0.487805,11.768293,-25.182928
1548456547116,-0.936218,0.419922,0.192810,1.341463,11.402439,-25.243902
1548456547131,-0.934143,0.418518,0.190796,2.195122,10.914635,-25.182928
1548456547138,-0.936584,0.411072,0.190002,2.804878,10.670732,-25.121952
1548456547145,-0.949036,0.394653,0.189575,2.560976,9.939025,-24.390244
1548456547160,-0.946838,0.400940,0.191406,3.109756,9.756098,-24.390244
1548456547168,-0.946167,0.402466,0.185547,2.804878,10.060976,-24.878050
1548456547176,-0.945251,0.395142,0.180603,1.463415,10.121951,-24.634148
1548456547190,-0.947144,0.387207,0.180054,0.548781,9.878049,-23.902439
1548456547198,-0.945740,0.388733,0.181458,-0.304878,9.878049,-23.658537
1548456547206,-0.953064,0.379517,0.173950,-1.524390,9.695122,-23.170732
1548456547220,-0.953979,0.383545,0.175903,-2.317073,9.329268,-22.500000
1548456547229,-0.951477,0.385010,0.174377,-2.743902,9.939025,-22.439024
1548456547235,-0.949951,0.384949,0.172913,-3.597561,10.000000,-22.073172
1548456547251,-0.951416,0.383118,0.175354,-3.963415,9.817074,-21.341463
1548456547258,-0.952271,0.384888,0.177612,-4.024390,9.451220,-20.670732
1548456547266,-0.952332,0.392578,0.180969,-3.902439,9.024390,-20.304878
1548456547281,-0.952209,0.396729,0.181335,-3.292683,8.658537,-19.573172
1548456547288,-0.954773,0.388123,0.181396,-2.439024,8.048780,-18.780489
1548456547296,-0.953796,0.380127,0.181274,-1.646341,7.621952,-18.170732
1548456547310,-0.953613,0.378601,0.184631,-1.097561,7.378049,-17.682928
1548456547318,-0.955505,0.376282,0.184753,-0.609756,6.890244,-17.012196
1548456547325,-0.959656,0.371582,0.184692,-0.060976,6.280488,-16.219513
1548456547340,-0.961182,0.363586,0.185852,0.365854,5.609756,-15.426829
1548456547348,-0.964294,0.357483,0.184937,0.487805,5.121951,-14.756098
1548456547356,-0.968811,0.351990,0.183594,0.487805,4.939024,-14.146341
1548456547371,-0.970215,0.346985,0.180908,0.060976,4.756098,-13.414635
1548456547378,-0.971069,0.344299,0.177612,-0.304878,4.390244,-12.743903
1548456547385,-0.972412,0.341858,0.176086,-0.792683,4.207317,-12.073171
1548456547401,-0.970703,0.339111,0.173828,-1.097561,3.902439,-11.524390
1548456547408,-0.970581,0.334106,0.174194,-1.341463,3.719512,-10.914635
1548456547415,-0.969116,0.328918,0.172119,-1.646341,3.658537,-10.365854
1548456547430,-0.971130,0.323303,0.169495,-2.012195,3.536585,-9.939025
1548456547438,-0.973083,0.319397,0.168823,-2.317073,3.536585,-9.573171
1548456547445,-0.973816,0.315674,0.168945,-2.500000,3.353659,-9.207317
1548456547461,-0.974609,0.310547,0.169678,-2.621951,3.231707,-8.902439
1548456547468,-0.977112,0.304932,0.166321,-2.560976,3.231707,-8.658537
1548456547476,-0.977417,0.299866,0.167725,-2.378049,3.231707,-8.414635
1548456547490,-0.978149,0.300232,0.168335,-2.195122,3.109756,-8.353659
1548456547498,-0.980896,0.302368,0.169250,-2.256098,3.048780,-8.231708
1548456547513,-0.983521,0.304993,0.165527,-2.256098,3.048780,-7.926829
1548456547520,-0.985596,0.305237,0.162964,-2.012195,2.865854,-7.560976
1548456547528,-0.987305,0.305603,0.162659,-1.646341,2.682927,-7.560976
1548456547536,-0.986755,0.302856,0.158813,-1.341463,2.560976,-7.439024
1548456547551,-0.985901,0.300415,0.158752,-1.219512,2.439024,-7.500000
1548456547558,-0.985107,0.300171,0.158875,-0.731707,2.073171,-7.560976
1548456547565,-0.983521,0.296204,0.158813,-0.182927,1.646341,-7.439024
1548456547580,-0.985107,0.293457,0.159424,0.426829,1.219512,-7.317073
1548456547588,-0.985107,0.289185,0.159302,0.975610,0.975610,-7.317073
1548456547595,-0.981934,0.286255,0.159912,1.585366,0.731707,-7.317073
1548456547610,-0.982239,0.282104,0.155396,1.768293,0.365854,-7.256098
1548456547618,-0.981262,0.281067,0.154724,1.829268,0.060976,-7.317073
1548456547626,-0.980774,0.276978,0.155396,1.890244,-0.182927,-7.317073
1548456547640,-0.981812,0.276489,0.149658,1.707317,-0.365854,-7.256098
1548456547648,-0.981506,0.274841,0.148987,1.463415,-0.487805,-7.195122
1548456547656,-0.983826,0.277222,0.149597,1.097561,-0.609756,-7.073171
1548456547670,-0.986450,0.278748,0.147949,0.609756,-0.731707,-6.951220
1548456547679,-0.987976,0.280273,0.143555,0.182927,-0.914634,-6.951220
1548456547685,-0.992065,0.281982,0.141968,-0.426829,-1.036585,-6.890244
1548456547701,-0.992126,0.283752,0.139893,-0.914634,-1.097561,-6.768293
1548456547708,-0.990662,0.287415,0.138794,-1.158537,-0.975610,-6.646342
1548456547715,-0.992859,0.290283,0.136414,-1.036585,-0.975610,-6.646342
1548456547730,-0.992371,0.289795,0.137756,-0.792683,-1.097561,-6.463415
1548456547738,-0.991455,0.287537,0.133850,-0.487805,-1.036585,-6.219512
1548456547746,-0.992310,0.287170,0.134644,-0.304878,-1.097561,-6.097561
1548456547760,-0.991577,0.286560,0.132324,0.000000,-1.158537,-5.853659
1548456547768,-0.994324,0.285156,0.134888,0.243902,-1.280488,-5.609756
1548456547776,-0.995422,0.283264,0.136230,0.426829,-1.158537,-5.426829
1548456547790,-0.993103,0.282227,0.132263,0.426829,-1.158537,-5.060976
1548456547798,-0.995911,0.281067,0.129761,0.121951,-0.975610,-4.634146
1548456547805,-0.995789,0.280579,0.127319,-0.243902,-0.853659,-4.085366
1548456547821,-0.995605,0.281128,0.126038,-0.487805,-0.670732,-3.780488
1548456547828,-0.992371,0.281189,0.124207,-0.731707,-0.548781,-3.292683
1548456547836,-0.989319,0.277954,0.122742,-0.853659,-0.182927,-2.865854
1548456547851,-0.988770,0.276184,0.121521,-0.731707,0.182927,-2.560976
1548456547858,-0.990784,0.274780,0.122498,-0.243902,0.426829,-2.256098
1548456547866,-0.994141,0.271362,0.121399,0.182927,0.609756,-2.073171
1548456547881,-0.993530,0.266052,0.120117,0.426829,0.914634,-1.951220
1548456547889,-0.992798,0.264709,0.121033,0.548781,1.463415,-1.707317
1548456547896,-0.993652,0.262085,0.122192,0.609756,1.890244,-1.707317
1548456547911,-0.991882,0.258240,0.122925,0.548781,2.256098,-1.646341
1548456547918,-0.993042,0.254028,0.126831,0.426829,2.500000,-1.707317
1548456547926,-0.987976,0.251526,0.129211,0.121951,2.804878,-1.646341
1548456547940,-0.984314,0.249756,0.132507,0.121951,2.987805,-1.646341
1548456547948,-0.982544,0.248169,0.135986,0.304878,3.170732,-1.829268
1548456547956,-0.982605,0.247314,0.133240,0.487805,3.109756,-1.890244
1548456547972,-0.984741,0.244690,0.133179,0.487805,3.170732,-2.012195
1548456547978,-0.986267,0.247253,0.133484,0.365854,3.231707,-2.195122
1548456547985,-0.988953,0.248291,0.135864,0.243902,3.353659,-2.256098
1548456548001,-0.991150,0.248291,0.135559,0.182927,3.353659,-2.439024
1548456548008,-0.991455,0.247131,0.136169,0.304878,3.414634,-2.743902
1548456548016,-0.989502,0.246582,0.139465,0.670732,3.475610,-2.987805
1548456548032,-0.991211,0.245728,0.137756,1.097561,3.414634,-3.231707
1548456548038,-0.993347,0.243530,0.138123,1.585366,3.353659,-3.353659
1548456548045,-0.991333,0.240479,0.138977,1.890244,3.292683,-3.780488
1548456548060,-0.990417,0.240295,0.138123,2.134146,3.231707,-3.963415
1548456548068,-0.992859,0.238342,0.136780,2.378049,3.170732,-4.146341
1548456548075,-0.993164,0.237610,0.138184,2.439024,3.109756,-4.268293
1548456548090,-0.995239,0.235596,0.135132,2.317073,2.987805,-4.451220
1548456548098,-0.999023,0.239624,0.130737,2.012195,2.804878,-4.695122
1548456548105,-0.998718,0.239441,0.131897,1.585366,2.804878,-4.756098
1548456548121,-1.000732,0.237976,0.127441,1.036585,2.621951,-4.878049
1548456548128,-1.006042,0.238342,0.129028,0.609756,2.621951,-4.939024
1548456548135,-1.005798,0.241882,0.129333,0.243902,2.621951,-4.939024
1548456548150,-1.004822,0.242737,0.125366,0.060976,2.500000,-4.939024
1548456548158,-1.004150,0.242676,0.124146,0.121951,2.378049,-5.060976
1548456548165,-1.005859,0.241577,0.123413,0.365854,2.439024,-5.182927
1548456548181,-1.006775,0.243225,0.123596,0.609756,2.500000,-5.060976
1548456548188,-1.005920,0.244568,0.125366,0.914634,2.500000,-5.000000
1548456548195,-1.005249,0.242554,0.126099,1.341463,2.439024,-4.939024
1548456548210,-1.005615,0.240417,0.123047,1.585366,2.317073,-4.878049
1548456548219,-1.007935,0.242554,0.122681,1.463415,2.134146,-4.939024
1548456548225,-1.006287,0.240906,0.121887,1.219512,2.012195,-4.878049
1548456548240,-1.004517,0.240662,0.120239,0.792683,1.890244,-4.695122
1548456548248,-1.003662,0.242310,0.124146,0.609756,1.768293,-4.573171
1548456548255,-1.000244,0.242493,0.124451,0.487805,1.646341,-4.451220
1548456548270,-0.998108,0.242676,0.122986,0.487805,1.524390,-4.329268
1548456548278,-0.997681,0.241943,0.120789,0.487805,1.402439,-4.146341
1548456548285,-0.995483,0.243835,0.120605,0.609756,1.341463,-4.024390
1548456548301,-0.992432,0.244995,0.124329,0.731707,1.158537,-3.963415
1548456548308,-0.992432,0.244873,0.125183,0.914634,1.158537,-3.780488
1548456548315,-0.991882,0.246399,0.122009,1.219512,0.914634,-3.536585
1548456548330,-0.993103,0.244812,0.124939,1.524390,0.792683,-3.292683
1548456548338,-0.993774,0.243713,0.123596,1.829268,0.670732,-3.109756
1548456548346,-0.994995,0.242371,0.123535,1.707317,0.548781,-2.926829
1548456548361,-0.995605,0.243042,0.122009,1.463415,0.487805,-2.865854
1548456548368,-0.998291,0.247437,0.123779,1.158537,0.304878,-2.621951
1548456548376,-0.998230,0.246643,0.120544,0.731707,0.243902,-2.317073
1548456548391,-1.000366,0.245667,0.115906,0.426829,0.243902,-1.890244
1548456548398,-0.998840,0.249268,0.119812,0.304878,0.304878,-1.524390
1548456548406,-1.000366,0.249634,0.117920,0.304878,0.304878,-1.280488
1548456548420,-1.003540,0.247192,0.120056,0.670732,0.304878,-0.853659
1548456548428,-1.005249,0.245667,0.118774,1.036585,0.365854,-0.487805
1548456548435,-1.006104,0.243896,0.117676,1.036585,0.304878,-0.243902
1548456548450,-1.007507,0.243835,0.119446,1.036585,0.182927,0.060976
1548456548458,-1.007263,0.243286,0.119385,0.975610,0.121951,0.304878
1548456548466,-1.007080,0.242065,0.117249,0.731707,0.000000,0.670732
1548456548480,-1.006165,0.241943,0.117981,0.365854,-0.121951,1.036585
1548456548489,-1.006165,0.242615,0.119019,0.243902,-0.182927,1.341463
1548456548495,-1.006653,0.238525,0.118652,0.243902,-0.365854,1.829268
1548456548511,-1.007324,0.236877,0.116699,0.000000,-0.548781,1.951220
1548456548518,-1.006775,0.237488,0.118164,-0.182927,-0.609756,2.195122
1548456548525,-1.004822,0.234985,0.116455,-0.243902,-0.670732,2.378049
1548456548540,-1.004944,0.235291,0.114441,-0.304878,-0.853659,2.560976
1548456548548,-1.004272,0.233704,0.115723,-0.426829,-0.914634,2.743902
1548456548555,-1.001831,0.230103,0.113098,-0.365854,-1.036585,2.804878
1548456548570,-1.001892,0.234558,0.115601,-0.304878,-1.219512,2.926829
1548456548578,-1.001770,0.232483,0.113403,-0.304878,-1.219512,3.048780
1548456548585,-1.001404,0.229004,0.114441,-0.487805,-1.341463,3.048780
1548456548600,-1.001770,0.229553,0.112122,-0.548781,-1.524390,3.109756
1548456548608,-1.003967,0.228027,0.110779,-0.792683,-1.585366,3.109756
1548456548615,-1.004211,0.226746,0.111206,-1.158537,-1.585366,3.048780
1548456548630,-1.006531,0.229797,0.112183,-1.402439,-1.646341,2.987805
1548456548638,-1.007385,0.232727,0.110229,-1.585366,-1.585366,2.926829
1548456548646,-1.005798,0.232178,0.110291,-1.524390,-1.707317,2.987805
1548456548660,-1.005188,0.231079,0.110046,-1.524390,-1.646341,3.048780
1548456548668,-1.006897,0.232483,0.107788,-1.280488,-1.646341,3.048780
1548456548675,-1.009033,0.232849,0.108887,-1.280488,-1.585366,2.926829
1548456548690,-1.007141,0.232544,0.109802,-1.402439,-1.524390,2.804878
1548456548698,-1.007019,0.232056,0.110168,-1.280488,-1.280488,2.682927
1548456548705,-1.003723,0.231750,0.110291,-1.341463,-1.036585,2.682927
1548456548720,-1.001160,0.233948,0.110474,-1.097561,-1.036585,2.621951
1548456548728,-1.003296,0.233887,0.115173,-0.975610,-0.975610,2.560976
1548456548735,-1.008057,0.235718,0.113586,-0.914634,-0.792683,2.560976
1548456548750,-1.009766,0.235046,0.112915,-0.670732,-0.426829,2.439024
1548456548758,-1.011047,0.233887,0.112854,-0.487805,-0.121951,2.317073
1548456548766,-1.008667,0.233032,0.112183,-0.304878,0.243902,2.256098
1548456548781,-1.005371,0.231262,0.113159,-0.182927,0.426829,2.134146
1548456548788,-1.000305,0.231689,0.116882,0.000000,0.548781,2.073171
1548456548796,-0.997009,0.232666,0.116760,0.000000,0.609756,2.073171
1548456548810,-0.994141,0.232727,0.117432,0.060976,0.670732,1.951220
1548456548818,-0.992493,0.232544,0.120178,0.121951,0.609756,1.768293
1548456548825,-0.990967,0.230591,0.118408,0.182927,0.426829,1.463415
1548456548840,-0.987976,0.228943,0.118347,0.060976,0.548781,1.219512
1548456548848,-0.986633,0.233154,0.118774,-0.243902,0.670732,1.097561
1548456548856,-0.988464,0.235168,0.120911,-0.487805,0.609756,0.975610
1548456548870,-0.989258,0.234558,0.119019,-0.609756,0.487805,0.975610
1548456548878,-0.989563,0.236084,0.119141,-0.792683,0.182927,0.792683
1548456548885,-0.987732,0.236938,0.121643,-0.853659,0.060976,0.731707
1548456548900,-0.990784,0.237488,0.122192,-0.975610,-0.243902,0.670732
1548456548908,-0.994568,0.240356,0.120056,-1.158537,-0.670732,0.487805
1548456548916,-0.995911,0.241089,0.121643,-1.280488,-0.853659,0.426829
1548456548931,-0.999512,0.242798,0.120544,-1.402439,-1.036585,0.609756
1548456548939,-1.002625,0.245056,0.124329,-1.463415,-1.097561,0.792683
1548456548945,-1.002502,0.245422,0.122742,-1.280488,-1.280488,0.975610
1548456548961,-1.004517,0.247437,0.123169,-1.097561,-1.585366,1.097561
1548456548968,-1.004822,0.250610,0.124451,-0.914634,-1.951220,1.097561
1548456548976,-1.005188,0.252686,0.127747,-0.731707,-2.256098,1.280488
1548456548990,-1.004456,0.254150,0.125549,-0.731707,-2.560976,1.524390
1548456548998,-1.004883,0.258850,0.126831,-0.792683,-2.804878,1.585366
1548456549013,-1.005005,0.260742,0.127136,-0.670732,-3.109756,1.890244
1548456549020,-1.002197,0.260620,0.129456,-0.670732,-3.292683,2.317073
1548456549028,-0.999573,0.263550,0.130676,-0.426829,-3.597561,2.500000
1548456549035,-0.996033,0.268188,0.133362,-0.243902,-4.024390,2.804878
1548456549050,-0.992004,0.273010,0.134155,-0.182927,-4.451220,3.292683
1548456549058,-0.989014,0.276184,0.136719,-0.304878,-4.817073,3.780488
1548456549065,-0.988586,0.280762,0.135925,-0.426829,-5.182927,4.268293
1548456549080,-0.988831,0.286560,0.137268,-0.548781,-5.487805,4.817073
1548456549088,-0.987488,0.288879,0.141052,-0.548781,-5.548780,5.487805
1548456549096,-0.984680,0.290222,0.140320,-0.304878,-5.670732,6.158537
1548456549118,-0.978210,0.290222,0.141724,-0.182927,-5.914634,6.768293
1548456549119,-0.980103,0.288208,0.141785,-0.121951,-6.219512,7.500000
1548456549126,-0.982117,0.288269,0.142090,-0.121951,-6.524390,8.109756
1548456549141,-0.983215,0.287048,0.144043,-0.304878,-6.707317,8.719512
1548456549148,-0.984375,0.287048,0.141418,-0.792683,-6.646342,9.451220
1548456549157,-0.986084,0.288879,0.142822,-1.280488,-6.707317,10.243902
1548456549171,-0.989746,0.293518,0.145325,-1.707317,-6.707317,11.036586
1548456549178,-0.989929,0.294922,0.147339,-2.317073,-6.829268,11.646341
1548456549186,-0.989624,0.294983,0.149841,-2.743902,-7.012195,12.439025
1548456549200,-0.989075,0.292358,0.149353,-2.865854,-7.256098,13.048780
1548456549208,-0.987671,0.293396,0.149353,-3.048780,-7.378049,13.658537
1548456549215,-0.991394,0.293152,0.150757,-3.231707,-7.560976,14.085366
1548456549231,-0.993774,0.293884,0.152710,-3.353659,-7.682927,14.634147
1548456549238,-0.994629,0.296021,0.153442,-3.353659,-7.804878,15.121951
1548456549245,-0.993958,0.301208,0.159180,-3.292683,-8.109756,15.487805
1548456549260,-0.989441,0.301575,0.158447,-3.170732,-8.536586,15.853659
1548456549268,-0.984192,0.300964,0.157043,-2.743902,-8.780488,16.219513
1548456549275,-0.978149,0.299377,0.159485,-2.439024,-9.146341,16.524391
1548456549290,-0.975708,0.301636,0.160339,-2.256098,-9.634147,16.646341
1548456549298,-0.973511,0.302124,0.164124,-1.768293,-10.060976,16.707317
1548456549305,-0.968933,0.304688,0.165771,-1.341463,-10.548780,16.829269
1548456549321,-0.968628,0.313599,0.165283,-1.280488,-11.036586,16.829269
1548456549328,-0.968689,0.322327,0.162476,-1.036585,-11.280488,17.012196
1548456549335,-0.963928,0.328857,0.164673,-0.548781,-11.341464,17.195122
1548456549351,-0.961365,0.333862,0.168030,-0.060976,-11.402439,17.378050
1548456549358,-0.955994,0.335693,0.170227,0.853659,-11.585366,17.560976
1548456549365,-0.955200,0.338196,0.171692,1.890244,-11.768293,17.865854
1548456549380,-0.953613,0.340027,0.179260,2.865854,-12.134147,18.231709
1548456549388,-0.954346,0.345947,0.184692,3.719512,-12.500000,18.658537
1548456549395,-0.957397,0.355225,0.187927,4.085366,-12.804878,19.146341
1548456549410,-0.960632,0.369385,0.189331,3.902439,-12.987805,19.939024
1548456549418,-0.961731,0.384583,0.192444,3.658537,-13.292684,20.670732
1548456549425,-0.960266,0.393677,0.193298,3.475610,-13.292684,21.646341
