timestamp, accel_x, accel_y, accel_z, gyro_x, gyro_y, gyro_z
1548456189446,-0.268799,-0.963257,0.213440,-0.731707,-0.609756,1.463415
1548456189461,-0.270447,-0.969299,0.216187,-1.219512,-0.487805,1.341463
1548456189462,-0.269409,-0.968628,0.213928,-1.768293,-0.548781,1.158537
1548456189463,-0.268372,-0.968262,0.212280,-2.317073,-0.548781,0.914634
1548456189477,-0.270386,-0.968933,0.211121,-2.621951,-0.670732,0.731707
1548456189484,-0.271362,-0.968262,0.210205,-2.865854,-0.670732,0.609756
1548456189515,-0.268677,-0.966614,0.208008,-3.048780,-0.670732,0.304878
1548456189521,-0.267761,-0.965942,0.207214,-3.292683,-0.670732,0.365854
1548456189522,-0.267761,-0.967957,0.207031,-3.292683,-0.670732,0.609756
1548456189523,-0.268188,-0.967468,0.205627,-3.048780,-0.548781,0.853659
1548456189537,-0.268066,-0.966858,0.207153,-2.865854,-0.487805,0.914634
1548456189544,-0.267334,-0.966858,0.204712,-2.743902,-0.670732,0.975610
1548456189574,-0.268005,-0.967590,0.203247,-2.804878,-0.609756,1.036585
1548456189575,-0.269653,-0.968140,0.204956,-2.560976,-0.609756,1.402439
1548456189575,-0.272705,-0.967102,0.203125,-2.500000,-0.670732,1.707317
1548456189589,-0.275391,-0.966553,0.204956,-2.682927,-0.670732,1.585366
1548456189596,-0.274902,-0.965271,0.204102,-2.804878,-0.670732,1.097561
1548456189626,-0.272583,-0.965515,0.200867,-2.743902,-0.670732,0.548781
1548456189627,-0.272766,-0.966248,0.200134,-2.439024,-0.731707,-0.182927
1548456189628,-0.271790,-0.966187,0.199219,-2.073171,-0.731707,-0.731707
1548456189634,-0.267761,-0.966431,0.201843,-1.646341,-0.792683,-1.219512
1548456189649,-0.265564,-0.969788,0.199768,-1.463415,-0.792683,-1.341463
1548456189657,-0.265259,-0.969849,0.205505,-1.280488,-0.914634,-1.036585
1548456189686,-0.266052,-0.972046,0.204712,-1.219512,-0.914634,-0.609756
1548456189687,-0.265991,-0.972412,0.201843,-1.524390,-0.853659,-0.182927
1548456189687,-0.267395,-0.970703,0.205261,-2.134146,-0.975610,0.182927
1548456189694,-0.268188,-0.969849,0.199951,-2.682927,-0.914634,0.609756
1548456189709,-0.268494,-0.968872,0.196716,-3.048780,-0.670732,0.975610
1548456189739,-0.268066,-0.968079,0.199097,-3.048780,-0.609756,1.158537
1548456189739,-0.269714,-0.969971,0.196228,-2.743902,-0.609756,1.280488
1548456189740,-0.270264,-0.968933,0.192688,-2.378049,-0.548781,1.829268
1548456189746,-0.273132,-0.966553,0.193665,-1.768293,-0.548781,2.378049
1548456189754,-0.274963,-0.963257,0.194397,-1.219512,-0.609756,2.560976
1548456189806,-0.276306,-0.965820,0.193665,-0.731707,-0.731707,2.256098
1548456189807,-0.274963,-0.965820,0.192993,-0.304878,-0.853659,1.707317
1548456189807,-0.273865,-0.967712,0.196350,0.243902,-0.853659,1.158537
1548456189851,-0.271423,-0.967590,0.196472,0.731707,-0.853659,0.609756
1548456189852,-0.269470,-0.968689,0.196594,1.097561,-0.914634,0.182927
1548456189852,-0.268433,-0.970276,0.196289,1.463415,-0.975610,0.060976
1548456189859,-0.269409,-0.970398,0.198669,1.829268,-0.975610,0.365854
1548456189860,-0.271057,-0.970459,0.197266,1.951220,-0.975610,0.853659
1548456189860,-0.273743,-0.968750,0.198425,1.951220,-0.975610,1.219512
1548456189866,-0.276245,-0.966919,0.198181,1.768293,-0.792683,1.341463
1548456189867,-0.274841,-0.966248,0.196655,1.829268,-0.670732,1.158537
1548456189874,-0.277283,-0.966919,0.196594,2.134146,-0.548781,0.792683
1548456189904,-0.276123,-0.966431,0.196594,2.743902,-0.426829,0.426829
1548456189911,-0.274963,-0.965637,0.197144,3.414634,-0.365854,0.000000
1548456189912,-0.275391,-0.969177,0.202026,3.780488,-0.365854,-0.182927
1548456189913,-0.276001,-0.971008,0.205566,3.963415,-0.365854,-0.426829
1548456189926,-0.274292,-0.969666,0.206665,3.597561,-0.365854,-0.853659
1548456189964,-0.271057,-0.971313,0.205750,3.048780,-0.304878,-1.341463
1548456189964,-0.271606,-0.968933,0.207764,2.195122,-0.426829,-1.768293
1548456189965,-0.270203,-0.969788,0.206787,1.463415,-0.487805,-2.012195
1548456189971,-0.272339,-0.968750,0.203552,0.792683,-0.243902,-2.073171
1548456189979,-0.270325,-0.970886,0.202515,0.487805,-0.121951,-1.951220
1548456190016,-0.269470,-0.970032,0.200684,0.426829,-0.121951,-1.951220
1548456190024,-0.269775,-0.971069,0.205139,0.487805,0.000000,-2.073171
1548456190031,-0.270325,-0.973572,0.208069,0.182927,0.060976,-2.134146
1548456190032,-0.269043,-0.972473,0.207275,-0.365854,0.182927,-2.073171
1548456190032,-0.268005,-0.970947,0.209351,-1.036585,0.243902,-2.012195
1548456190039,-0.270386,-0.971375,0.206848,-1.951220,0.609756,-1.829268
1548456190061,-0.270203,-0.968445,0.203430,-2.804878,0.853659,-1.890244
1548456190077,-0.268127,-0.966980,0.197266,-3.292683,0.975610,-1.890244
1548456190077,-0.266296,-0.968018,0.196899,-3.353659,1.219512,-2.012195
1548456190078,-0.266907,-0.970337,0.198608,-3.048780,1.341463,-2.012195
1548456190084,-0.267761,-0.974609,0.204834,-2.560976,1.219512,-2.134146
1548456190099,-0.266113,-0.972839,0.205811,-2.621951,1.341463,-2.073171
1548456190129,-0.266968,-0.971558,0.200928,-3.414634,1.524390,-1.951220
1548456190129,-0.265259,-0.968018,0.192688,-4.329268,1.646341,-1.951220
1548456190130,-0.265503,-0.968689,0.193115,-4.634146,1.585366,-2.134146
1548456190136,-0.265869,-0.968689,0.193176,-4.329268,1.585366,-2.195122
1548456190144,-0.267334,-0.968628,0.192566,-3.719512,1.768293,-2.073171
1548456190166,-0.265930,-0.970215,0.191895,-3.414634,1.829268,-2.012195
1548456190167,-0.267517,-0.970703,0.185608,-3.048780,1.890244,-1.951220
1548456190181,-0.266785,-0.972351,0.187439,-2.621951,1.463415,-2.195122
1548456190189,-0.265747,-0.973389,0.193970,-1.829268,1.158537,-2.804878
1548456190196,-0.260559,-0.973816,0.193726,-0.975610,1.097561,-3.475610
1548456190204,-0.257690,-0.972473,0.194397,-0.975610,1.219512,-3.536585
1548456190242,-0.256042,-0.972351,0.189575,-1.402439,1.341463,-3.231707
1548456190257,-0.258606,-0.969971,0.185425,-1.890244,1.524390,-2.621951
1548456190257,-0.264709,-0.968079,0.183899,-1.890244,1.768293,-2.134146
1548456190257,-0.267151,-0.970520,0.182617,-1.036585,1.768293,-2.195122
1548456190309,-0.265320,-0.971924,0.186279,0.243902,1.707317,-2.743902
1548456190309,-0.263855,-0.976135,0.191223,1.402439,1.463415,-3.536585
1548456190310,-0.260132,-0.976013,0.195068,2.134146,1.280488,-4.268293
1548456190316,-0.260254,-0.976624,0.197388,2.012195,1.280488,-4.939024
1548456190324,-0.256897,-0.975769,0.199036,1.036585,1.097561,-5.487805
1548456190325,-0.252197,-0.974915,0.194519,-0.060976,1.097561,-5.853659
1548456190339,-0.251099,-0.974365,0.189514,-1.219512,1.219512,-5.792683
1548456190339,-0.250244,-0.976196,0.187561,-2.012195,1.280488,-5.426829
1548456190340,-0.247437,-0.977112,0.188660,-1.951220,1.219512,-4.939024
1548456190354,-0.244385,-0.978027,0.190002,-1.585366,1.280488,-4.085366
1548456190354,-0.243958,-0.982422,0.190613,-1.524390,1.524390,-2.987805
1548456190369,-0.241821,-0.980042,0.188477,-1.768293,1.829268,-1.646341
1548456190376,-0.242798,-0.979187,0.185181,-1.829268,2.073171,-0.060976
1548456190391,-0.244263,-0.978577,0.186768,-1.890244,2.134146,1.402439
1548456190399,-0.248291,-0.972717,0.182922,-1.951220,2.073171,2.804878
1548456190406,-0.252563,-0.970947,0.175842,-2.134146,2.073171,3.841464
1548456190414,-0.254333,-0.967957,0.172668,-1.768293,2.073171,4.512195
1548456190429,-0.254333,-0.966003,0.174927,0.121951,1.951220,4.695122
1548456190437,-0.254883,-0.968079,0.173279,2.317073,1.646341,4.695122
1548456190452,-0.254944,-0.968811,0.175598,4.512195,1.158537,4.817073
1548456190459,-0.255920,-0.969727,0.179321,6.646342,0.731707,4.817073
1548456190466,-0.259705,-0.972656,0.185974,8.414635,0.121951,4.634146
1548456190474,-0.261169,-0.968323,0.186523,9.512196,-0.426829,4.146341
1548456190489,-0.264038,-0.964539,0.184937,9.756098,-0.792683,3.597561
1548456190496,-0.267578,-0.963989,0.185730,10.060976,-1.036585,3.048780
1548456190512,-0.269653,-0.967773,0.191040,11.341464,-1.341463,2.378049
1548456190534,-0.270142,-0.974915,0.205017,13.109756,-1.890244,1.280488
1548456190534,-0.267395,-0.979553,0.217712,13.780488,-2.378049,-0.182927
1548456190535,-0.266235,-0.980103,0.222595,12.621951,-2.378049,-1.341463
1548456190556,-0.261353,-0.981873,0.222412,10.365854,-2.195122,-2.134146
1548456190557,-0.259827,-0.981873,0.226379,7.743903,-1.829268,-2.621951
1548456190564,-0.260803,-0.980164,0.226990,4.695122,-1.524390,-2.743902
1548456190586,-0.257690,-0.976807,0.217712,1.158537,-0.975610,-2.682927
1548456190587,-0.258606,-0.973572,0.211609,-1.890244,-0.426829,-2.378049
1548456190594,-0.257141,-0.971802,0.204712,-4.146341,0.365854,-1.829268
1548456190609,-0.259216,-0.971130,0.199402,-5.304878,0.975610,-1.341463
1548456190616,-0.254883,-0.971558,0.198975,-5.060976,1.280488,-1.341463
1548456190624,-0.251404,-0.967712,0.195862,-4.085366,1.524390,-1.219512
1548456190639,-0.249329,-0.961792,0.185059,-3.597561,1.524390,-0.853659
1548456190646,-0.255127,-0.953979,0.177612,-3.109756,1.585366,0.000000
1548456190654,-0.259338,-0.952454,0.173279,-1.280488,1.036585,0.609756
1548456190669,-0.262085,-0.965027,0.181335,2.195122,0.243902,0.365854
1548456190677,-0.263733,-0.973877,0.203735,6.219512,-0.792683,-0.609756
1548456190684,-0.256592,-0.977844,0.213928,9.268292,-1.890244,-2.317073
1548456190699,-0.250610,-0.971741,0.207092,9.207317,-2.195122,-3.475610
1548456190707,-0.254456,-0.963440,0.202026,7.865854,-2.500000,-3.597561
1548456190714,-0.255188,-0.961426,0.202820,7.560976,-2.500000,-3.170732
1548456190729,-0.254456,-0.968384,0.204224,8.109756,-2.500000,-3.109756
1548456190737,-0.252808,-0.974854,0.213074,9.085366,-2.621951,-3.414634
1548456190744,-0.247620,-0.979248,0.221680,10.304878,-2.682927,-3.902439
1548456190759,-0.244019,-0.984985,0.229492,10.243902,-2.621951,-4.085366
1548456190767,-0.241272,-0.981689,0.233398,8.780488,-2.439024,-3.353659
1548456190774,-0.243652,-0.975586,0.229980,6.585366,-2.073171,-2.134146
1548456190789,-0.246521,-0.969177,0.219910,3.902439,-1.829268,-0.548781
1548456190804,-0.249573,-0.964783,0.212524,2.073171,-1.341463,0.548781
1548456190804,-0.250977,-0.965332,0.206787,1.646341,-1.036585,1.097561
1548456190819,-0.253479,-0.971008,0.212830,2.317073,-0.670732,1.341463
1548456190827,-0.251831,-0.976196,0.225891,3.963415,-0.792683,1.036585
1548456190834,-0.249512,-0.973877,0.227905,4.695122,-0.914634,0.487805
1548456190849,-0.243408,-0.962830,0.219666,3.475610,-0.853659,0.243902
1548456190856,-0.255920,-0.982544,0.223755,2.012195,-0.853659,0.731707
1548456190864,-0.243408,-0.947388,0.201721,1.036585,-3.292683,1.036585
1548456190879,-0.254944,-0.972961,0.225525,3.231707,0.426829,1.585366
1548456190886,-0.250610,-0.960388,0.215698,3.536585,-2.195122,1.097561
1548456190894,-0.248840,-0.974304,0.221863,4.329268,-0.853659,1.280488
1548456190909,-0.251770,-0.971497,0.218933,4.573171,-2.256098,1.036585
1548456190917,-0.241577,-0.975281,0.227173,5.182927,-1.646341,1.158537
1548456190924,-0.254395,-0.978516,0.242310,6.463415,-1.341463,1.402439
1548456190939,-0.244446,-0.973389,0.231689,4.939024,-2.500000,1.829268
1548456190946,-0.251038,-0.967773,0.227173,2.378049,-1.829268,2.317073
1548456190954,-0.256348,-0.960266,0.218201,0.792683,-2.073171,3.292683
1548456190976,-0.251282,-0.966370,0.221436,1.036585,-0.975610,3.963415
1548456190977,-0.262634,-0.959778,0.223450,2.134146,-0.792683,3.536585
1548456190984,-0.256958,-0.972595,0.232544,2.865854,-0.975610,3.109756
1548456190999,-0.249390,-0.974731,0.236450,3.475610,-0.304878,2.804878
1548456191007,-0.248230,-0.975220,0.240723,2.926829,0.060976,2.682927
1548456191014,-0.257446,-0.970215,0.230469,1.036585,-1.463415,2.560976
1548456191029,-0.261536,-0.957092,0.218567,-1.463415,-2.317073,2.682927
1548456191036,-0.253052,-0.971436,0.228149,-1.341463,-0.304878,3.048780
1548456191044,-0.260620,-0.967773,0.230225,0.060976,-0.182927,3.170732
1548456191059,-0.254456,-0.969849,0.229065,-0.548781,-0.914634,2.804878
1548456191066,-0.254944,-0.977356,0.237549,-0.792683,-0.304878,2.865854
1548456191089,-0.257263,-0.973511,0.238281,-1.219512,-0.487805,3.353659
1548456191090,-0.253479,-0.971497,0.230530,-2.926829,-0.426829,3.536585
1548456191096,-0.254211,-0.968201,0.229675,-4.573171,-0.121951,3.780488
1548456191104,-0.258301,-0.969604,0.226685,-5.548780,-0.121951,4.451220
1548456191119,-0.267334,-0.969116,0.228455,-6.158537,-0.243902,4.939024
1548456191126,-0.261963,-0.966858,0.218994,-6.890244,-1.097561,4.573171
1548456191141,-0.265930,-0.970093,0.225159,-7.560976,0.975610,4.756098
1548456191179,-0.261414,-0.966492,0.213928,-7.804878,0.060976,4.451220
1548456191179,-0.264099,-0.971191,0.224854,-7.804878,1.768293,4.817073
1548456191180,-0.266296,-0.963745,0.216980,-7.865854,0.792683,4.390244
1548456191186,-0.262939,-0.963623,0.205017,-9.085366,0.487805,4.268293
1548456191201,-0.266724,-0.962341,0.203308,-9.207317,0.914634,4.390244
1548456191209,-0.270264,-0.959656,0.202698,-7.926829,0.914634,4.451220
1548456191210,-0.270691,-0.960571,0.200745,-6.646342,0.792683,4.451220
1548456191216,-0.268738,-0.964966,0.198608,-5.548780,0.853659,4.268293
1548456191224,-0.269409,-0.965576,0.203979,-3.963415,0.731707,3.902439
1548456191239,-0.268433,-0.964844,0.206177,-2.317073,0.182927,3.353659
1548456191246,-0.268799,-0.963135,0.201843,-1.768293,-0.182927,3.170732
1548456191254,-0.270508,-0.959167,0.195312,-1.402439,-0.426829,3.231707
1548456191269,-0.273865,-0.960022,0.198303,-0.243902,-0.548781,3.414634
1548456191277,-0.274963,-0.963684,0.200867,1.524390,-0.792683,3.414634
1548456191291,-0.277100,-0.963318,0.203796,3.231707,-1.036585,3.231707
1548456191299,-0.277527,-0.965515,0.208191,4.634146,-1.097561,2.743902
1548456191306,-0.278931,-0.965820,0.210571,5.243903,-1.097561,2.073171
1548456191314,-0.279724,-0.965515,0.214111,5.182927,-1.097561,1.280488
1548456191329,-0.274414,-0.968750,0.219727,5.000000,-1.280488,0.426829
1548456191337,-0.275269,-0.969421,0.222107,4.634146,-1.158537,-0.243902
1548456191352,-0.273743,-0.970703,0.220642,3.597561,-1.097561,-0.792683
1548456191360,-0.271729,-0.972046,0.221924,2.256098,-1.097561,-1.097561
1548456191367,-0.270142,-0.971985,0.222717,1.097561,-0.731707,-1.158537
1548456191374,-0.267273,-0.972717,0.222412,-0.243902,-0.548781,-1.036585
1548456191389,-0.265442,-0.971924,0.218262,-1.829268,-0.304878,-0.670732
1548456191396,-0.269104,-0.969421,0.215393,-3.353659,0.000000,0.060976
1548456191404,-0.270691,-0.964478,0.210632,-4.512195,0.243902,0.792683
1548456191419,-0.272461,-0.966370,0.205566,-5.000000,0.426829,1.280488
1548456191426,-0.273560,-0.967468,0.202881,-4.939024,0.487805,1.219512
1548456191434,-0.269470,-0.966797,0.203308,-4.207317,0.365854,0.975610
1548456191449,-0.266968,-0.966248,0.203918,-3.170732,0.121951,0.853659
1548456191457,-0.267395,-0.963257,0.202148,-2.560976,-0.121951,1.097561
1548456191464,-0.273254,-0.961670,0.200439,-2.012195,-0.243902,1.463415
1548456191479,-0.273682,-0.960449,0.197632,-1.585366,-0.548781,1.951220
1548456191486,-0.274841,-0.961060,0.199402,-0.609756,-0.365854,2.256098
1548456191494,-0.273926,-0.962463,0.201294,0.975610,-0.548781,2.256098
1548456191509,-0.271179,-0.964600,0.202576,2.317073,-0.609756,2.012195
1548456191516,-0.270813,-0.964294,0.201538,3.414634,-0.731707,2.012195
1548456191524,-0.274597,-0.965454,0.204163,4.146341,-0.731707,2.378049
1548456191539,-0.276917,-0.964355,0.207886,4.634146,-0.853659,2.621951
1548456191546,-0.272278,-0.964966,0.208130,5.304878,-1.280488,2.560976
1548456191554,-0.277771,-0.961304,0.207031,5.365854,-1.219512,2.256098
1548456191569,-0.294373,-0.960022,0.211670,5.365854,-1.524390,2.621951
1548456191577,-0.267700,-0.966248,0.208923,5.731708,-1.036585,2.378049
1548456191584,-0.286499,-0.968140,0.219421,6.036585,-0.914634,0.609756
1548456191599,-0.287903,-0.970642,0.232361,6.829268,-1.463415,1.402439
1548456191606,-0.279358,-0.969177,0.225769,6.036585,-0.670732,0.365854
1548456191614,-0.284790,-0.965027,0.224060,3.292683,-0.609756,-0.792683
1548456191629,-0.281494,-0.968445,0.226990,1.585366,-0.365854,-1.097561
1548456191636,-0.275513,-0.969177,0.224365,0.304878,-0.243902,-2.134146
1548456191644,-0.274902,-0.969666,0.225098,-1.036585,-0.121951,-2.682927
1548456191659,-0.275391,-0.969788,0.222961,-2.621951,0.182927,-2.560976
1548456191667,-0.265564,-0.968384,0.216064,-4.146341,0.853659,-2.682927
1548456191674,-0.275696,-0.962524,0.207947,-5.243903,0.853659,-2.317073
1548456191689,-0.270569,-0.964233,0.205505,-5.182927,0.609756,-1.341463
1548456191697,-0.267212,-0.965271,0.204102,-4.207317,0.731707,-1.646341
1548456191704,-0.273010,-0.962524,0.206299,-3.231707,0.426829,-1.524390
1548456191719,-0.275818,-0.958374,0.204407,-2.256098,-0.060976,-0.914634
1548456191734,-0.275757,-0.957886,0.198547,-1.463415,-0.243902,-0.853659
1548456191734,-0.275208,-0.957520,0.199341,-0.243902,-0.487805,-1.280488
1548456191749,-0.276062,-0.961914,0.205200,1.158537,-0.731707,-1.951220
1548456191756,-0.268005,-0.966614,0.209351,2.743902,-0.975610,-2.621951
1548456191764,-0.260254,-0.972534,0.215027,3.963415,-1.097561,-3.292683
1548456191779,-0.260498,-0.973694,0.217468,4.085366,-1.524390,-3.109756
1548456191787,-0.262878,-0.971924,0.218567,3.414634,-1.707317,-1.524390
1548456191794,-0.263916,-0.968201,0.214844,2.560976,-1.463415,0.121951
1548456191809,-0.273071,-0.969788,0.217163,1.768293,-1.280488,1.219512
1548456191816,-0.273010,-0.967285,0.216431,1.524390,-1.341463,1.951220
1548456191824,-0.271912,-0.966736,0.214966,1.402439,-1.280488,1.585366
1548456191839,-0.273499,-0.967285,0.216370,1.463415,-1.036585,1.219512
1548456191846,-0.270203,-0.968018,0.218567,1.524390,-1.219512,0.731707
1548456191854,-0.273621,-0.969421,0.222229,1.036585,-1.097561,0.487805
1548456191869,-0.285217,-0.958618,0.210205,0.060976,-3.292683,-0.243902
1548456191876,-0.278259,-0.967773,0.219116,-0.609756,-1.036585,0.487805
1548456191884,-0.263428,-0.969910,0.212463,-0.060976,0.914634,0.000000
1548456191899,-0.286255,-0.963501,0.213928,-0.548781,-0.304878,-0.609756
1548456191906,-0.264343,-0.965698,0.210632,-0.365854,0.121951,0.182927
1548456191914,-0.264282,-0.970032,0.212952,0.548781,1.646341,-0.670732
1548456191936,-0.272949,-0.965149,0.209778,0.487805,-0.914634,-1.402439
1548456191937,-0.269409,-0.966431,0.210510,0.731707,-1.097561,-0.548781
1548456191944,-0.268250,-0.968628,0.216003,1.402439,-0.304878,-0.365854
1548456191951,-0.271729,-0.965088,0.215820,1.585366,-0.426829,-0.304878
1548456191967,-0.271118,-0.966980,0.213684,1.036585,-0.914634,-0.548781
1548456191981,-0.268921,-0.966492,0.214722,0.731707,-0.792683,-0.487805
1548456191982,-0.271912,-0.966614,0.216614,0.670732,-0.792683,-0.426829
1548456191997,-0.270142,-0.967041,0.215820,0.548781,-0.792683,-0.670732
1548456192004,-0.266968,-0.966919,0.213562,0.487805,-0.731707,-0.853659
1548456192012,-0.266357,-0.969116,0.214905,0.365854,-0.792683,-0.914634
1548456192034,-0.268372,-0.969788,0.218750,0.243902,-0.670732,-0.670732
1548456192035,-0.270691,-0.968567,0.219055,0.060976,-0.609756,-0.243902
1548456192042,-0.269592,-0.966125,0.215698,-0.731707,-0.548781,-0.060976
1548456192057,-0.267395,-0.966125,0.211365,-1.402439,-0.365854,-0.182927
1548456192064,-0.267761,-0.963440,0.212524,-1.646341,-0.304878,-0.243902
1548456192072,-0.267517,-0.965820,0.211914,-1.585366,-0.365854,-0.121951
1548456192087,-0.268066,-0.966553,0.212585,-1.036585,-0.487805,-0.121951
1548456192094,-0.265015,-0.967224,0.212463,-0.609756,-0.609756,0.000000
1548456192101,-0.266296,-0.965881,0.213623,-0.487805,-0.609756,0.365854
1548456192116,-0.266785,-0.966797,0.210510,-0.548781,-0.609756,0.731707
1548456192124,-0.266541,-0.964661,0.207092,-0.426829,-0.670732,1.036585
1548456192139,-0.267944,-0.963623,0.208679,-0.243902,-0.670732,1.280488
1548456192146,-0.270325,-0.963013,0.206482,0.304878,-0.853659,1.463415
1548456192154,-0.271667,-0.964111,0.206543,0.914634,-0.975610,1.524390
1548456192161,-0.274353,-0.966064,0.212036,1.463415,-1.036585,1.341463
1548456192176,-0.274597,-0.967529,0.216858,2.256098,-1.219512,1.097561
1548456192184,-0.273743,-0.967468,0.216675,2.560976,-1.158537,0.792683
1548456192192,-0.273743,-0.966675,0.216187,2.439024,-1.219512,0.243902
1548456192206,-0.271851,-0.967590,0.214844,2.012195,-1.036585,-0.121951
1548456192214,-0.269958,-0.968201,0.215149,1.463415,-0.853659,-0.304878
1548456192221,-0.269470,-0.966675,0.216003,0.609756,-0.792683,-0.243902
1548456192236,-0.269470,-0.967468,0.214111,0.243902,-0.609756,-0.182927
1548456192244,-0.269653,-0.966675,0.214050,0.060976,-0.548781,-0.060976
1548456192251,-0.268372,-0.964478,0.211609,-0.060976,-0.487805,0.000000
1548456192266,-0.271667,-0.963867,0.212646,0.243902,-0.487805,0.000000
1548456192274,-0.270813,-0.965637,0.213623,0.487805,-0.670732,0.000000
1548456192282,-0.270447,-0.966370,0.214661,0.731707,-0.853659,-0.243902
1548456192296,-0.267761,-0.966431,0.214050,0.975610,-1.036585,-0.548781
1548456192304,-0.267578,-0.964905,0.215576,1.219512,-0.975610,-0.792683
1548456192312,-0.264648,-0.967896,0.219604,1.158537,-1.036585,-0.853659
1548456192334,-0.265503,-0.968445,0.218811,0.792683,-0.914634,-0.487805
1548456192335,-0.268494,-0.969299,0.219299,0.243902,-0.792683,-0.243902
1548456192349,-0.267456,-0.970459,0.219971,-0.182927,-0.731707,0.121951
1548456192357,-0.268127,-0.969604,0.220093,-0.487805,-0.670732,0.243902
1548456192364,-0.267273,-0.968811,0.218750,-0.975610,-0.609756,0.304878
1548456192371,-0.266052,-0.969299,0.214172,-1.585366,-0.487805,0.365854
1548456192394,-0.264954,-0.967529,0.214050,-2.012195,-0.426829,0.487805
1548456192402,-0.267151,-0.967529,0.213623,-2.256098,-0.304878,0.914634
1548456192409,-0.267883,-0.967163,0.214294,-2.621951,-0.243902,1.463415
1548456192417,-0.270203,-0.964294,0.210693,-2.987805,-0.121951,1.768293
1548456192424,-0.272827,-0.964600,0.206055,-3.109756,-0.121951,1.768293
1548456192431,-0.270325,-0.965210,0.205872,-2.865854,-0.121951,1.524390
1548456192446,-0.271240,-0.964905,0.206726,-2.073171,-0.243902,1.158537
1548456192454,-0.273315,-0.964600,0.206543,-1.463415,-0.304878,0.792683
1548456192461,-0.271484,-0.967102,0.206482,-1.158537,-0.365854,0.426829
1548456192476,-0.270447,-0.965210,0.208374,-0.670732,-0.426829,0.182927
1548456192484,-0.268677,-0.967285,0.212524,-0.243902,-0.487805,0.000000
1548456192492,-0.268677,-0.969299,0.209106,-0.304878,-0.548781,-0.121951
1548456192506,-0.270142,-0.968323,0.208557,-0.731707,-0.609756,-0.121951
1548456192514,-0.269165,-0.967285,0.207642,-1.097561,-0.548781,-0.121951
1548456192522,-0.270630,-0.967224,0.207581,-1.219512,-0.548781,0.121951
1548456192536,-0.271973,-0.969299,0.209778,-1.341463,-0.609756,0.243902
1548456192544,-0.268005,-0.969116,0.210022,-1.219512,-0.548781,0.304878
1548456192552,-0.267639,-0.967712,0.207886,-1.280488,-0.426829,0.365854
1548456192566,-0.270447,-0.966309,0.206360,-1.524390,-0.365854,0.548781
1548456192574,-0.271484,-0.968811,0.204346,-1.524390,-0.304878,0.731707
1548456192581,-0.271606,-0.970398,0.206482,-1.463415,-0.304878,0.853659
1548456192597,-0.271362,-0.968628,0.209351,-1.280488,-0.426829,0.853659
1548456192604,-0.272339,-0.967468,0.207703,-1.341463,-0.487805,0.548781
1548456192612,-0.270386,-0.967224,0.204346,-1.585366,-0.548781,0.487805
1548456192627,-0.269714,-0.965698,0.203979,-1.768293,-0.548781,0.304878
1548456192634,-0.272034,-0.966309,0.203308,-1.524390,-0.609756,0.182927
1548456192642,-0.271240,-0.969055,0.203552,-1.341463,-0.731707,0.365854
1548456192657,-0.270325,-0.968140,0.203308,-1.097561,-0.548781,0.609756
1548456192664,-0.271484,-0.965576,0.200623,-0.914634,-0.487805,0.670732
1548456192671,-0.271423,-0.967163,0.201538,-0.670732,-0.609756,0.487805
1548456192686,-0.271179,-0.965759,0.200806,-0.304878,-0.670732,0.304878
1548456192694,-0.273010,-0.967407,0.202515,0.182927,-0.731707,0.182927
1548456192701,-0.273071,-0.969482,0.204895,0.365854,-0.853659,-0.060976
1548456192716,-0.271362,-0.967590,0.204712,0.487805,-0.792683,-0.426829
1548456192724,-0.270386,-0.968811,0.207886,0.731707,-0.853659,-0.853659
1548456192731,-0.269409,-0.970520,0.204224,0.853659,-0.792683,-0.975610
1548456192746,-0.266479,-0.972290,0.205750,0.853659,-0.731707,-0.914634
1548456192754,-0.264893,-0.969727,0.206482,0.670732,-0.792683,-0.792683
1548456192761,-0.266357,-0.970215,0.207031,0.304878,-0.792683,-0.426829
1548456192776,-0.269226,-0.970764,0.208862,0.060976,-0.853659,0.121951
1548456192784,-0.270447,-0.972168,0.208679,-0.182927,-0.914634,0.609756
1548456192792,-0.269226,-0.968323,0.208191,-0.670732,-0.853659,0.731707
1548456192806,-0.268982,-0.967590,0.205811,-1.097561,-0.792683,0.853659
1548456192814,-0.271606,-0.968384,0.204407,-1.524390,-0.731707,0.975610
1548456192821,-0.271484,-0.968445,0.203125,-1.585366,-0.609756,1.036585
1548456192836,-0.271240,-0.968140,0.202332,-1.524390,-0.670732,0.853659
1548456192844,-0.272278,-0.967041,0.201904,-1.646341,-0.548781,0.548781
1548456192851,-0.273010,-0.967957,0.201538,-1.707317,-0.426829,0.243902
1548456192866,-0.273193,-0.969360,0.197449,-1.707317,-0.548781,-0.182927
1548456192874,-0.270996,-0.971497,0.200684,-1.524390,-0.548781,-0.365854
1548456192882,-0.270996,-0.970764,0.201965,-1.280488,-0.487805,-0.670732
1548456192896,-0.270020,-0.969910,0.206909,-1.158537,-0.609756,-1.036585
1548456192911,-0.269409,-0.971497,0.202820,-1.219512,-0.548781,-1.341463
1548456192912,-0.269226,-0.969299,0.198792,-1.524390,-0.304878,-1.036585
1548456192926,-0.265869,-0.968872,0.201721,-1.036585,0.121951,-0.731707
1548456192934,-0.265198,-0.974792,0.204468,-0.426829,0.365854,-0.304878
1548456192941,-0.267883,-0.974304,0.203735,-0.548781,0.609756,0.609756
1548456192964,-0.270996,-0.971680,0.203613,-1.280488,0.853659,1.280488
1548456192965,-0.274963,-0.970886,0.203369,-1.707317,0.914634,1.646341
1548456192971,-0.278564,-0.969421,0.203735,-2.073171,0.914634,1.219512
1548456192986,-0.276611,-0.970032,0.203491,-2.560976,0.914634,0.304878
1548456192994,-0.270752,-0.967407,0.201294,-3.170732,0.853659,-0.914634
1548456193002,-0.267944,-0.966553,0.195679,-4.085366,0.914634,-1.707317
1548456193017,-0.263367,-0.967773,0.195068,-4.756098,1.036585,-1.829268
1548456193031,-0.259155,-0.967834,0.190002,-4.878049,1.219512,-1.219512
1548456193032,-0.260132,-0.966064,0.186523,-4.695122,1.219512,-0.121951
1548456193047,-0.261902,-0.967102,0.185913,-3.902439,1.219512,0.914634
1548456193062,-0.264587,-0.967834,0.187317,-2.865854,0.914634,1.951220
1548456193062,-0.268555,-0.969666,0.188477,-1.829268,0.548781,2.804878
1548456193076,-0.270874,-0.967896,0.188293,-1.097561,0.060976,3.414634
1548456193084,-0.271179,-0.964294,0.183960,-0.487805,-0.548781,3.475610
1548456193091,-0.273438,-0.962341,0.180664,0.182927,-0.853659,3.170732
1548456193106,-0.272461,-0.961914,0.181580,1.097561,-1.280488,2.621951
1548456193114,-0.272278,-0.966980,0.187866,2.439024,-1.646341,2.134146
1548456193121,-0.274780,-0.967224,0.192017,3.963415,-1.829268,1.951220
1548456193136,-0.274780,-0.969116,0.193909,4.817073,-1.829268,1.707317
1548456193144,-0.276489,-0.970337,0.199341,5.060976,-2.012195,1.402439
1548456193151,-0.276855,-0.970581,0.202637,4.756098,-2.073171,0.914634
1548456193166,-0.275452,-0.972168,0.203674,4.024390,-1.890244,0.426829
1548456193174,-0.273682,-0.973633,0.203491,3.353659,-1.646341,-0.060976
1548456193181,-0.270203,-0.974182,0.204285,2.743902,-1.463415,-0.243902
1548456193196,-0.269104,-0.972473,0.201050,1.890244,-1.158537,0.060976
1548456193204,-0.271667,-0.970215,0.199280,1.097561,-0.792683,0.792683
1548456193211,-0.274963,-0.969666,0.199219,0.670732,-0.548781,1.463415
1548456193234,-0.279846,-0.967957,0.201965,0.670732,-0.365854,1.585366
1548456193235,-0.282898,-0.968018,0.201233,0.243902,-0.060976,1.402439
1548456193242,-0.279846,-0.966248,0.202271,-0.426829,0.060976,0.609756
1548456193257,-0.278259,-0.964417,0.197876,-1.158537,0.000000,-0.426829
1548456193264,-0.276184,-0.962769,0.192871,-1.890244,-0.060976,-1.524390
1548456193272,-0.270142,-0.961426,0.191772,-2.500000,0.000000,-2.317073
1548456193287,-0.268921,-0.964233,0.189270,-2.378049,0.000000,-2.621951
1548456193294,-0.266846,-0.966980,0.190186,-1.890244,-0.121951,-2.439024
1548456193302,-0.265747,-0.968689,0.192322,-1.280488,-0.365854,-2.195122
1548456193317,-0.268066,-0.968872,0.193481,-1.036585,-0.609756,-2.012195
1548456193332,-0.270630,-0.966980,0.192078,-0.914634,-0.853659,-1.829268
1548456193339,-0.272888,-0.963989,0.190796,-0.731707,-1.158537,-1.768293
1548456193346,-0.275085,-0.964600,0.191162,-0.609756,-1.402439,-1.890244
1548456193354,-0.272705,-0.965332,0.189758,-0.060976,-1.585366,-2.500000
1548456193361,-0.269226,-0.966614,0.191101,0.548781,-1.768293,-3.414634
1548456193376,-0.267456,-0.968811,0.196167,1.219512,-1.951220,-4.024390
1548456193384,-0.265991,-0.973511,0.194763,1.829268,-2.012195,-4.390244
1548456193392,-0.263489,-0.974304,0.196838,2.134146,-2.195122,-4.390244
1548456193406,-0.264465,-0.974182,0.200867,1.890244,-2.134146,-4.146341
1548456193414,-0.259949,-0.971436,0.200806,1.524390,-2.073171,-3.780488
1548456193421,-0.257263,-0.973938,0.200928,0.975610,-1.951220,-3.292683
1548456193437,-0.257507,-0.972168,0.200806,0.365854,-1.829268,-2.500000
1548456193444,-0.258728,-0.972656,0.199097,-0.304878,-1.829268,-1.524390
1548456193452,-0.260925,-0.973145,0.196716,-0.975610,-1.768293,-0.670732
1548456193466,-0.262695,-0.975830,0.199463,-1.463415,-1.524390,0.000000
1548456193474,-0.265076,-0.975464,0.199524,-1.646341,-1.463415,0.121951
1548456193481,-0.264526,-0.974854,0.202148,-1.890244,-1.524390,0.060976
1548456193497,-0.266296,-0.972656,0.197571,-2.804878,-1.463415,-0.121951
1548456193511,-0.265015,-0.968689,0.194641,-4.024390,-1.463415,-0.548781
1548456193512,-0.266357,-0.970093,0.195190,-4.573171,-1.402439,-1.097561
1548456193526,-0.264587,-0.971680,0.193542,-4.939024,-1.280488,-1.402439
1548456193534,-0.263245,-0.971130,0.191345,-5.304878,-1.219512,-1.707317
1548456193541,-0.262268,-0.970947,0.190796,-5.792683,-1.219512,-1.951220
1548456193556,-0.260742,-0.971497,0.185974,-6.097561,-1.036585,-2.195122
1548456193564,-0.259094,-0.971741,0.184387,-6.036585,-1.158537,-2.317073
1548456193571,-0.261719,-0.972168,0.182800,-5.914634,-1.280488,-2.439024
1548456193587,-0.265076,-0.973511,0.183228,-5.609756,-1.280488,-2.500000
1548456193601,-0.261658,-0.972961,0.182495,-5.182927,-1.402439,-2.804878
1548456193602,-0.259460,-0.973389,0.184875,-4.756098,-1.646341,-3.475610
1548456193616,-0.256958,-0.974365,0.184692,-4.573171,-1.829268,-3.902439
1548456193624,-0.258911,-0.975891,0.184326,-4.573171,-1.890244,-3.902439
1548456193631,-0.263489,-0.975098,0.185791,-5.121951,-1.951220,-3.780488
1548456193646,-0.262939,-0.974182,0.182434,-5.670732,-1.829268,-4.146341
1548456193654,-0.260193,-0.976379,0.181641,-6.219512,-1.768293,-5.060976
1548456193662,-0.254822,-0.976868,0.181702,-6.707317,-1.829268,-6.097561
1548456193676,-0.250183,-0.977905,0.180542,-7.073171,-1.890244,-6.951220
1548456193684,-0.245056,-0.983398,0.180054,-7.682927,-1.829268,-7.256098
1548456193691,-0.242065,-0.984253,0.178223,-8.353659,-1.585366,-6.951220
1548456193714,-0.240051,-0.984314,0.177979,-9.024390,-1.341463,-6.036585
1548456193715,-0.241211,-0.987244,0.175110,-9.939025,-1.219512,-4.878049
1548456193729,-0.241028,-0.987793,0.173523,-10.853659,-1.219512,-3.719512
1548456193736,-0.244202,-0.986328,0.173706,-11.463415,-1.097561,-2.560976
1548456193744,-0.245544,-0.988586,0.173950,-12.195122,-1.158537,-1.707317
1548456193752,-0.241516,-0.987427,0.169800,-13.353659,-1.280488,-1.280488
1548456193766,-0.240112,-0.985962,0.164429,-14.573171,-1.280488,-1.036585
1548456193782,-0.241882,-0.987366,0.165039,-15.548780,-1.219512,-0.426829
1548456193789,-0.240601,-0.986816,0.159058,-16.524391,-1.097561,0.304878
1548456193796,-0.239685,-0.987915,0.155579,-17.439024,-0.792683,1.158537
1548456193804,-0.238953,-0.986511,0.149536,-18.353659,-0.609756,2.073171
1548456193811,-0.240784,-0.984863,0.142517,-19.146341,-0.365854,3.109756
1548456193827,-0.240173,-0.983521,0.138916,-19.390244,-0.243902,4.024390
1548456193834,-0.242737,-0.983582,0.135986,-19.207317,-0.426829,4.878049
1548456193841,-0.247437,-0.982971,0.134399,-18.719513,-0.548781,5.731708
1548456193857,-0.252441,-0.983032,0.127930,-18.414635,-0.853659,6.097561
1548456193864,-0.255066,-0.981323,0.125916,-17.987804,-1.036585,5.914634
1548456193871,-0.259338,-0.979431,0.121033,-17.500000,-1.341463,5.304878
1548456193887,-0.263733,-0.976929,0.118408,-16.951220,-1.463415,4.573171
1548456193894,-0.261902,-0.977722,0.114624,-16.280489,-1.707317,3.475610
1548456193902,-0.259460,-0.978027,0.111877,-15.487805,-1.280488,2.134146
1548456193917,-0.258179,-0.980591,0.111572,-14.695123,-1.036585,1.280488
1548456193924,-0.254944,-0.982178,0.109436,-14.085366,-0.914634,0.609756
1548456193932,-0.255554,-0.984619,0.106873,-13.658537,-0.670732,0.182927
1548456193946,-0.253540,-0.984192,0.104858,-13.475610,-0.365854,0.060976
1548456193954,-0.253784,-0.984009,0.103760,-13.231708,-0.304878,0.182927
1548456193961,-0.254944,-0.983215,0.099609,-12.926829,-0.365854,0.060976
1548456193976,-0.251160,-0.984375,0.095642,-12.682927,-0.487805,-0.060976
1548456193984,-0.251221,-0.984131,0.091248,-12.073171,-0.548781,-0.060976
1548456193991,-0.253601,-0.982727,0.089905,-11.097561,-0.731707,0.304878
1548456194006,-0.252319,-0.983215,0.091797,-9.939025,-0.670732,0.670732
1548456194014,-0.252380,-0.985291,0.091003,-8.902439,-0.426829,0.853659
1548456194029,-0.251648,-0.984009,0.087280,-8.109756,-0.426829,1.097561
1548456194036,-0.250366,-0.981812,0.084045,-7.317073,-0.548781,1.280488
1548456194044,-0.256897,-0.980347,0.082397,-6.402439,-0.609756,1.646341
1548456194052,-0.256226,-0.979797,0.085205,-5.243903,-0.731707,1.890244
1548456194066,-0.259705,-0.981140,0.083435,-3.902439,-0.609756,1.646341
1548456194074,-0.260376,-0.982300,0.085144,-2.865854,-0.670732,1.280488
1548456194081,-0.258667,-0.983643,0.087158,-2.012195,-0.609756,0.914634
1548456194127,-0.254089,-0.987061,0.086609,-1.158537,-0.304878,0.426829
1548456194128,-0.251892,-0.985168,0.085571,-0.487805,-0.304878,0.182927
1548456194128,-0.248718,-0.987549,0.091492,-0.060976,-0.487805,0.243902
1548456194135,-0.252075,-0.988098,0.093323,0.182927,-0.609756,0.792683
1548456194135,-0.256470,-0.988892,0.090515,-0.182927,-0.670732,1.585366
1548456194143,-0.261902,-0.985657,0.089600,-1.158537,-0.731707,2.195122
1548456194158,-0.261353,-0.981873,0.083801,-1.768293,-0.792683,2.317073
1548456194165,-0.265808,-0.980469,0.080750,-1.890244,-0.792683,1.707317
1548456194171,-0.269836,-0.979675,0.083191,-1.585366,-0.609756,0.975610
1548456194194,-0.271545,-0.978455,0.084900,-0.853659,-0.060976,0.182927
1548456194195,-0.270935,-0.981689,0.083984,-0.060976,0.487805,-0.975610
1548456194202,-0.264038,-0.984802,0.087402,0.121951,0.548781,-3.048780
1548456194217,-0.259521,-0.982605,0.088684,0.060976,0.853659,-4.939024
1548456194224,-0.251221,-0.984680,0.087402,-0.426829,0.792683,-6.097561
1548456194231,-0.248657,-0.987122,0.086060,-0.975610,0.731707,-6.829268
1548456194247,-0.246826,-0.988525,0.085205,-1.341463,0.731707,-6.768293
1548456194254,-0.242310,-0.988892,0.083008,-1.768293,0.853659,-6.158537
1548456194262,-0.241516,-0.987427,0.080444,-1.524390,0.609756,-5.548780
1548456194277,-0.239014,-0.989014,0.080078,-0.975610,0.426829,-4.878049
1548456194284,-0.239868,-0.990540,0.081665,-0.426829,0.121951,-4.085366
1548456194291,-0.242371,-0.990356,0.082214,0.182927,-0.243902,-3.170732
1548456194306,-0.240356,-0.987427,0.079407,0.548781,-0.609756,-2.317073
1548456194314,-0.241211,-0.987549,0.077820,1.036585,-0.792683,-1.463415
1548456194323,-0.239502,-0.986938,0.078064,2.134146,-0.853659,-0.609756
1548456194338,-0.241211,-0.990723,0.084167,3.414634,-1.036585,0.121951
1548456194345,-0.244019,-0.993958,0.091003,4.268293,-1.280488,0.914634
1548456194360,-0.243896,-0.993103,0.092468,4.207317,-1.280488,2.012195
1548456194367,-0.246338,-0.990784,0.094116,3.658537,-1.219512,2.804878
1548456194375,-0.249023,-0.991211,0.093506,2.926829,-1.219512,3.231707
1548456194383,-0.251709,-0.993164,0.093506,1.951220,-1.280488,3.353659
1548456194398,-0.250793,-0.990417,0.093140,0.975610,-1.097561,3.109756
1548456194405,-0.248901,-0.992432,0.089966,0.304878,-1.036585,2.804878
1548456194412,-0.250549,-0.992310,0.090637,-0.060976,-0.975610,2.804878
1548456194427,-0.250793,-0.989929,0.091980,-0.365854,-0.853659,2.926829
1548456194435,-0.252869,-0.986328,0.086609,-0.731707,-0.914634,2.865854
1548456194442,-0.256409,-0.984924,0.082153,-0.853659,-1.158537,2.804878
1548456194457,-0.256042,-0.985107,0.085022,-0.609756,-1.463415,2.500000
1548456194464,-0.252991,-0.987610,0.087463,0.000000,-1.524390,1.829268
1548456194472,-0.250610,-0.989685,0.089294,0.548781,-1.768293,1.097561
1548456194487,-0.244568,-0.993347,0.088867,0.609756,-1.890244,0.853659
1548456194495,-0.242798,-0.995911,0.089050,0.365854,-1.951220,0.914634
1548456194502,-0.244080,-0.994080,0.087952,0.121951,-2.439024,1.463415
1548456194518,-0.245911,-0.990845,0.087830,-0.182927,-2.987805,1.829268
1548456194524,-0.250366,-0.987793,0.084839,-0.304878,-3.658537,1.707317
1548456194532,-0.244690,-0.990479,0.085510,-0.609756,-3.963415,2.012195
1548456194547,-0.244324,-0.993286,0.088257,-0.243902,-4.207317,2.682927
1548456194555,-0.236877,-1.001404,0.091125,0.000000,-4.512195,3.475610
1548456194563,-0.248779,-0.992188,0.096069,0.060976,-4.817073,3.048780
1548456194577,-0.248230,-0.994629,0.092896,-1.158537,-5.914634,2.926829
1548456194585,-0.240662,-1.001648,0.094971,-2.682927,-5.975610,3.170732
1548456194592,-0.250366,-0.996521,0.095398,-3.780488,-5.731708,3.170732
1548456194608,-0.254639,-0.991516,0.093628,-5.914634,-6.280488,3.719512
1548456194615,-0.255188,-0.986938,0.087158,-7.804878,-6.341464,3.902439
1548456194623,-0.250549,-0.984070,0.082764,-9.329268,-6.036585,3.902439
1548456194637,-0.259705,-0.983826,0.077271,-9.817074,-5.487805,3.719512
1548456194644,-0.258423,-0.983826,0.079956,-9.817074,-5.243903,4.512195
1548456194651,-0.259766,-0.990173,0.079529,-9.085366,-4.268293,5.060976
1548456194666,-0.270508,-0.986938,0.081177,-8.719512,-3.719512,4.512195
1548456194674,-0.263916,-0.984131,0.078186,-9.329268,-4.512195,3.658537
1548456194682,-0.259583,-0.984192,0.074768,-10.121951,-4.634146,2.500000
1548456194697,-0.274841,-0.975769,0.068604,-10.365854,-5.304878,1.036585
1548456194705,-0.275635,-0.972229,0.063293,-10.243902,-6.097561,1.036585
1548456194712,-0.270752,-0.971985,0.062073,-9.146341,-4.695122,1.036585
1548456194728,-0.276917,-0.971191,0.063904,-7.682927,-3.658537,0.548781
1548456194735,-0.274780,-0.973511,0.061035,-6.158537,-3.353659,0.731707
1548456194742,-0.275757,-0.978760,0.064819,-4.756098,-2.439024,0.609756
1548456194757,-0.271973,-0.984253,0.068970,-4.085366,-1.463415,0.548781
1548456194765,-0.275696,-0.985474,0.073730,-4.146341,-0.914634,0.121951
1548456194773,-0.275818,-0.983154,0.069397,-5.000000,-0.975610,-0.121951
1548456194787,-0.277161,-0.978455,0.064514,-5.792683,-0.365854,-0.548781
1548456194795,-0.271179,-0.976562,0.057617,-6.158537,0.121951,-1.219512
1548456194802,-0.263428,-0.978516,0.054077,-6.158537,1.097561,-1.890244
1548456194818,-0.259644,-0.980469,0.052612,-5.609756,1.524390,-2.439024
1548456194825,-0.264954,-0.980347,0.052734,-4.695122,1.707317,-2.500000
1548456194832,-0.259705,-0.980713,0.048035,-3.536585,2.012195,-2.317073
1548456194847,-0.258240,-0.983887,0.049194,-2.500000,2.317073,-2.317073
1548456194855,-0.256104,-0.985291,0.052002,-1.036585,2.134146,-2.378049
1548456194863,-0.255005,-0.985840,0.053833,0.243902,1.768293,-2.621951
1548456194878,-0.253662,-0.985352,0.050659,1.280488,1.524390,-2.682927
1548456194885,-0.254578,-0.984436,0.051514,2.073171,1.524390,-2.621951
1548456194894,-0.259888,-0.981323,0.048401,2.865854,1.524390,-2.256098
1548456194907,-0.260559,-0.982056,0.045593,4.207317,1.890244,-1.524390
1548456194915,-0.257324,-0.986572,0.054993,6.158537,2.378049,-1.280488
1548456194923,-0.255249,-0.991455,0.062012,8.109756,2.560976,-1.341463
1548456194938,-0.253479,-0.989502,0.063232,8.963415,2.500000,-1.402439
1548456194944,-0.257202,-0.987244,0.060791,9.085366,2.439024,-1.402439
1548456194952,-0.258911,-0.988647,0.065857,9.512196,2.439024,-1.463415
1548456194967,-0.256165,-0.990234,0.069214,9.939025,2.317073,-1.768293
1548456194974,-0.254944,-0.988831,0.074402,9.756098,2.317073,-2.256098
1548456194982,-0.251587,-0.988342,0.074524,9.085366,2.500000,-2.500000
1548456194997,-0.249634,-0.990784,0.070984,8.231708,2.804878,-2.378049
1548456195012,-0.244934,-0.993530,0.072327,7.865854,3.292683,-1.585366
1548456195012,-0.244507,-0.996460,0.077209,8.048780,3.475610,-0.731707
1548456195027,-0.249817,-0.995972,0.085022,8.536586,3.170732,0.243902
1548456195035,-0.254089,-0.997742,0.092102,8.048780,3.048780,1.280488
1548456195042,-0.253723,-0.996094,0.085632,6.341464,3.292683,1.951220
1548456195057,-0.255676,-0.990906,0.082031,4.329268,3.475610,2.378049
1548456195065,-0.255066,-0.989319,0.080750,2.987805,3.780488,2.621951
1548456195072,-0.253906,-0.990906,0.080139,2.500000,3.963415,2.560976
1548456195087,-0.252441,-0.992554,0.079773,2.073171,4.085366,2.865854
1548456195094,-0.251587,-0.991394,0.075500,1.402439,4.390244,3.353659
1548456195102,-0.253540,-0.988098,0.076538,0.914634,4.695122,4.085366
1548456195124,-0.256897,-0.989502,0.076050,0.792683,4.817073,4.756098
1548456195125,-0.259583,-0.987854,0.077637,0.914634,4.878049,5.304878
1548456195132,-0.260254,-0.988342,0.077271,1.158537,4.878049,5.548780
1548456195147,-0.262634,-0.987732,0.079346,1.036585,5.060976,5.792683
1548456195154,-0.258850,-0.988403,0.078918,0.853659,5.304878,5.792683
1548456195162,-0.258484,-0.991028,0.076294,0.365854,5.670732,5.975610
1548456195177,-0.260925,-0.989197,0.074280,0.000000,5.609756,6.280488
1548456195184,-0.261841,-0.985413,0.070007,0.060976,5.487805,6.829268
1548456195192,-0.260437,-0.983948,0.067261,0.853659,5.853659,7.682927
1548456195207,-0.258362,-0.986450,0.068848,2.256098,6.036585,8.597561
1548456195214,-0.261292,-0.988586,0.075745,3.658537,5.731708,9.451220
1548456195222,-0.270935,-0.990234,0.080505,4.451220,5.304878,10.487805
1548456195236,-0.281372,-0.989197,0.083069,4.329268,5.182927,11.341464
1548456195244,-0.280457,-0.984924,0.079285,3.780488,5.609756,11.524390
1548456195251,-0.279846,-0.980042,0.071533,2.987805,5.853659,11.280488
1548456195267,-0.276428,-0.975830,0.068542,2.804878,5.670732,11.097561
1548456195274,-0.277527,-0.981873,0.071838,3.719512,5.609756,11.036586
1548456195281,-0.274170,-0.986877,0.077271,5.243903,5.243903,11.280488
1548456195297,-0.269714,-0.986755,0.079651,6.280488,5.000000,11.890244
1548456195304,-0.274292,-0.988220,0.075317,6.402439,4.939024,13.109756
1548456195311,-0.286865,-0.980835,0.068054,6.158537,4.390244,14.512196
1548456195327,-0.297119,-0.961365,0.061951,6.890244,3.963415,15.853659
1548456195334,-0.299377,-0.957214,0.064209,9.146341,4.085366,16.463415
1548456195341,-0.297241,-0.965271,0.068176,11.829268,3.902439,15.731708
1548456195356,-0.298767,-0.970276,0.071167,14.024390,3.353659,14.695123
1548456195364,-0.304871,-0.973999,0.083740,15.914635,2.073171,13.902439
1548456195371,-0.306580,-0.977051,0.090149,17.500000,1.463415,13.597561
1548456195386,-0.305969,-0.980164,0.094116,18.353659,1.829268,13.597561
1548456195394,-0.310120,-0.981567,0.098145,17.926830,1.890244,13.048780
1548456195401,-0.313477,-0.974670,0.092407,16.524391,1.890244,12.439025
1548456195416,-0.309509,-0.967224,0.088562,14.756098,2.500000,11.951220
1548456195424,-0.311951,-0.965881,0.090149,14.451220,3.109756,11.219512
1548456195431,-0.311707,-0.964478,0.099670,15.243903,2.560976,11.036586
1548456195446,-0.316589,-0.973694,0.111816,15.304878,2.195122,10.670732
1548456195454,-0.322083,-0.982788,0.120361,14.817074,1.707317,10.121951
1548456195461,-0.319092,-0.978088,0.129028,15.000000,1.097561,10.609756
1548456195476,-0.322144,-0.978638,0.127258,12.987805,0.609756,11.585366
1548456195484,-0.322937,-0.974243,0.112122,9.268292,0.121951,11.768293
1548456195491,-0.325684,-0.962036,0.102905,6.890244,0.914634,12.195122
1548456195507,-0.329590,-0.962341,0.101013,6.829268,0.975610,12.317074
1548456195514,-0.325562,-0.968933,0.101746,7.256098,0.487805,12.073171
1548456195521,-0.322571,-0.960876,0.108337,7.500000,-0.914634,11.097561
1548456195536,-0.331665,-0.956543,0.111023,7.804878,-2.621951,10.487805
1548456195544,-0.327271,-0.966431,0.092529,9.451220,-5.548780,11.036586
1548456195552,-0.332031,-0.963867,0.112427,10.000000,-5.914634,11.219512
1548456195566,-0.346252,-0.955811,0.118286,9.268292,-6.585366,10.426829
1548456195574,-0.345825,-0.960510,0.117798,9.939025,-6.280488,11.097561
1548456195581,-0.337341,-0.959412,0.132568,10.426829,-4.085366,11.646341
1548456195597,-0.331482,-0.967773,0.131470,10.914635,-3.536585,12.012196
1548456195604,-0.334778,-0.967896,0.141113,10.182927,-3.780488,12.743903
1548456195611,-0.347412,-0.969299,0.149414,9.024390,-4.878049,12.926829
1548456195626,-0.359009,-0.958679,0.153503,7.743903,-5.365854,13.658537
1548456195634,-0.369995,-0.950439,0.142395,8.536586,-5.000000,15.548780
1548456195642,-0.368835,-0.951050,0.137207,10.121951,-3.902439,17.500000
1548456195656,-0.366089,-0.951599,0.142700,12.073171,-2.500000,19.512196
1548456195664,-0.363892,-0.956665,0.140625,12.682927,-0.975610,20.548780
1548456195672,-0.365784,-0.958679,0.159912,11.829268,0.182927,20.365854
1548456195687,-0.367981,-0.960999,0.160461,11.036586,-0.487805,20.609756
1548456195695,-0.370911,-0.973389,0.161316,9.634147,-1.097561,21.768293
1548456195702,-0.367310,-0.954956,0.170105,7.012195,-1.402439,21.707317
1548456195720,-0.378357,-0.931274,0.161804,4.024390,-1.097561,20.670732
1548456195725,-0.397217,-0.927673,0.149597,3.414634,-2.439024,20.182928
1548456195732,-0.398499,-0.941162,0.157288,4.024390,-2.682927,21.280489
1548456195747,-0.384338,-0.971558,0.152039,4.573171,-1.402439,21.402439
1548456195754,-0.376526,-0.972107,0.157654,3.475610,0.426829,20.609756
1548456195762,-0.385681,-0.959900,0.156921,-0.609756,0.060976,18.292683
1548456195777,-0.403748,-0.929626,0.186829,-5.304878,-1.280488,17.987804
1548456195784,-0.433167,-0.926025,0.182068,-6.829268,-3.719512,19.634148
1548456195792,-0.436707,-0.936462,0.166626,-4.268293,-3.963415,23.780489
1548456195807,-0.421204,-0.923828,0.167969,-1.463415,-0.243902,27.743902
1548456195814,-0.427002,-0.918518,0.165710,-0.182927,1.829268,27.317074
1548456195822,-0.441406,-0.918579,0.165405,0.548781,2.012195,26.951220
1548456195837,-0.451721,-0.918152,0.172302,2.439024,2.621951,30.365854
1548456195844,-0.455994,-0.930664,0.175476,5.121951,3.597561,34.451221
1548456195852,-0.454651,-0.937012,0.175171,6.402439,5.548780,36.768295
1548456195867,-0.453003,-0.939819,0.166260,5.914634,7.560976,37.987804
1548456195874,-0.453552,-0.933289,0.159973,4.146341,9.146341,39.329269
1548456195882,-0.462219,-0.920532,0.154053,2.073171,9.878049,41.097561
1548456195897,-0.474121,-0.906189,0.154785,0.731707,10.487805,42.987804
1548456195904,-0.479309,-0.893066,0.155640,0.304878,11.097561,44.390244
1548456195919,-0.490479,-0.887207,0.154968,0.487805,11.890244,44.634148
1548456195927,-0.498657,-0.893005,0.156494,1.097561,12.500000,44.268295
1548456195934,-0.501038,-0.896973,0.160645,1.585366,13.536586,44.085365
1548456195942,-0.507019,-0.901123,0.158325,1.341463,14.146341,44.146343
1548456195957,-0.510803,-0.894836,0.154785,0.426829,14.329268,44.695122
1548456195964,-0.520020,-0.882629,0.151184,-0.975610,14.878049,45.792683
1548456195971,-0.531006,-0.874756,0.147888,-1.890244,15.609756,46.707317
1548456195986,-0.534729,-0.864075,0.147522,-1.707317,16.463415,47.439026
1548456195994,-0.538391,-0.856201,0.139038,-0.609756,17.195122,48.048782
1548456196001,-0.545410,-0.855835,0.132507,0.182927,17.378050,48.292683
1548456196017,-0.548889,-0.855286,0.132080,0.853659,17.500000,48.170734
1548456196024,-0.558044,-0.852234,0.128296,1.463415,17.317074,47.682926
1548456196031,-0.566284,-0.846558,0.125549,1.890244,16.707317,47.012196
1548456196046,-0.574402,-0.845459,0.117310,2.317073,16.158537,46.463417
1548456196054,-0.580750,-0.842773,0.116272,2.195122,15.792684,45.914635
1548456196061,-0.586243,-0.838135,0.116211,2.195122,15.609756,45.426830
1548456196077,-0.593689,-0.831665,0.114929,1.951220,15.365854,45.000000
1548456196084,-0.599060,-0.824829,0.113953,1.524390,15.000000,44.573174
1548456196091,-0.605042,-0.820435,0.113586,1.768293,14.451220,44.268295
1548456196106,-0.609741,-0.814209,0.113281,2.073171,14.024390,43.841465
1548456196114,-0.617004,-0.804199,0.112732,2.378049,13.292684,43.048782
1548456196122,-0.624573,-0.794434,0.110535,2.926829,12.560976,42.012196
1548456196136,-0.633850,-0.791321,0.111572,3.109756,11.951220,40.609756
1548456196144,-0.640381,-0.789368,0.112488,3.475610,11.646341,39.024391
1548456196151,-0.649780,-0.780212,0.112671,3.902439,11.219512,37.134148
1548456196166,-0.656128,-0.774231,0.112244,4.146341,10.914635,35.182926
1548456196174,-0.662537,-0.768372,0.108154,4.024390,10.548780,32.926830
1548456196181,-0.666992,-0.762268,0.109863,3.780488,9.939025,30.365854
1548456196196,-0.670532,-0.761353,0.112488,3.658537,9.085366,27.500000
1548456196204,-0.672058,-0.757385,0.113892,3.841464,8.231708,24.573172
1548456196211,-0.671753,-0.751160,0.111084,3.719512,7.256098,21.402439
1548456196226,-0.674255,-0.751770,0.106384,3.170732,6.280488,18.170732
1548456196241,-0.675110,-0.748230,0.105652,2.743902,5.243903,14.634147
1548456196242,-0.677979,-0.746704,0.105469,2.500000,4.024390,10.853659
1548456196256,-0.681702,-0.749817,0.107422,1.951220,2.865854,6.890244
1548456196264,-0.681885,-0.753113,0.104065,1.768293,2.073171,2.987805
1548456196272,-0.677429,-0.764160,0.104553,1.402439,1.402439,-0.487805
1548456196287,-0.674194,-0.771790,0.103271,0.670732,0.304878,-3.658537
1548456196294,-0.674744,-0.776855,0.100098,-0.426829,-1.280488,-6.402439
1548456196301,-0.675049,-0.774780,0.095703,-2.012195,-2.743902,-8.780488
1548456196317,-0.669006,-0.767944,0.093872,-3.658537,-3.719512,-10.548780
1548456196324,-0.664307,-0.767578,0.097839,-4.512195,-4.268293,-12.073171
1548456196331,-0.665222,-0.770203,0.103638,-4.024390,-4.756098,-13.414635
1548456196354,-0.666931,-0.772644,0.105652,-2.317073,-5.000000,-14.268293
1548456196355,-0.662048,-0.780029,0.105713,-0.365854,-4.817073,-14.695123
1548456196362,-0.654785,-0.789551,0.106628,0.914634,-4.756098,-15.121951
1548456196376,-0.652527,-0.798157,0.109375,1.890244,-5.000000,-15.304878
1548456196384,-0.651062,-0.799866,0.111023,2.500000,-5.609756,-15.060976
1548456196392,-0.648865,-0.797607,0.111328,2.195122,-6.219512,-14.451220
1548456196406,-0.649841,-0.796387,0.112427,1.707317,-6.585366,-13.902439
1548456196421,-0.648010,-0.802124,0.113647,1.890244,-6.951220,-13.597561
1548456196422,-0.645752,-0.811218,0.112488,2.256098,-6.768293,-13.170732
1548456196452,-0.642822,-0.818359,0.109924,2.560976,-6.707317,-12.500000
1548456196452,-0.641235,-0.819458,0.110535,2.317073,-6.707317,-11.463415
1548456196453,-0.638977,-0.811951,0.110779,1.341463,-6.951220,-10.487805
1548456196467,-0.636230,-0.807739,0.115540,0.426829,-7.378049,-9.817074
1548456196474,-0.635620,-0.803345,0.117065,0.548781,-7.743903,-9.146341
1548456196482,-0.635437,-0.800720,0.121094,1.524390,-7.621952,-8.475610
1548456196497,-0.634521,-0.799072,0.126587,3.109756,-7.500000,-7.987805
1548456196504,-0.634705,-0.802795,0.123901,4.817073,-7.134147,-7.500000
1548456196512,-0.636719,-0.809509,0.123962,6.097561,-6.951220,-7.256098
1548456196527,-0.633728,-0.809937,0.130859,6.524390,-6.646342,-6.951220
1548456196534,-0.630493,-0.808411,0.133057,6.341464,-6.585366,-6.829268
1548456196541,-0.627563,-0.803711,0.133545,5.731708,-7.073171,-6.951220
1548456196564,-0.631470,-0.799500,0.134766,5.365854,-7.621952,-7.682927
1548456196564,-0.630493,-0.797546,0.136475,5.304878,-7.926829,-8.719512
1548456196572,-0.630920,-0.803894,0.136719,5.548780,-7.987805,-9.695122
1548456196594,-0.627747,-0.811951,0.135925,5.914634,-7.865854,-10.731708
1548456196595,-0.623840,-0.819397,0.133057,5.670732,-7.560976,-11.646341
1548456196602,-0.620972,-0.820862,0.135010,5.121951,-7.560976,-12.500000
1548456196624,-0.618042,-0.817078,0.138245,4.329268,-7.926829,-13.048780
1548456196631,-0.615845,-0.813293,0.139404,3.292683,-8.719512,-13.536586
1548456196632,-0.614502,-0.812256,0.142029,2.256098,-9.573171,-14.390244
1548456196646,-0.615051,-0.812012,0.145325,2.012195,-10.000000,-15.304878
1548456196654,-0.611755,-0.817627,0.145325,2.560976,-9.512196,-16.036585
1548456196662,-0.606079,-0.820984,0.146057,3.597561,-8.597561,-16.280489
1548456196676,-0.602051,-0.824463,0.147888,4.268293,-8.170732,-16.524391
1548456196684,-0.596436,-0.823853,0.151550,4.024390,-8.536586,-17.195122
1548456196692,-0.592834,-0.822815,0.154480,3.231707,-9.329268,-18.048780
1548456196706,-0.597229,-0.825928,0.151611,3.048780,-9.939025,-18.780489
1548456196714,-0.599060,-0.830322,0.150635,3.353659,-10.243902,-19.451220
1548456196721,-0.593689,-0.836060,0.150574,3.963415,-9.817074,-19.817074
1548456196736,-0.584900,-0.835938,0.152222,4.146341,-9.268292,-20.243902
1548456196744,-0.577820,-0.836609,0.151306,3.597561,-9.390244,-20.853659
1548456196751,-0.575134,-0.838867,0.154541,3.048780,-10.121951,-21.768293
1548456196767,-0.575134,-0.840149,0.158325,3.048780,-10.548780,-22.560976
1548456196774,-0.570557,-0.843018,0.161072,3.536585,-10.548780,-22.926830
1548456196781,-0.562683,-0.851196,0.161316,3.841464,-10.426829,-22.987806
1548456196804,-0.556458,-0.855469,0.160706,4.024390,-10.609756,-23.170732
1548456196805,-0.554016,-0.857544,0.164307,3.902439,-11.097561,-23.536587
1548456196812,-0.550110,-0.855103,0.169739,3.719512,-11.585366,-23.658537
1548456196827,-0.546082,-0.856018,0.169250,3.353659,-11.951220,-23.658537
1548456196834,-0.545959,-0.859070,0.174072,3.170732,-12.256098,-23.536587
1548456196842,-0.541992,-0.860962,0.173889,3.475610,-12.317074,-23.475611
1548456196856,-0.536438,-0.862122,0.176208,3.841464,-12.134147,-23.536587
1548456196864,-0.527710,-0.866272,0.174377,4.146341,-12.073171,-23.719513
1548456196871,-0.525818,-0.869324,0.171692,4.451220,-12.073171,-23.841463
1548456196886,-0.526062,-0.871338,0.176147,4.756098,-12.256098,-23.780489
1548456196894,-0.525818,-0.872253,0.177490,4.573171,-12.439025,-23.475611
1548456196916,-0.523865,-0.873474,0.180176,3.780488,-12.560976,-23.170732
1548456196917,-0.520386,-0.872742,0.183533,3.597561,-12.500000,-23.048780
1548456196924,-0.514526,-0.871948,0.186218,4.024390,-12.256098,-22.926830
1548456196931,-0.508850,-0.874084,0.184692,5.000000,-12.195122,-22.621952
1548456196946,-0.501892,-0.875244,0.185913,5.975610,-12.134147,-22.073172
1548456196954,-0.497681,-0.881592,0.192749,6.768293,-12.195122,-21.829269
1548456196969,-0.492981,-0.885254,0.195801,7.256098,-12.378049,-21.951220
1548456196976,-0.488708,-0.892822,0.199829,7.439024,-12.500000,-22.012196
1548456196984,-0.483215,-0.897278,0.201294,7.195122,-12.439025,-21.707317
1548456196992,-0.482605,-0.897888,0.199646,6.829268,-12.134147,-21.158537
1548456197007,-0.483459,-0.898010,0.200684,5.914634,-12.256098,-20.548780
1548456197022,-0.484375,-0.896545,0.202087,5.000000,-12.378049,-20.000000
1548456197029,-0.481079,-0.893555,0.205505,4.268293,-12.500000,-19.390244
1548456197036,-0.474792,-0.894653,0.206909,4.085366,-12.378049,-18.963415
1548456197044,-0.469177,-0.889526,0.204285,5.365854,-12.134147,-18.719513
1548456197059,-0.461487,-0.885925,0.212158,7.865854,-11.585366,-18.414635
1548456197067,-0.454102,-0.896667,0.225586,9.817074,-10.975610,-17.926830
1548456197081,-0.451416,-0.913818,0.237000,10.426829,-10.426829,-17.621952
1548456197082,-0.452942,-0.918579,0.239258,9.939025,-10.365854,-17.012196
1548456197111,-0.457764,-0.911804,0.231262,8.597561,-10.304878,-15.914635
1548456197121,-0.463745,-0.903625,0.226074,7.195122,-9.817074,-14.512196
1548456197121,-0.461975,-0.899963,0.223999,6.402439,-8.597561,-13.292684
1548456197137,-0.455322,-0.902466,0.225098,6.097561,-7.195122,-12.621951
1548456197137,-0.447327,-0.904358,0.228455,5.853659,-6.341464,-12.560976
1548456197145,-0.439880,-0.910217,0.232971,5.243903,-6.463415,-12.865854
1548456197162,-0.438416,-0.909912,0.235596,4.573171,-6.951220,-13.231708
1548456197179,-0.442261,-0.908691,0.239319,3.902439,-7.256098,-13.109756
1548456197180,-0.446716,-0.908691,0.239014,3.536585,-6.951220,-12.804878
1548456197194,-0.445007,-0.909607,0.239441,3.292683,-6.097561,-12.500000
1548456197194,-0.438354,-0.909729,0.238464,2.926829,-5.000000,-12.195122
1548456197202,-0.426331,-0.906128,0.238098,2.682927,-4.085366,-12.073171
1548456197231,-0.432373,-0.915222,0.245422,2.682927,-3.658537,-12.195122
1548456197232,-0.419739,-0.907471,0.238892,2.621951,-3.414634,-12.073171
1548456197233,-0.410095,-0.913879,0.237366,2.500000,-1.951220,-11.280488
1548456197247,-0.423706,-0.916748,0.247131,0.365854,-2.804878,-12.560976
1548456197261,-0.432068,-0.915649,0.244690,-0.731707,-3.414634,-12.926829
1548456197262,-0.434692,-0.914124,0.240234,-1.524390,-3.170732,-13.109756
1548456197284,-0.424316,-0.913147,0.242004,-2.500000,-2.012195,-13.170732
1548456197291,-0.414795,-0.912842,0.243103,-3.780488,-0.548781,-13.780488
1548456197299,-0.410156,-0.915833,0.240234,-5.121951,0.243902,-14.573171
1548456197314,-0.412170,-0.914734,0.241272,-5.792683,0.548781,-15.243903
1548456197315,-0.409851,-0.909546,0.237000,-6.341464,0.487805,-15.853659
1548456197321,-0.410706,-0.911316,0.232483,-6.890244,0.731707,-16.341463
1548456197336,-0.411926,-0.913757,0.232117,-6.768293,1.280488,-16.951220
1548456197344,-0.407837,-0.914612,0.233276,-6.036585,2.256098,-17.682928
1548456197374,-0.402039,-0.920837,0.231812,-5.853659,2.926829,-18.475611
1548456197374,-0.398254,-0.930481,0.228333,-6.097561,3.475610,-19.512196
1548456197375,-0.397095,-0.939087,0.232971,-7.378049,3.719512,-20.487804
1548456197381,-0.396179,-0.945984,0.229187,-9.634147,4.207317,-21.219513
1548456197396,-0.394043,-0.941284,0.217834,-11.402439,4.695122,-21.524391
1548456197411,-0.388916,-0.928223,0.212097,-13.048780,5.304878,-21.280489
1548456197412,-0.375793,-0.922974,0.199402,-14.207317,6.341464,-20.548780
1548456197427,-0.369080,-0.927307,0.201111,-13.719513,7.439024,-19.817074
1548456197456,-0.371155,-0.937256,0.200500,-12.500000,7.256098,-20.365854
1548456197457,-0.369812,-0.945007,0.205933,-11.768293,6.158537,-21.219513
1548456197458,-0.367920,-0.952576,0.199890,-12.682927,5.304878,-21.707317
1548456197464,-0.360107,-0.948364,0.197266,-13.902439,5.548780,-21.707317
1548456197471,-0.353943,-0.949463,0.188660,-14.939025,6.646342,-20.853659
1548456197486,-0.355652,-0.947754,0.187866,-15.121951,7.256098,-20.121952
1548456197509,-0.348511,-0.943848,0.181152,-15.000000,7.256098,-19.939024
1548456197510,-0.344788,-0.952698,0.172485,-14.695123,6.524390,-20.182928
1548456197524,-0.341675,-0.956299,0.182434,-14.207317,5.426829,-20.365854
1548456197525,-0.336426,-0.960205,0.182495,-14.207317,4.756098,-20.060976
1548456197531,-0.333557,-0.963257,0.185181,-14.329268,4.390244,-19.756098
1548456197546,-0.330566,-0.965149,0.177429,-15.487805,4.634146,-19.268293
1548456197554,-0.325806,-0.965027,0.171021,-16.768293,4.512195,-18.963415
1548456197561,-0.323242,-0.954102,0.163757,-18.048780,4.512195,-18.475611
1548456197576,-0.325806,-0.957458,0.160583,-18.231709,4.207317,-18.353659
1548456197584,-0.325073,-0.958618,0.165222,-17.743902,3.414634,-18.292683
1548456197592,-0.319885,-0.958069,0.162476,-16.951220,3.780488,-18.170732
1548456197607,-0.316528,-0.963013,0.159424,-16.646341,4.207317,-18.170732
1548456197614,-0.309998,-0.963867,0.154724,-16.890244,4.146341,-18.475611
1548456197621,-0.304871,-0.967590,0.152527,-17.682928,4.146341,-18.658537
1548456197636,-0.313354,-0.974976,0.145325,-18.780489,3.048780,-18.902439
1548456197644,-0.302917,-0.961426,0.135864,-19.756098,2.134146,-19.207317
1548456197652,-0.296204,-0.959106,0.119690,-20.853659,2.256098,-20.000000
1548456197666,-0.299988,-0.963989,0.117859,-20.670732,0.914634,-21.036587
1548456197689,-0.292297,-0.959839,0.112976,-19.329269,0.060976,-21.585367
1548456197689,-0.283264,-0.956482,0.103149,-17.378050,-0.243902,-21.951220
1548456197696,-0.280518,-0.965149,0.101074,-15.426829,-0.914634,-22.012196
1548456197704,-0.275330,-0.964294,0.100952,-12.682927,-1.768293,-21.890244
1548456197711,-0.273926,-0.968445,0.098145,-10.060976,-2.621951,-21.585367
1548456197727,-0.271118,-0.965027,0.095886,-7.317073,-3.658537,-21.402439
1548456197734,-0.266479,-0.964661,0.094666,-4.451220,-4.390244,-21.463415
1548456197749,-0.255798,-0.972717,0.099304,-1.158537,-5.365854,-21.524391
1548456197757,-0.253540,-0.983459,0.112244,2.621951,-6.707317,-21.524391
1548456197764,-0.251770,-0.981567,0.119141,5.609756,-7.987805,-21.158537
1548456197786,-0.241333,-0.974182,0.113953,7.500000,-8.231708,-20.304878
1548456197787,-0.242981,-0.977417,0.112427,8.109756,-8.170732,-19.268293
1548456197801,-0.246704,-0.980408,0.112976,9.146341,-9.146341,-18.414635
1548456197802,-0.241394,-0.983643,0.117920,11.829268,-9.268292,-17.804878
1548456197817,-0.244446,-0.984131,0.135498,14.512196,-9.634147,-17.743902
1548456197824,-0.234497,-0.995911,0.144836,16.402439,-10.121951,-18.109756
1548456197839,-0.237122,-1.001099,0.153870,16.463415,-10.060976,-18.353659
1548456197861,-0.237610,-0.997925,0.159607,15.609756,-10.060976,-18.292683
1548456197862,-0.234985,-1.005981,0.167664,13.963415,-9.817074,-18.536585
1548456197863,-0.231567,-1.005005,0.170837,11.646341,-9.878049,-19.451220
1548456197876,-0.227966,-1.001892,0.168396,8.841464,-10.121951,-20.670732
1548456197914,-0.222717,-0.995117,0.162170,6.036585,-9.878049,-21.158537
1548456197914,-0.215759,-1.000061,0.164001,4.695122,-8.841464,-21.158537
1548456197915,-0.211060,-1.005554,0.165283,3.963415,-7.987805,-21.280489
1548456197921,-0.205994,-1.009399,0.168030,3.231707,-6.829268,-20.853659
1548456197922,-0.200928,-1.004639,0.170044,2.560976,-5.914634,-20.365854
1548456197966,-0.193237,-1.002808,0.167603,1.036585,-5.060976,-19.817074
1548456197967,-0.186523,-1.002808,0.161926,-0.975610,-4.756098,-19.085367
1548456197968,-0.191101,-1.002502,0.164673,-2.195122,-4.207317,-17.743902
1548456197981,-0.187927,-1.001648,0.165771,-3.109756,-4.024390,-16.463415
1548456197982,-0.185120,-0.994751,0.156067,-4.146341,-2.804878,-15.243903
1548456197983,-0.175171,-0.995117,0.149109,-5.121951,-1.463415,-14.024390
1548456198012,-0.175476,-0.989685,0.141907,-5.121951,-0.914634,-13.048780
1548456198012,-0.179993,-0.997559,0.141541,-4.146341,-1.219512,-11.768293
1548456198013,-0.171387,-1.003967,0.147522,-2.256098,-1.341463,-10.975610
1548456198027,-0.175476,-0.987488,0.151978,0.548781,-1.829268,-10.670732
1548456198034,-0.176331,-0.989441,0.147156,1.341463,-2.621951,-10.243902
1548456198042,-0.176819,-0.988708,0.153503,0.365854,-2.621951,-10.548780
1548456198064,-0.175598,-0.989014,0.149231,0.121951,-2.682927,-10.853659
1548456198065,-0.175537,-0.993835,0.147156,0.060976,-2.500000,-11.158537
1548456198072,-0.171875,-0.989990,0.145081,0.670732,-2.012195,-11.646341
1548456198087,-0.167847,-0.993958,0.139099,1.951220,-2.134146,-12.804878
1548456198094,-0.160950,-0.989075,0.140381,3.231707,-2.560976,-14.024390
1548456198101,-0.154358,-0.993164,0.146973,5.304878,-3.292683,-15.060976
1548456198117,-0.149475,-0.996460,0.149414,7.256098,-4.512195,-15.670732
1548456198124,-0.147034,-0.992310,0.149170,8.597561,-4.756098,-15.000000
1548456198132,-0.147583,-0.995483,0.153015,9.756098,-4.451220,-13.719513
1548456198147,-0.140747,-0.997131,0.161926,11.402439,-4.207317,-12.926829
1548456198154,-0.135498,-1.006348,0.172058,12.560976,-4.634146,-12.621951
1548456198161,-0.140930,-1.007324,0.174072,12.682927,-4.573171,-11.707317
1548456198176,-0.130493,-1.009033,0.178467,12.439025,-4.573171,-10.182927
1548456198184,-0.134766,-1.007019,0.186768,12.439025,-3.780488,-8.841464
1548456198192,-0.131653,-1.005371,0.179626,10.609756,-3.780488,-7.012195
1548456198206,-0.133606,-0.998596,0.174744,8.597561,-2.256098,-4.939024
1548456198229,-0.137390,-0.997375,0.180786,7.865854,-1.280488,-3.109756
1548456198230,-0.141052,-1.001099,0.182800,7.439024,-1.219512,-2.012195
1548456198236,-0.140747,-1.003113,0.183167,6.463415,-0.914634,-1.707317
1548456198244,-0.143127,-1.000671,0.190918,5.060976,-0.975610,-2.073171
1548456198252,-0.139648,-1.001770,0.187195,3.231707,-1.097561,-2.560976
1548456198296,-0.140930,-0.999329,0.184326,0.914634,-1.036585,-3.109756
1548456198297,-0.140137,-0.995789,0.178528,-0.609756,-0.853659,-3.414634
1548456198298,-0.134949,-0.994690,0.172729,-1.402439,-0.548781,-3.780488
1548456198304,-0.129517,-0.993286,0.170898,-1.829268,-0.731707,-4.146341
1548456198305,-0.130615,-0.995789,0.174194,-1.036585,-0.914634,-3.963415
1548456198311,-0.125366,-1.000305,0.172180,-0.060976,-0.853659,-3.353659
1548456198326,-0.127991,-1.002319,0.179504,0.304878,-0.731707,-2.378049
1548456198334,-0.127380,-1.003601,0.186523,0.731707,-1.036585,-1.097561
1548456198342,-0.128357,-1.001953,0.184998,0.426829,-0.548781,0.000000
1548456198357,-0.130676,-1.000488,0.180481,-1.341463,-0.426829,1.036585
1548456198364,-0.135010,-0.992432,0.168640,-2.560976,-0.182927,2.500000
1548456198372,-0.134399,-0.993164,0.172729,-2.500000,0.670732,3.658537
1548456198394,-0.136719,-0.997131,0.173889,-1.646341,0.304878,3.475610
1548456198395,-0.134705,-0.996704,0.171204,-1.280488,0.487805,3.475610
1548456198402,-0.135681,-0.995789,0.174011,-0.670732,0.853659,3.597561
1548456198417,-0.138672,-0.999756,0.182251,0.060976,0.487805,3.597561
1548456198431,-0.138184,-1.004700,0.185242,-0.487805,0.182927,3.597561
1548456198432,-0.136353,-1.003296,0.182678,-1.951220,0.304878,3.658537
1548456198447,-0.138000,-0.999634,0.180176,-3.719512,0.792683,4.085366
1548456198454,-0.135498,-1.000305,0.173096,-5.304878,1.280488,4.878049
1548456198462,-0.141724,-0.994141,0.167419,-6.219512,1.524390,5.487805
1548456198476,-0.142639,-0.994019,0.160889,-6.219512,1.463415,5.914634
1548456198484,-0.143188,-0.994995,0.162354,-5.365854,1.646341,5.975610
1548456198492,-0.142517,-0.994324,0.163086,-3.902439,1.463415,5.792683
1548456198507,-0.143494,-0.997192,0.165344,-2.560976,1.463415,5.792683
1548456198514,-0.145081,-0.996521,0.166443,-1.768293,1.280488,6.158537
1548456198522,-0.147888,-0.994141,0.160583,-1.463415,1.463415,6.585366
1548456198537,-0.150879,-0.993469,0.160645,-1.097561,1.402439,6.768293
1548456198544,-0.150513,-0.995911,0.164551,-0.060976,1.341463,6.890244
1548456198551,-0.153320,-0.999268,0.168945,0.975610,1.341463,6.890244
1548456198567,-0.156372,-0.994385,0.168396,1.402439,1.219512,6.890244
1548456198574,-0.153198,-0.992920,0.162903,1.280488,1.646341,7.012195
1548456198582,-0.154541,-0.989502,0.160095,1.463415,2.073171,6.951220
1548456198597,-0.154419,-0.984497,0.155518,2.560976,1.646341,6.768293
1548456198604,-0.155334,-0.987244,0.150146,3.963415,1.463415,6.768293
1548456198612,-0.155029,-0.993408,0.156799,5.792683,1.463415,7.012195
1548456198634,-0.159180,-0.999878,0.168030,8.475610,1.524390,7.621952
1548456198634,-0.160339,-1.000732,0.177856,10.670732,1.707317,8.170732
1548456198642,-0.158203,-0.999023,0.179565,11.463415,1.768293,8.597561
1548456198664,-0.158691,-0.998352,0.179504,11.036586,1.890244,9.146341
1548456198665,-0.160889,-0.994202,0.180420,10.548780,2.195122,10.121951
1548456198671,-0.160828,-0.991394,0.175049,10.426829,2.682927,11.402439
1548456198687,-0.170776,-0.995239,0.177368,10.731708,2.926829,12.743903
1548456198694,-0.170715,-0.998108,0.178894,11.524390,3.292683,14.085366
1548456198701,-0.173828,-0.998962,0.186523,12.682927,3.658537,14.695123
1548456198724,-0.177490,-0.993835,0.185852,13.231708,3.536585,15.243903
1548456198739,-0.182678,-0.993225,0.186829,13.231708,3.597561,16.097561
1548456198740,-0.186218,-0.985535,0.186096,13.841464,4.024390,17.073172
1548456198746,-0.191711,-0.985474,0.187561,14.756098,4.451220,17.804878
1548456198754,-0.194885,-0.986694,0.189514,15.914635,4.329268,17.987804
1548456198761,-0.195496,-0.986511,0.195007,17.560976,4.878049,18.353659
1548456198784,-0.201416,-0.986084,0.197754,19.268293,4.817073,18.109756
1548456198785,-0.200073,-0.983093,0.201599,20.487804,4.756098,18.109756
1548456198799,-0.176331,-0.978821,0.194885,21.463415,4.512195,17.926830
1548456198806,-0.242065,-0.988586,0.228271,21.829269,1.463415,16.829269
1548456198814,-0.217407,-0.975952,0.216248,22.500000,0.365854,18.353659
1548456198822,-0.197510,-0.973572,0.212341,22.560976,5.304878,18.292683
1548456198836,-0.215027,-0.971863,0.217102,22.012196,3.902439,16.646341
1548456198844,-0.221985,-0.972900,0.223511,22.500000,2.926829,17.804878
1548456198852,-0.219666,-0.969727,0.224976,23.719513,3.475610,18.597561
1548456198867,-0.219971,-0.969360,0.231934,24.390244,3.780488,18.719513
1548456198874,-0.232178,-0.971558,0.242676,24.878050,3.109756,18.963415
1548456198881,-0.234253,-0.967773,0.244873,24.817074,2.439024,19.268293
1548456198897,-0.238220,-0.964111,0.245789,24.146341,2.560976,19.512196
1548456198911,-0.236511,-0.965332,0.252319,23.902439,1.768293,19.024391
1548456198912,-0.240356,-0.969299,0.256897,23.475611,1.097561,18.536585
1548456198926,-0.255493,-0.965393,0.262207,22.560976,-0.365854,18.109756
1548456198949,-0.247437,-0.964050,0.264160,20.975611,-0.914634,18.170732
1548456198956,-0.250488,-0.956238,0.264282,19.634148,0.304878,18.292683
1548456198957,-0.273499,-0.955566,0.276123,18.597561,-0.182927,17.926830
1548456198971,-0.261230,-0.953247,0.276550,18.780489,0.121951,17.926830
1548456198972,-0.262939,-0.961975,0.290649,18.231709,2.073171,17.743902
1548456198987,-0.274963,-0.962769,0.295898,16.829269,0.487805,15.670732
1548456198994,-0.273865,-0.957336,0.295898,13.841464,0.365854,14.939025
1548456199002,-0.252686,-0.950867,0.290527,10.121951,1.036585,13.780488
1548456199031,-0.274231,-0.964539,0.303833,6.951220,0.304878,11.829268
1548456199032,-0.285339,-0.954407,0.298523,3.841464,-2.134146,10.365854
1548456199033,-0.258789,-0.943237,0.282959,0.609756,-0.304878,10.609756
1548456199047,-0.257080,-0.941101,0.272888,-2.317073,0.609756,9.573171
1548456199061,-0.290100,-0.936523,0.277527,-3.292683,-2.378049,7.987805
1548456199062,-0.290405,-0.943787,0.285461,-3.048780,-2.378049,9.024390
1548456199077,-0.277100,-0.966614,0.291382,-2.682927,1.158537,9.512196
1548456199084,-0.278992,-0.967163,0.293640,-3.170732,2.865854,8.780488
1548456199099,-0.281738,-0.973022,0.275574,-5.548780,3.170732,9.024390
1548456199136,-0.266541,-0.967773,0.254272,-8.841464,4.329268,10.304878
1548456199137,-0.314880,-0.952759,0.254395,-9.817074,1.768293,10.060976
1548456199137,-0.282532,-0.938171,0.239929,-8.292683,3.536585,12.987805
1548456199144,-0.277893,-0.943909,0.242798,-5.426829,6.951220,14.573171
1548456199144,-0.297729,-0.959595,0.251587,-1.524390,4.085366,14.634147
1548456199152,-0.300476,-0.972656,0.267334,0.426829,2.926829,16.097561
1548456199167,-0.299561,-0.972473,0.264343,0.000000,2.926829,17.865854
1548456199174,-0.299866,-0.966736,0.252258,-1.768293,3.231707,19.573172
1548456199189,-0.311890,-0.967896,0.257874,-3.597561,4.390244,21.646341
1548456199204,-0.299744,-0.969116,0.244812,-4.878049,4.329268,23.353659
1548456199211,-0.316040,-0.966919,0.246887,-5.853659,4.390244,24.817074
1548456199212,-0.330200,-0.942566,0.258362,-7.317073,2.804878,25.548780
1548456199227,-0.334290,-0.933411,0.266357,-8.597561,3.780488,27.012196
1548456199241,-0.320923,-0.938660,0.263611,-7.987805,6.768293,27.926830
1548456199249,-0.356323,-0.936829,0.249573,-5.731708,7.134147,28.048780
1548456199257,-0.351990,-0.937195,0.239746,-4.451220,7.560976,29.146341
1548456199264,-0.334412,-0.946960,0.256104,-4.695122,9.756098,30.914635
1548456199272,-0.343323,-0.944336,0.253174,-4.268293,9.756098,29.512196
1548456199287,-0.344299,-0.935059,0.248352,-3.231707,7.865854,27.743902
1548456199301,-0.358459,-0.941101,0.261963,-5.000000,5.853659,26.219513
1548456199302,-0.379639,-0.946716,0.266724,-6.951220,5.000000,25.792683
1548456199317,-0.373779,-0.921326,0.259216,-6.707317,5.548780,25.975611
1548456199324,-0.366821,-0.891357,0.250793,-6.402439,8.231708,26.341463
1548456199331,-0.372925,-0.870972,0.246338,-6.158537,8.780488,25.487806
1548456199361,-0.377502,-0.892151,0.258423,-5.182927,8.414635,23.902439
1548456199362,-0.388794,-0.911316,0.255554,-2.378049,6.219512,21.585367
1548456199369,-0.389771,-0.912598,0.247375,1.280488,4.817073,19.512196
1548456199377,-0.398987,-0.916443,0.250549,2.012195,4.390244,17.500000
1548456199384,-0.391541,-0.926025,0.260437,0.426829,4.756098,16.463415
1548456199392,-0.390015,-0.913696,0.257996,-0.548781,5.426829,15.670732
1548456199422,-0.395508,-0.906494,0.251404,-1.158537,5.548780,14.878049
1548456199422,-0.396912,-0.901123,0.246277,-1.768293,5.548780,14.146341
1548456199423,-0.402344,-0.897827,0.244263,-2.073171,5.609756,13.292684
1548456199437,-0.394409,-0.886292,0.235291,-1.890244,5.426829,12.560976
1548456199444,-0.414429,-0.899658,0.227478,-1.036585,5.000000,11.646341
1548456199452,-0.419067,-0.922546,0.227478,0.365854,3.841464,10.243902
1548456199474,-0.414490,-0.922729,0.226318,2.012195,3.231707,8.841464
1548456199475,-0.412231,-0.919128,0.230957,1.280488,3.170732,7.317073
1548456199482,-0.402344,-0.901550,0.234070,-0.731707,2.926829,6.280488
1548456199496,-0.405334,-0.891357,0.236328,-2.012195,2.500000,5.548780
1548456199504,-0.407898,-0.898010,0.236023,-2.500000,2.012195,5.182927
1548456199526,-0.415283,-0.901794,0.223755,-0.914634,1.463415,4.390244
1548456199527,-0.416748,-0.903748,0.216980,1.097561,0.914634,3.231707
1548456199534,-0.416626,-0.907654,0.222107,2.073171,0.609756,2.439024
1548456199542,-0.415771,-0.904968,0.225281,3.109756,-0.243902,1.524390
1548456199557,-0.415161,-0.907043,0.228455,3.963415,-0.914634,0.792683
1548456199564,-0.416565,-0.907959,0.236633,3.963415,-1.646341,-0.365854
1548456199594,-0.409973,-0.912476,0.235474,3.963415,-1.951220,-0.975610
1548456199595,-0.411987,-0.909424,0.230957,4.146341,-2.012195,-1.219512
1548456199601,-0.415710,-0.905823,0.227966,4.573171,-2.134146,-1.341463
1548456199602,-0.411438,-0.908569,0.231140,5.243903,-2.378049,-1.768293
1548456199617,-0.413269,-0.916809,0.231201,5.731708,-2.987805,-2.439024
1548456199639,-0.413330,-0.923523,0.235718,5.792683,-3.719512,-3.170732
1548456199647,-0.410400,-0.916199,0.240173,5.121951,-4.146341,-3.414634
1548456199647,-0.403625,-0.905762,0.240112,4.024390,-4.085366,-3.231707
1548456199654,-0.405151,-0.899841,0.246582,4.024390,-4.268293,-3.231707
1548456199662,-0.410278,-0.904785,0.252991,5.060976,-5.000000,-3.719512
1548456199699,-0.406555,-0.924988,0.256165,6.280488,-5.365854,-4.024390
1548456199707,-0.403442,-0.929199,0.250427,7.500000,-5.243903,-3.780488
1548456199707,-0.406433,-0.923462,0.255432,6.768293,-5.182927,-3.597561
1548456199708,-0.402466,-0.913330,0.256104,4.695122,-4.451220,-2.865854
1548456199721,-0.404663,-0.908813,0.258972,2.865854,-3.536585,-2.134146
1548456199722,-0.404907,-0.904114,0.269348,1.829268,-2.743902,-2.073171
1548456199759,-0.403809,-0.904541,0.267578,2.073171,-1.768293,-2.134146
1548456199759,-0.410828,-0.915039,0.264221,2.621951,-1.646341,-2.621951
1548456199760,-0.405518,-0.910034,0.261536,2.682927,-2.012195,-2.926829
1548456199767,-0.400879,-0.907837,0.253479,2.804878,-2.012195,-2.987805
1548456199774,-0.398499,-0.911133,0.252441,2.256098,-2.317073,-3.109756
1548456199782,-0.398865,-0.913147,0.253662,2.195122,-2.560976,-3.353659
1548456199819,-0.394897,-0.912903,0.247864,2.378049,-2.317073,-3.231707
1548456199819,-0.399963,-0.920776,0.250916,2.743902,-2.012195,-2.926829
1548456199820,-0.395996,-0.913208,0.251587,3.109756,-2.012195,-2.865854
1548456199826,-0.397705,-0.915100,0.255249,3.048780,-1.768293,-3.048780
1548456199834,-0.399902,-0.916870,0.258606,2.195122,-1.951220,-3.170732
1548456199842,-0.395569,-0.915222,0.254028,2.195122,-2.134146,-2.987805
1548456199871,-0.397156,-0.913879,0.257080,2.195122,-2.317073,-2.926829
1548456199872,-0.397949,-0.921204,0.260498,1.951220,-2.317073,-2.865854
1548456199879,-0.394836,-0.916992,0.254822,2.134146,-2.012195,-2.804878
1548456199894,-0.393921,-0.909729,0.257629,2.317073,-1.280488,-2.378049
1548456199895,-0.395203,-0.912231,0.263855,1.768293,-0.914634,-2.073171
1548456199924,-0.395630,-0.912598,0.263672,1.829268,-0.914634,-2.073171
1548456199924,-0.395691,-0.916382,0.263123,2.256098,-1.036585,-2.500000
1548456199932,-0.394653,-0.918213,0.263000,1.585366,-1.402439,-2.987805
1548456199932,-0.394043,-0.921387,0.263916,0.670732,-1.707317,-3.231707
1548456199947,-0.390869,-0.915283,0.261292,-0.243902,-1.768293,-3.353659
1548456199954,-0.390503,-0.913757,0.261963,-0.914634,-1.646341,-3.231707
1548456199984,-0.390198,-0.911987,0.269836,-1.219512,-1.463415,-3.109756
1548456199984,-0.390564,-0.910095,0.266907,-0.609756,-0.914634,-2.987805
1548456199985,-0.390930,-0.915283,0.265076,-0.121951,-0.304878,-2.804878
1548456199992,-0.390198,-0.916931,0.264343,0.243902,0.121951,-2.926829
1548456200006,-0.387634,-0.913940,0.262390,-0.304878,0.243902,-2.865854
1548456200036,-0.390503,-0.915649,0.255493,-0.853659,0.182927,-2.682927
1548456200044,-0.389038,-0.918335,0.252197,-0.731707,-0.121951,-2.500000
1548456200044,-0.388672,-0.917603,0.250916,-0.609756,-0.426829,-2.621951
1548456200045,-0.385803,-0.915222,0.249451,-0.548781,-0.792683,-2.926829
1548456200052,-0.387146,-0.919800,0.254333,-0.426829,-1.341463,-3.292683
1548456200074,-0.385559,-0.919739,0.256226,0.121951,-1.890244,-3.231707
1548456200075,-0.383301,-0.918274,0.254211,0.975610,-1.646341,-2.987805
1548456200096,-0.384644,-0.923767,0.257629,1.341463,-1.402439,-2.621951
1548456200097,-0.382019,-0.921875,0.253540,1.585366,-1.402439,-2.134146
1548456200104,-0.381897,-0.919922,0.254333,0.975610,-1.280488,-1.768293
1548456200112,-0.385376,-0.918884,0.255127,0.426829,-1.402439,-1.646341
1548456200149,-0.386230,-0.917419,0.261414,0.182927,-1.829268,-1.829268
1548456200150,-0.384583,-0.916748,0.267517,-0.365854,-1.890244,-2.378049
1548456200150,-0.383728,-0.915039,0.265015,-0.548781,-1.768293,-2.743902
1548456200157,-0.381042,-0.917603,0.258362,0.060976,-1.890244,-2.560976
1548456200164,-0.382446,-0.922913,0.256836,0.609756,-1.890244,-2.439024
1548456200172,-0.379700,-0.921753,0.256165,0.792683,-1.585366,-2.439024
1548456200187,-0.379089,-0.920715,0.252563,1.036585,-1.036585,-2.073171
1548456200202,-0.381653,-0.920959,0.249084,1.097561,-0.914634,-1.768293
1548456200209,-0.380066,-0.917542,0.258240,1.158537,-0.792683,-1.585366
1548456200217,-0.379822,-0.915405,0.258606,0.853659,-1.036585,-1.951220
1548456200239,-0.380859,-0.918091,0.258545,0.731707,-1.402439,-2.560976
1548456200269,-0.381714,-0.918945,0.262573,0.548781,-2.073171,-3.231707
1548456200270,-0.379333,-0.918823,0.262329,0.304878,-2.621951,-3.780488
1548456200270,-0.376587,-0.917847,0.260437,0.243902,-2.560976,-3.963415
1548456200276,-0.376038,-0.920349,0.259705,0.182927,-2.378049,-4.085366
1548456200277,-0.374634,-0.922363,0.258789,0.487805,-2.195122,-3.963415
1548456200284,-0.372925,-0.921326,0.261108,0.792683,-2.134146,-4.024390
1548456200322,-0.372070,-0.920166,0.264832,0.670732,-2.073171,-4.268293
1548456200322,-0.372864,-0.923645,0.266907,0.304878,-1.768293,-4.207317
1548456200337,-0.373657,-0.921448,0.266479,0.182927,-1.829268,-4.146341
1548456200337,-0.369690,-0.920349,0.262939,0.121951,-1.707317,-4.085366
1548456200338,-0.371887,-0.928345,0.261902,-0.304878,-1.646341,-3.963415
1548456200351,-0.370178,-0.927490,0.261536,-0.792683,-1.524390,-3.780488
1548456200352,-0.372742,-0.922729,0.258423,-1.036585,-1.219512,-3.597561
1548456200374,-0.372314,-0.919556,0.257568,-0.792683,-1.280488,-3.414634
1548456200381,-0.370850,-0.922058,0.261414,0.121951,-1.646341,-3.597561
1548456200382,-0.367859,-0.928101,0.264465,0.609756,-1.890244,-3.841464
1548456200397,-0.365723,-0.926880,0.263733,0.670732,-2.317073,-3.963415
1548456200426,-0.364624,-0.926025,0.264709,0.426829,-2.317073,-3.719512
1548456200434,-0.362610,-0.929993,0.268372,-0.182927,-1.768293,-3.170732
1548456200434,-0.361389,-0.927734,0.265259,-0.365854,-1.158537,-2.560976
1548456200436,-0.361511,-0.926025,0.262146,-0.426829,-0.731707,-2.012195
1548456200449,-0.362732,-0.923157,0.258545,-0.853659,-0.548781,-1.585366
1548456200464,-0.366394,-0.926819,0.261780,-0.975610,-0.670732,-1.463415
1548456200465,-0.366943,-0.925720,0.260742,-0.670732,-0.731707,-1.646341
1548456200487,-0.364380,-0.929138,0.262451,-0.365854,-0.426829,-1.646341
1548456200487,-0.364258,-0.923889,0.264709,-1.036585,-0.548781,-1.707317
1548456200501,-0.364624,-0.923889,0.262817,-1.646341,-0.609756,-1.707317
1548456200539,-0.363281,-0.924622,0.259277,-1.646341,-0.609756,-1.829268
1548456200539,-0.362366,-0.925293,0.258423,-1.829268,-0.548781,-2.134146
1548456200540,-0.361816,-0.924438,0.256165,-1.890244,-0.609756,-2.256098
1548456200546,-0.361206,-0.925598,0.254578,-1.707317,-0.609756,-2.134146
1548456200547,-0.363647,-0.924622,0.261353,-1.402439,-0.670732,-2.317073
1548456200561,-0.362061,-0.925110,0.259888,-1.646341,-0.731707,-2.560976
1548456200562,-0.361633,-0.930420,0.257263,-2.012195,-0.609756,-2.743902
1548456200599,-0.359558,-0.929016,0.256165,-2.317073,-0.670732,-2.804878
1548456200599,-0.360107,-0.928345,0.255859,-2.926829,-0.731707,-2.987805
1548456200606,-0.360535,-0.926758,0.256714,-3.536585,-0.914634,-3.109756
1548456200607,-0.357361,-0.926636,0.255066,-3.841464,-0.914634,-3.292683
1548456200614,-0.357239,-0.929810,0.252563,-3.597561,-0.609756,-3.536585
1548456200622,-0.357239,-0.934570,0.252197,-3.292683,-0.426829,-3.902439
1548456200651,-0.356750,-0.932678,0.254700,-2.987805,-0.426829,-3.963415
1548456200652,-0.356262,-0.925354,0.254578,-3.719512,-0.365854,-4.268293
1548456200653,-0.351074,-0.944458,0.251526,-4.329268,-0.487805,-4.390244
1548456200674,-0.352173,-0.934814,0.245300,-4.878049,-0.121951,-3.902439
1548456200674,-0.356384,-0.929871,0.247681,-6.219512,0.426829,-2.195122
1548456200689,-0.354736,-0.931580,0.244934,-6.768293,-0.304878,-1.890244
1548456200712,-0.352051,-0.932800,0.247620,-6.524390,-0.243902,-2.195122
1548456200712,-0.351440,-0.932129,0.248535,-6.951220,-0.365854,-2.560976
1548456200713,-0.352539,-0.931396,0.248413,-7.500000,-0.365854,-2.560976
1548456200727,-0.351196,-0.934021,0.248718,-7.987805,-0.121951,-2.682927
1548456200742,-0.352234,-0.935730,0.242126,-8.292683,0.487805,-2.560976
1548456200764,-0.357666,-0.933105,0.242249,-8.597561,0.670732,-2.560976
1548456200764,-0.351440,-0.934692,0.235962,-8.963415,0.609756,-2.560976
1548456200765,-0.355530,-0.930664,0.235474,-9.390244,0.609756,-3.109756
1548456200772,-0.341980,-0.943176,0.239319,-9.878049,0.304878,-3.841464
1548456200794,-0.347473,-0.937622,0.232910,-10.243902,-0.304878,-4.390244
1548456200801,-0.360779,-0.926392,0.230286,-10.731708,-0.731707,-3.719512
1548456200802,-0.337219,-0.945007,0.232605,-10.914635,-0.304878,-3.475610
1548456200817,-0.333740,-0.950317,0.231323,-9.695122,0.121951,-6.036585
1548456200824,-0.351562,-0.935303,0.223694,-9.573171,-0.060976,-4.085366
1548456200839,-0.351501,-0.938965,0.226929,-10.365854,0.000000,-2.256098
1548456200854,-0.348389,-0.943237,0.219666,-10.365854,-0.060976,-2.926829
1548456200855,-0.346008,-0.939331,0.218018,-10.365854,0.000000,-3.597561
1548456200899,-0.350098,-0.941223,0.217163,-10.609756,-0.426829,-3.719512
1548456200899,-0.345764,-0.942139,0.216125,-10.487805,-0.426829,-3.963415
1548456200900,-0.336365,-0.946411,0.216064,-10.243902,-0.121951,-4.695122
1548456200906,-0.345154,-0.943359,0.214111,-10.121951,-0.121951,-4.878049
1548456200907,-0.345520,-0.938965,0.212341,-10.060976,-0.365854,-4.451220
1548456200914,-0.344849,-0.944336,0.209229,-10.182927,-0.121951,-4.573171
1548456200929,-0.338196,-0.948975,0.206055,-10.304878,0.304878,-5.121951
1548456200951,-0.340149,-0.947510,0.204041,-10.000000,0.243902,-5.670732
1548456200959,-0.328735,-0.951233,0.205444,-10.060976,0.365854,-5.792683
1548456200966,-0.314880,-0.944092,0.195740,-10.121951,0.060976,-5.853659
1548456200967,-0.343567,-0.957642,0.209229,-10.670732,-2.682927,-6.402439
1548456200974,-0.337524,-0.950745,0.202271,-10.609756,-2.500000,-5.000000
1548456200982,-0.338623,-0.950928,0.199158,-11.219512,-1.707317,-5.121951
1548456201019,-0.333252,-0.955627,0.201294,-11.219512,-1.341463,-5.548780
1548456201020,-0.331604,-0.957214,0.201965,-11.097561,-0.975610,-5.975610
1548456201020,-0.327332,-0.955078,0.195740,-12.439025,-1.463415,-6.768293
1548456201027,-0.327637,-0.953308,0.195129,-13.841464,-2.012195,-7.560976
1548456201034,-0.331970,-0.958130,0.191956,-14.451220,-2.317073,-8.353659
1548456201042,-0.327698,-0.957092,0.184265,-14.939025,-2.195122,-8.536586
1548456201065,-0.321594,-0.952209,0.178284,-15.426829,-1.585366,-8.170732
1548456201065,-0.322937,-0.958923,0.175659,-15.670732,-1.951220,-8.414635
1548456201072,-0.324341,-0.959595,0.177185,-15.304878,-2.621951,-8.597561
1548456201094,-0.314392,-0.958984,0.171997,-15.060976,-2.682927,-8.719512
1548456201095,-0.312134,-0.958435,0.166321,-14.939025,-2.439024,-8.841464
1548456201116,-0.316406,-0.961914,0.164551,-14.634147,-3.048780,-8.780488
1548456201117,-0.315063,-0.960571,0.160950,-14.329268,-3.231707,-8.658537
1548456201124,-0.311035,-0.960022,0.158691,-13.841464,-3.536585,-8.719512
1548456201132,-0.310486,-0.963867,0.161072,-13.109756,-4.268293,-8.841464
1548456201176,-0.307617,-0.968201,0.158142,-12.439025,-4.207317,-9.085366
1548456201177,-0.307556,-0.961182,0.153076,-12.195122,-3.963415,-8.658537
1548456201178,-0.305786,-0.960144,0.144470,-11.585366,-3.109756,-7.500000
1548456201184,-0.302063,-0.966125,0.145020,-10.243902,-2.256098,-6.951220
1548456201185,-0.300720,-0.965576,0.149231,-8.292683,-1.829268,-6.158537
1548456201192,-0.307556,-0.964905,0.152588,-6.768293,-2.317073,-5.548780
1548456201207,-0.304199,-0.966492,0.151062,-6.341464,-2.500000,-5.060976
1548456201229,-0.304565,-0.966370,0.146179,-6.097561,-2.073171,-4.939024
1548456201230,-0.301880,-0.967468,0.146729,-5.792683,-1.646341,-4.817073
1548456201237,-0.300903,-0.967102,0.145813,-5.182927,-1.219512,-4.573171
1548456201244,-0.295837,-0.966858,0.145752,-4.390244,-0.670732,-4.268293
1548456201252,-0.293274,-0.971863,0.145142,-3.658537,-0.731707,-4.085366
1548456201289,-0.299622,-0.964355,0.138184,-2.926829,-0.853659,-3.414634
1548456201289,-0.297363,-0.960754,0.130859,-2.195122,-0.304878,-2.195122
1548456201290,-0.293457,-0.970581,0.137390,-0.548781,0.731707,-1.158537
1548456201297,-0.301758,-0.972412,0.149414,1.768293,0.731707,-0.609756
1548456201304,-0.301880,-0.968689,0.151733,2.926829,-0.121951,-0.609756
1548456201312,-0.301392,-0.973755,0.153259,2.621951,-0.243902,-1.158537
1548456201341,-0.296570,-0.974548,0.153870,1.707317,-1.036585,-2.195122
1548456201342,-0.293640,-0.974365,0.156433,0.914634,-0.731707,-2.560976
1548456201343,-0.304199,-0.975159,0.165466,-0.365854,-1.341463,-3.109756
1548456201357,-0.297974,-0.974487,0.162231,-2.134146,-0.975610,-3.109756
1548456201364,-0.291992,-0.977905,0.161316,-4.329268,-0.182927,-3.780488
1548456201401,-0.301758,-0.970337,0.156799,-6.768293,-1.219512,-4.817073
1548456201409,-0.297180,-0.971436,0.149353,-9.207317,-1.890244,-5.365854
1548456201409,-0.295105,-0.975281,0.146362,-11.036586,-1.585366,-6.341464
1548456201410,-0.296448,-0.975037,0.145874,-12.195122,-1.951220,-7.317073
1548456201417,-0.295288,-0.969238,0.143555,-12.743903,-2.500000,-8.353659
1548456201424,-0.290039,-0.974304,0.142700,-13.536586,-3.170732,-9.756098
1548456201454,-0.285400,-0.975403,0.136597,-14.878049,-3.475610,-11.463415
1548456201455,-0.284302,-0.977356,0.134949,-16.219513,-4.085366,-12.987805
1548456201455,-0.281799,-0.981140,0.136597,-17.012196,-4.329268,-13.780488
1548456201462,-0.280762,-0.983521,0.137390,-17.987804,-4.329268,-14.390244
1548456201477,-0.277527,-0.982361,0.132690,-19.634148,-4.756098,-15.487805
1548456201484,-0.277588,-0.971130,0.116943,-21.646341,-5.304878,-16.890244
1548456201499,-0.272034,-0.978638,0.107422,-23.231709,-5.670732,-17.926830
1548456201514,-0.265015,-0.983643,0.101562,-23.048780,-5.365854,-18.963415
1548456201515,-0.262146,-0.986755,0.103088,-21.402439,-5.182927,-19.573172
1548456201522,-0.260376,-0.988831,0.101501,-19.329269,-5.487805,-19.939024
1548456201537,-0.254700,-0.996582,0.107666,-18.048780,-4.756098,-19.634148
1548456201566,-0.254333,-0.995667,0.098022,-17.439024,-4.512195,-19.878050
1548456201567,-0.246704,-0.990784,0.092834,-18.048780,-4.756098,-19.878050
1548456201568,-0.236755,-0.991089,0.083862,-18.292683,-5.000000,-19.878050
1548456201574,-0.231567,-0.992920,0.079773,-17.560976,-4.695122,-19.024391
1548456201582,-0.234680,-0.996155,0.075195,-15.487805,-4.146341,-16.768293
1548456201597,-0.222046,-0.998535,0.071472,-13.109756,-3.414634,-14.085366
1548456201611,-0.227356,-0.993530,0.080383,-10.792684,-2.804878,-12.256098
1548456201619,-0.219116,-0.995972,0.079590,-8.902439,-3.048780,-10.121951
1548456201627,-0.227417,-0.992310,0.078430,-8.353659,-1.951220,-7.865854
1548456201634,-0.220581,-0.986633,0.067444,-8.109756,-2.195122,-6.219512
1548456201642,-0.216248,-0.988464,0.060303,-6.768293,-0.731707,-4.451220
1548456201664,-0.223755,-0.997803,0.069458,-3.780488,0.000000,-1.951220
1548456201665,-0.233887,-0.999817,0.083496,-0.121951,0.243902,0.731707
1548456201672,-0.234314,-0.998840,0.092041,1.829268,0.060976,1.402439
1548456201687,-0.228516,-0.991943,0.078552,0.365854,-0.548781,0.182927
1548456201694,-0.234131,-0.999817,0.076111,-2.439024,-1.646341,-1.158537
1548456201702,-0.221313,-0.986023,0.068665,-2.560976,-2.804878,-1.341463
1548456201724,-0.213013,-0.979553,0.054504,-0.792683,2.439024,0.670732
1548456201725,-0.231506,-0.990112,0.070190,0.365854,0.182927,0.853659
1548456201732,-0.226013,-0.989990,0.071411,3.719512,0.548781,3.231707
1548456201747,-0.230957,-0.991882,0.074890,6.158537,2.317073,4.573171
1548456201754,-0.237488,-0.996277,0.086609,7.012195,2.317073,4.878049
1548456201777,-0.239929,-0.996826,0.094910,7.256098,1.463415,4.146341
1548456201784,-0.236267,-0.994934,0.090942,5.609756,0.060976,2.195122
1548456201785,-0.231995,-0.992798,0.087708,2.926829,-0.914634,0.487805
1548456201792,-0.231506,-0.992798,0.087036,1.097561,-1.524390,-0.487805
1548456201807,-0.230469,-0.991760,0.082642,0.121951,-1.463415,-0.426829
1548456201814,-0.230164,-0.992676,0.081116,-0.182927,-0.975610,0.121951
1548456201822,-0.232178,-0.993958,0.078125,0.304878,-0.609756,0.731707
1548456201837,-0.234070,-0.993408,0.081238,1.158537,-0.426829,1.036585
1548456201844,-0.236816,-0.995850,0.086365,1.829268,-0.609756,0.914634
1548456201852,-0.235962,-0.995667,0.089294,1.829268,-1.219512,0.304878
1548456201867,-0.230774,-0.994141,0.087708,1.219512,-1.585366,-0.426829
1548456201874,-0.230713,-0.993896,0.084961,0.487805,-1.707317,-0.609756
1548456201889,-0.229370,-0.993286,0.085693,0.182927,-1.402439,-0.182927
1548456201897,-0.230835,-0.991272,0.082092,0.243902,-0.731707,0.548781
1548456201904,-0.231018,-0.994019,0.080139,0.548781,-0.304878,1.219512
1548456201912,-0.232239,-0.994568,0.083069,0.853659,0.060976,1.829268
1548456201927,-0.232178,-0.993896,0.084656,1.524390,0.304878,2.134146
1548456201949,-0.232727,-0.991028,0.082397,1.707317,0.426829,2.317073
1548456201950,-0.231262,-0.991211,0.082642,1.646341,0.487805,2.317073
1548456201957,-0.234192,-0.991394,0.081360,2.073171,0.609756,2.256098
1548456201964,-0.235474,-0.992310,0.083679,2.804878,0.792683,2.743902
1548456201972,-0.234558,-0.992249,0.084167,3.414634,0.975610,3.109756
1548456201987,-0.233643,-0.990295,0.079834,3.902439,1.097561,3.292683
1548456202009,-0.233887,-0.988098,0.076721,4.573171,1.280488,3.536585
1548456202010,-0.236511,-0.990845,0.082886,5.853659,1.402439,4.024390
1548456202017,-0.242371,-0.993103,0.091553,7.256098,1.585366,4.756098
1548456202024,-0.246460,-0.994995,0.096558,8.231708,1.585366,5.000000
1548456202032,-0.248047,-0.997070,0.101379,7.865854,1.219512,4.268293
1548456202054,-0.242249,-0.996399,0.100830,6.402439,0.365854,2.804878
1548456202070,-0.238831,-0.992432,0.100952,4.817073,-0.121951,1.646341
1548456202070,-0.238586,-0.992004,0.100952,3.719512,-0.304878,1.097561
1548456202070,-0.239258,-0.992004,0.097595,2.865854,-0.182927,1.158537
1548456202084,-0.239380,-0.990906,0.095276,1.951220,0.121951,1.585366
1548456202092,-0.242432,-0.991760,0.097595,1.402439,0.670732,2.134146
1548456202114,-0.247253,-0.993286,0.102173,1.036585,0.731707,2.195122
1548456202121,-0.246033,-0.993530,0.101624,0.365854,0.365854,1.402439
1548456202122,-0.247131,-0.995056,0.099182,-0.914634,-0.548781,-0.060976
1548456202137,-0.241211,-0.990906,0.096436,-2.256098,-1.341463,-1.219512
1548456202144,-0.238892,-0.988647,0.089966,-2.865854,-1.768293,-2.134146
1548456202152,-0.235107,-0.988770,0.085510,-2.987805,-1.768293,-2.195122
1548456202167,-0.236145,-0.990051,0.087402,-2.317073,-1.219512,-1.402439
1548456202174,-0.237915,-0.990662,0.089905,-1.097561,-0.243902,-0.121951
1548456202182,-0.238647,-0.991699,0.089417,-0.243902,0.365854,0.792683
1548456202205,-0.240967,-0.992493,0.089966,0.365854,0.548781,1.097561
1548456202219,-0.241089,-0.990479,0.091553,0.731707,0.304878,1.097561
1548456202219,-0.237671,-0.990173,0.086975,0.975610,0.182927,0.975610
1548456202227,-0.235229,-0.989685,0.088562,1.463415,0.304878,1.280488
1548456202234,-0.238586,-0.989563,0.089600,2.195122,0.548781,2.073171
1548456202242,-0.240112,-0.991455,0.088745,2.926829,1.097561,2.987805
1548456202257,-0.243042,-0.991150,0.095825,3.963415,1.646341,3.780488
1548456202264,-0.243835,-0.991089,0.095703,4.695122,2.012195,4.207317
1548456202279,-0.242615,-0.993042,0.092407,4.695122,1.890244,4.146341
1548456202287,-0.246155,-0.990112,0.096619,4.634146,1.646341,4.085366
1548456202294,-0.245789,-0.989319,0.096558,4.695122,1.463415,4.024390
1548456202302,-0.244080,-0.989990,0.095276,4.451220,1.585366,4.024390
1548456202317,-0.246521,-0.991211,0.098022,4.146341,1.707317,4.268293
1548456202332,-0.247437,-0.989807,0.097656,4.512195,1.768293,4.451220
1548456202332,-0.248474,-0.989502,0.099487,4.817073,1.646341,4.512195
1548456202347,-0.248230,-0.988281,0.097473,4.695122,1.585366,4.329268
1548456202354,-0.249207,-0.987427,0.099121,5.060976,1.463415,4.268293
1548456202362,-0.249756,-0.986206,0.098633,5.548780,1.646341,4.451220
1548456202384,-0.249939,-0.986084,0.101685,5.731708,1.524390,4.512195
1548456202391,-0.251587,-0.985107,0.101440,5.853659,1.707317,4.817073
1548456202392,-0.251160,-0.986389,0.102966,6.036585,1.768293,5.060976
1548456202407,-0.253174,-0.985352,0.101868,6.463415,1.768293,5.304878
1548456202414,-0.256958,-0.987244,0.107300,6.707317,1.829268,5.487805
1548456202422,-0.259338,-0.989014,0.111206,7.073171,1.768293,5.365854
1548456202451,-0.260010,-0.987427,0.108276,6.707317,1.463415,4.817073
1548456202452,-0.257263,-0.985596,0.109619,5.853659,0.914634,4.024390
1548456202453,-0.256531,-0.986450,0.109558,5.487805,0.670732,3.475610
1548456202467,-0.254944,-0.986145,0.107910,5.365854,0.731707,3.597561
1548456202474,-0.255005,-0.983765,0.106506,5.426829,0.853659,3.902439
1548456202482,-0.257996,-0.984680,0.108032,5.609756,1.402439,4.634146
1548456202504,-0.261902,-0.986755,0.114380,6.463415,1.890244,5.548780
1548456202505,-0.266357,-0.986755,0.116455,7.439024,2.012195,6.036585
1548456202512,-0.268738,-0.986145,0.115601,7.682927,1.890244,6.158537
1548456202527,-0.267639,-0.985596,0.119080,6.890244,1.585366,5.609756
1548456202534,-0.262573,-0.983765,0.112854,6.280488,1.402439,4.939024
1548456202556,-0.259583,-0.982178,0.109924,6.219512,1.280488,4.817073
1548456202557,-0.262634,-0.981262,0.111511,7.195122,1.463415,5.365854
1548456202564,-0.254944,-0.979675,0.109131,8.414635,1.951220,6.280488
1548456202572,-0.181885,-0.921936,0.045959,10.426829,2.317073,7.560976
1548456202587,-0.360962,-1.036804,0.175659,12.439025,-2.256098,6.951220
1548456202594,-0.288208,-0.992065,0.147278,15.426829,-14.329268,3.780488
1548456202616,-0.258667,-0.975220,0.122864,19.146341,5.548780,11.097561
1548456202617,-0.272888,-0.982117,0.129395,15.426829,4.695122,9.085366
1548456202624,-0.277954,-0.980286,0.136597,15.060976,3.414634,9.756098
1548456202632,-0.273071,-0.978577,0.134583,15.975610,3.048780,10.060976
1548456202647,-0.269226,-0.976318,0.135254,16.524391,2.987805,9.939025
1548456202676,-0.241394,-0.977478,0.132141,17.439024,3.109756,10.548780
1548456202677,-0.257385,-0.957764,0.119690,17.987804,1.036585,10.975610
1548456202678,-0.381287,-0.995605,0.189148,18.231709,-12.134147,8.170732
1548456202684,-0.276672,-0.976440,0.160278,20.975611,-6.219512,11.768293
1548456202699,-0.274170,-0.966553,0.150085,20.548780,6.158537,10.365854
1548456202707,-0.290283,-0.973450,0.158081,18.048780,3.536585,9.756098
1548456202729,-0.281128,-0.971558,0.165283,18.719513,3.597561,11.707317
1548456202737,-0.250488,-0.965942,0.153931,18.902439,3.231707,11.402439
1548456202737,-0.360901,-0.969116,0.188843,18.109756,-2.500000,9.451220
1548456202744,-0.304260,-0.973022,0.182922,17.926830,-4.634146,10.365854
1548456202752,-0.288147,-0.966248,0.176819,18.353659,3.963415,10.365854
1548456202789,-0.300354,-0.967224,0.178589,16.158537,2.926829,8.780488
1548456202790,-0.304993,-0.966125,0.183044,15.000000,2.560976,9.573171
1548456202790,-0.301086,-0.962952,0.182251,14.634147,2.682927,9.390244
1548456202797,-0.290222,-0.964172,0.180115,13.780488,2.317073,8.658537
1548456202804,-0.298889,-0.961548,0.184387,13.231708,1.646341,8.414635
1548456202812,-0.319397,-0.960693,0.193604,13.109756,-0.914634,8.170732
1548456202841,-0.318176,-0.962952,0.194214,12.743903,-0.731707,8.475610
1548456202842,-0.315369,-0.958252,0.195190,11.951220,0.609756,7.987805
1548456202849,-0.309509,-0.958313,0.193176,10.975610,2.256098,7.865854
1548456202857,-0.289551,-0.961426,0.189148,10.182927,2.804878,7.621952
1548456202871,-0.317871,-0.958862,0.200195,10.182927,1.707317,7.378049
1548456202872,-0.332214,-0.959656,0.204407,9.634147,-2.012195,6.890244
1548456202894,-0.310669,-0.957947,0.200684,9.390244,-1.402439,6.829268
1548456202895,-0.315796,-0.952087,0.194397,9.146341,-0.609756,5.670732
1548456202902,-0.311951,-0.956665,0.198059,8.963415,-0.914634,5.914634
1548456202917,-0.321838,-0.953918,0.207214,9.878049,-0.670732,6.463415
1548456202924,-0.323303,-0.956055,0.215149,10.121951,-1.219512,6.707317
1548456202954,-0.320068,-0.956665,0.212646,9.207317,-1.097561,6.524390
1548456202962,-0.317322,-0.954834,0.205566,7.439024,-0.914634,6.097561
1548456202962,-0.320862,-0.953430,0.204346,6.219512,-0.975610,5.853659
1548456202963,-0.323120,-0.951721,0.207947,6.280488,-1.402439,6.097561
1548456202977,-0.317932,-0.954773,0.213135,6.890244,-1.158537,6.585366
1548456202984,-0.324646,-0.950317,0.215454,7.073171,-1.158537,6.707317
1548456203014,-0.325989,-0.952637,0.211426,6.158537,-1.646341,6.890244
1548456203015,-0.328064,-0.950195,0.212708,5.365854,-1.707317,6.890244
1548456203016,-0.329041,-0.948059,0.216309,4.939024,-2.378049,7.012195
1548456203022,-0.329773,-0.953308,0.223694,4.634146,-2.804878,7.195122
1548456203037,-0.329712,-0.957581,0.219299,3.658537,-2.926829,7.073171
1548456203066,-0.327332,-0.951538,0.215149,2.317073,-1.280488,8.841464
1548456203067,-0.338196,-0.942261,0.212769,1.646341,0.182927,10.609756
1548456203068,-0.335327,-0.949280,0.218384,1.951220,1.158537,11.829268
1548456203074,-0.339600,-0.942078,0.216187,2.134146,2.621951,12.682927
1548456203082,-0.345398,-0.952576,0.223633,1.951220,1.890244,12.073171
1548456203119,-0.343384,-0.944031,0.215271,1.463415,1.585366,11.524390
1548456203120,-0.348938,-0.922363,0.213501,-0.304878,3.170732,12.560976
1548456203120,-0.356567,-0.931885,0.223389,-1.158537,0.121951,10.304878
1548456203127,-0.339539,-0.965576,0.224976,-0.304878,-1.585366,7.195122
1548456203134,-0.335754,-0.972839,0.216125,-0.182927,0.243902,7.134147
1548456203142,-0.347229,-0.945618,0.201355,-2.256098,3.536585,11.707317
1548456203179,-0.369629,-0.915039,0.205017,-3.841464,4.451220,14.207317
1548456203179,-0.365295,-0.927734,0.204468,-2.256098,2.926829,12.804878
1548456203180,-0.356140,-0.935059,0.199158,1.646341,3.292683,10.670732
1548456203187,-0.354431,-0.927795,0.195862,3.902439,4.390244,10.670732
1548456203194,-0.361816,-0.943237,0.206726,5.121951,2.560976,8.353659
1548456203202,-0.365662,-0.941406,0.226685,4.756098,1.097561,8.658537
1548456203232,-0.358887,-0.934692,0.221558,3.780488,1.524390,9.573171
1548456203232,-0.358887,-0.929626,0.209229,3.719512,2.012195,9.939025
1548456203233,-0.362976,-0.933228,0.211731,2.865854,2.073171,9.390244
1548456203247,-0.365845,-0.934509,0.215332,1.829268,1.707317,8.719512
1548456203254,-0.372314,-0.927612,0.211487,2.134146,1.402439,8.719512
1548456203262,-0.369995,-0.927246,0.205811,3.719512,0.975610,8.597561
1548456203284,-0.372864,-0.937866,0.205566,4.207317,1.036585,8.109756
1548456203285,-0.377808,-0.935730,0.211304,3.902439,0.000000,7.012195
1548456203292,-0.380005,-0.926941,0.216736,2.987805,-0.304878,6.524390
1548456203314,-0.376221,-0.924377,0.214844,1.951220,-0.121951,6.402439
1548456203315,-0.374939,-0.927307,0.215454,1.890244,-0.060976,5.731708
1548456203336,-0.374878,-0.931763,0.216553,2.500000,-0.853659,4.817073
1548456203337,-0.372681,-0.937744,0.218689,2.865854,-1.158537,4.207317
1548456203344,-0.374084,-0.940430,0.220764,2.743902,-1.280488,4.024390
1548456203352,-0.381470,-0.934692,0.220764,1.829268,-1.402439,4.390244
1548456203374,-0.379883,-0.927612,0.221497,1.219512,-1.280488,4.878049
1548456203375,-0.375427,-0.924622,0.226196,0.975610,-0.548781,5.487805
1548456203382,-0.377869,-0.931396,0.227051,1.341463,0.060976,5.609756
1548456203397,-0.379272,-0.937866,0.223145,2.378049,0.426829,5.975610
1548456203426,-0.379639,-0.939209,0.221436,2.378049,0.609756,6.524390
1548456203427,-0.377869,-0.937805,0.216980,1.341463,0.792683,7.317073
1548456203428,-0.389038,-0.927856,0.212158,0.548781,0.548781,7.804878
1548456203449,-0.393799,-0.927673,0.219116,0.670732,0.121951,7.926829
1548456203450,-0.391296,-0.920471,0.216248,1.463415,0.121951,7.865854
1548456203450,-0.388550,-0.927246,0.221741,1.890244,0.548781,7.926829
1548456203464,-0.390381,-0.924072,0.223877,1.768293,0.121951,7.621952
1548456203487,-0.390686,-0.933472,0.228027,1.280488,0.304878,8.414635
1548456203487,-0.390808,-0.935242,0.227295,1.280488,0.426829,8.963415
1548456203502,-0.391907,-0.926697,0.220886,1.341463,0.609756,9.451220
1548456203502,-0.399536,-0.921570,0.219604,0.975610,1.097561,9.939025
1548456203531,-0.402039,-0.915161,0.216980,1.158537,1.280488,10.182927
1548456203532,-0.400940,-0.916687,0.216614,1.341463,2.317073,10.792684
1548456203533,-0.403748,-0.921570,0.219421,1.646341,2.682927,11.036586
1548456203547,-0.408691,-0.924133,0.223755,2.134146,2.439024,11.036586
1548456203561,-0.408447,-0.915710,0.222778,2.134146,2.195122,10.914635
1548456203562,-0.406738,-0.915527,0.220398,1.829268,2.134146,10.792684
1548456203592,-0.405457,-0.913879,0.219421,1.585366,2.012195,10.304878
1548456203592,-0.409180,-0.910645,0.218506,1.585366,1.707317,9.695122
1548456203614,-0.408630,-0.914490,0.217346,1.280488,1.341463,9.390244
1548456203615,-0.413696,-0.918457,0.217285,1.951220,1.036585,9.451220
1548456203615,-0.416931,-0.918091,0.212097,2.621951,0.914634,9.390244
1548456203644,-0.419861,-0.914368,0.211914,2.195122,1.158537,9.207317
1548456203651,-0.419189,-0.907410,0.213684,1.585366,0.914634,8.658537
1548456203652,-0.416992,-0.902832,0.217285,1.097561,0.548781,7.865854
1548456203653,-0.419250,-0.905457,0.222229,1.341463,0.000000,7.134147
1548456203711,-0.421204,-0.906555,0.227844,1.707317,-0.304878,6.219512
1548456203712,-0.422241,-0.908936,0.228882,2.012195,-0.365854,5.609756
1548456203713,-0.421997,-0.913452,0.226807,2.012195,0.000000,5.243903
1548456203719,-0.421814,-0.904907,0.217102,2.560976,0.304878,5.060976
1548456203720,-0.422729,-0.904907,0.220642,2.378049,0.548781,5.060976
1548456203727,-0.426331,-0.905212,0.219421,2.560976,0.000000,4.573171
1548456203727,-0.430969,-0.904053,0.217834,3.536585,-0.304878,3.902439
1548456203756,-0.429016,-0.904541,0.221619,3.963415,-0.853659,2.926829
1548456203757,-0.426270,-0.907654,0.224792,3.658537,-1.402439,1.646341
1548456203758,-0.424194,-0.910950,0.229309,2.926829,-2.012195,0.548781
1548456203764,-0.423950,-0.910400,0.229492,1.890244,-2.317073,0.000000
1548456203772,-0.424133,-0.909912,0.227478,1.219512,-2.012195,-0.182927
1548456203817,-0.423584,-0.910095,0.223389,1.402439,-1.463415,0.121951
1548456203817,-0.423584,-0.911377,0.220337,2.073171,-0.914634,0.548781
1548456203818,-0.426758,-0.910278,0.221741,2.621951,-0.670732,0.731707
1548456203824,-0.426270,-0.907776,0.223816,3.109756,-0.853659,0.792683
1548456203825,-0.425537,-0.908203,0.224792,3.475610,-1.219512,0.548781
1548456203832,-0.426086,-0.911255,0.228943,3.536585,-1.463415,0.426829
1548456203869,-0.425110,-0.913635,0.229004,3.292683,-1.829268,0.426829
1548456203870,-0.423889,-0.912903,0.229309,2.926829,-1.768293,0.609756
1548456203891,-0.422363,-0.911743,0.228760,2.195122,-1.646341,0.914634
1548456203892,-0.423401,-0.907959,0.227112,1.524390,-1.280488,1.463415
1548456203893,-0.423828,-0.906616,0.225830,1.951220,-0.853659,2.073171
1548456203921,-0.424255,-0.908203,0.226074,2.926829,-0.731707,2.500000
1548456203922,-0.428894,-0.909363,0.227905,3.719512,-1.036585,2.682927
1548456203929,-0.429504,-0.909851,0.233948,4.329268,-1.402439,2.743902
1548456203930,-0.426147,-0.908752,0.234192,4.451220,-1.585366,2.926829
1548456203930,-0.426575,-0.905823,0.235596,4.146341,-1.585366,3.048780
1548456203944,-0.425476,-0.908569,0.236694,3.414634,-1.402439,3.170732
1548456203959,-0.426086,-0.907654,0.234253,3.170732,-1.097561,3.353659
1548456203982,-0.428894,-0.906372,0.231812,3.109756,-0.609756,3.536585
1548456203982,-0.429077,-0.906616,0.232727,2.682927,-0.487805,3.597561
1548456203983,-0.431458,-0.901306,0.230408,2.378049,-0.609756,3.719512
1548456203997,-0.431213,-0.902039,0.233704,2.560976,-1.036585,3.414634
1548456204004,-0.431274,-0.902771,0.238647,2.987805,-1.341463,2.865854
1548456204034,-0.431030,-0.902832,0.241516,3.231707,-1.585366,2.378049
1548456204035,-0.433472,-0.905701,0.239746,2.926829,-1.768293,1.951220
1548456204036,-0.431458,-0.907471,0.238098,2.378049,-1.646341,1.768293
1548456204042,-0.431152,-0.906250,0.236389,2.012195,-0.975610,1.768293
1548456204057,-0.432678,-0.903625,0.233887,1.402439,-0.365854,2.134146
1548456204064,-0.435913,-0.898682,0.235352,1.158537,-0.121951,2.256098
1548456204072,-0.433533,-0.898560,0.234009,1.585366,-0.060976,2.012195
1548456204094,-0.432373,-0.900024,0.236023,2.317073,-0.548781,1.341463
1548456204095,-0.431091,-0.902588,0.236450,2.682927,-1.280488,0.670732
1548456204102,-0.431824,-0.904419,0.241089,2.378049,-1.951220,0.304878
1548456204117,-0.431641,-0.906982,0.244385,1.890244,-2.012195,0.182927
1548456204124,-0.430908,-0.907166,0.245544,1.829268,-1.585366,0.365854
1548456204147,-0.429138,-0.904968,0.245605,1.402439,-0.670732,0.731707
1548456204147,-0.432983,-0.903564,0.242371,0.975610,0.243902,1.219512
1548456204154,-0.434021,-0.902710,0.237488,0.731707,0.731707,1.646341
1548456204162,-0.436279,-0.899353,0.233765,0.731707,0.853659,1.768293
1548456204184,-0.435913,-0.899658,0.235046,0.670732,0.426829,1.524390
1548456204199,-0.436096,-0.899658,0.235718,0.609756,-0.060976,0.853659
1548456204200,-0.434265,-0.898987,0.237305,0.975610,-0.792683,0.060976
1548456204207,-0.433228,-0.904297,0.244141,1.158537,-1.341463,-0.487805
1548456204214,-0.430603,-0.908936,0.247314,0.975610,-1.707317,-1.036585
1548456204222,-0.428833,-0.907104,0.242981,0.121951,-1.585366,-1.036585
1548456204237,-0.430908,-0.903870,0.238831,-0.426829,-0.975610,-0.731707
1548456204259,-0.433960,-0.896973,0.236938,-0.365854,-0.609756,-0.365854
1548456204259,-0.433228,-0.898499,0.237976,-0.121951,-0.609756,-0.243902
1548456204267,-0.434753,-0.901184,0.237061,0.243902,-0.975610,-0.731707
1548456204274,-0.430908,-0.906433,0.239136,0.731707,-1.463415,-1.219512
1548456204282,-0.429077,-0.905701,0.238464,0.792683,-1.890244,-1.524390
1548456204312,-0.430847,-0.905823,0.237671,0.182927,-2.073171,-1.280488
1548456204312,-0.431519,-0.907532,0.239502,-0.060976,-1.707317,-0.792683
1548456204313,-0.432007,-0.906250,0.238770,0.000000,-0.914634,-0.121951
1548456204327,-0.432556,-0.902893,0.234985,0.121951,-0.426829,0.426829
1548456204334,-0.431152,-0.900146,0.232544,0.243902,-0.670732,0.426829
1548456204342,-0.426819,-0.900269,0.235718,0.609756,-1.280488,0.060976
1548456204364,-0.427795,-0.901917,0.235291,0.914634,-1.890244,-0.365854
1548456204372,-0.433960,-0.904236,0.239014,1.280488,-2.682927,-0.609756
1548456204372,-0.429260,-0.905701,0.238586,1.707317,-2.500000,-0.365854
1548456204387,-0.430603,-0.907593,0.240967,2.073171,-2.195122,-0.304878
1548456204394,-0.431702,-0.904114,0.242371,2.134146,-1.951220,-0.182927
1548456204402,-0.431213,-0.903076,0.244629,2.134146,-1.402439,0.304878
1548456204432,-0.432495,-0.902954,0.245483,2.134146,-0.975610,0.548781
1548456204433,-0.431458,-0.900818,0.242432,2.012195,-0.731707,0.548781
1548456204439,-0.427734,-0.898804,0.239807,2.073171,-0.609756,0.182927
1548456204447,-0.427124,-0.899231,0.239441,2.195122,-0.731707,-0.243902
1548456204477,-0.429932,-0.903076,0.240906,2.195122,-1.158537,-0.792683
1548456204484,-0.429077,-0.902527,0.246460,2.134146,-1.463415,-1.280488
1548456204485,-0.438538,-0.900696,0.244568,2.195122,-1.707317,-1.646341
1548456204485,-0.432068,-0.900452,0.244812,2.134146,-1.829268,-2.073171
1548456204492,-0.435364,-0.903931,0.246521,2.073171,-1.341463,-2.195122
1548456204514,-0.428040,-0.899292,0.246216,1.890244,-1.768293,-2.865854
1548456204515,-0.427246,-0.901123,0.243286,1.524390,-1.768293,-3.414634
1548456204537,-0.426392,-0.905151,0.245300,1.280488,-2.256098,-4.085366
1548456204537,-0.424927,-0.902893,0.248169,1.585366,-2.500000,-4.451220
1548456204544,-0.424011,-0.908936,0.248169,1.646341,-2.195122,-4.695122
1548456204552,-0.422913,-0.910034,0.246887,1.280488,-1.951220,-4.878049
1548456204589,-0.418213,-0.907166,0.245544,0.792683,-2.073171,-4.817073
1548456204596,-0.419739,-0.900879,0.245605,0.000000,-2.134146,-4.695122
1548456204597,-0.418640,-0.901123,0.248230,-0.609756,-2.195122,-4.573171
1548456204598,-0.423523,-0.906982,0.248779,-0.426829,-2.317073,-4.817073
1548456204612,-0.419006,-0.906311,0.244690,0.426829,-2.500000,-5.000000
1548456204649,-0.418884,-0.909912,0.244385,0.914634,-1.951220,-4.695122
1548456204650,-0.422852,-0.913147,0.247375,0.975610,-2.012195,-4.817073
1548456204650,-0.414673,-0.909973,0.242798,1.341463,-2.073171,-4.695122
1548456204664,-0.409973,-0.907898,0.239685,1.463415,-1.646341,-4.329268
1548456204665,-0.415894,-0.908813,0.247559,1.158537,-1.890244,-4.085366
1548456204672,-0.417542,-0.910706,0.248291,1.097561,-2.560976,-4.085366
1548456204673,-0.413818,-0.911438,0.246094,1.219512,-2.621951,-3.902439
1548456204702,-0.411133,-0.909973,0.246765,1.219512,-2.134146,-3.597561
1548456204702,-0.412170,-0.909424,0.246277,1.280488,-2.073171,-3.536585
1548456204703,-0.414368,-0.910156,0.251099,1.402439,-2.256098,-3.475610
1548456204724,-0.409546,-0.910339,0.251770,1.707317,-2.378049,-3.414634
1548456204725,-0.410278,-0.913208,0.251099,1.707317,-2.012195,-3.353659
1548456204732,-0.410217,-0.914246,0.255920,1.707317,-2.073171,-3.231707
1548456204762,-0.409729,-0.910461,0.255188,1.341463,-1.707317,-2.804878
1548456204762,-0.408752,-0.911133,0.256958,0.609756,-1.280488,-2.560976
1548456204763,-0.411194,-0.908569,0.255188,-0.365854,-1.219512,-2.500000
1548456204777,-0.409424,-0.909607,0.252380,-0.731707,-1.341463,-2.621951
1548456204784,-0.408813,-0.913208,0.250732,-0.487805,-1.402439,-2.865854
1548456204792,-0.407349,-0.914795,0.252258,-0.365854,-1.402439,-2.987805
1548456204814,-0.407532,-0.911377,0.251770,-0.670732,-1.036585,-2.865854
1548456204815,-0.405762,-0.911438,0.253601,-1.158537,-0.853659,-2.560976
1548456204822,-0.406555,-0.910950,0.254150,-1.280488,-0.731707,-2.378049
1548456204844,-0.404724,-0.910400,0.249329,-1.097561,-0.670732,-2.378049
1548456204874,-0.404297,-0.912109,0.252441,-1.219512,-0.426829,-2.317073
1548456204881,-0.404602,-0.915039,0.253113,-1.280488,-0.182927,-2.195122
1548456204882,-0.404846,-0.913086,0.249756,-1.524390,0.000000,-2.134146
1548456204883,-0.403442,-0.913940,0.250977,-1.707317,0.304878,-2.195122
1548456204889,-0.403259,-0.915527,0.248657,-2.073171,0.487805,-2.134146
1548456204904,-0.404968,-0.915344,0.242554,-2.378049,0.853659,-1.829268
1548456204905,-0.406250,-0.911072,0.240356,-2.621951,1.097561,-1.829268
1548456204927,-0.403015,-0.913086,0.240112,-2.439024,1.097561,-2.134146
1548456204927,-0.403076,-0.909302,0.242065,-2.256098,0.670732,-2.439024
1548456204934,-0.402161,-0.912720,0.244507,-1.829268,0.304878,-2.865854
1548456204949,-0.401672,-0.912292,0.244324,-1.280488,-0.182927,-3.414634
1548456204979,-0.399841,-0.912964,0.246277,-1.036585,-0.609756,-3.841464
1548456204979,-0.399231,-0.914673,0.246216,-1.158537,-1.097561,-4.329268
1548456204987,-0.399902,-0.917236,0.244141,-1.585366,-1.341463,-4.695122
1548456204987,-0.397278,-0.917725,0.244141,-2.073171,-1.402439,-4.878049
1548456204994,-0.398254,-0.917542,0.243774,-2.439024,-1.402439,-5.060976
1548456205002,-0.394592,-0.920898,0.241699,-2.682927,-1.097561,-4.939024
1548456205017,-0.394775,-0.918945,0.242249,-2.378049,-0.670732,-4.817073
1548456205062,-0.394226,-0.917358,0.241821,-2.195122,-0.304878,-4.695122
1548456205062,-0.392578,-0.916077,0.238892,-2.256098,0.000000,-4.390244
1548456205063,-0.394470,-0.917847,0.237671,-1.646341,0.060976,-4.085366
1548456205069,-0.393982,-0.919678,0.235840,-1.036585,0.060976,-3.841464
1548456205070,-0.393982,-0.919006,0.234802,-0.914634,-0.182927,-4.024390
1548456205070,-0.391541,-0.920166,0.236572,-0.853659,-0.548781,-4.207317
1548456205092,-0.391602,-0.921265,0.237793,-0.792683,-1.158537,-4.634146
1548456205093,-0.387939,-0.920654,0.242554,-0.792683,-1.768293,-5.060976
1548456205107,-0.388000,-0.920654,0.242493,-0.853659,-2.012195,-5.365854
1548456205114,-0.386108,-0.921326,0.241394,-0.792683,-1.890244,-5.365854
1548456205122,-0.383728,-0.922363,0.244141,-0.914634,-1.280488,-5.060976
1548456205152,-0.385498,-0.921753,0.240173,-0.975610,-0.731707,-4.573171
1548456205152,-0.385071,-0.920227,0.238037,-0.792683,-0.365854,-4.207317
1548456205153,-0.386841,-0.921448,0.238159,-0.487805,-0.243902,-4.085366
1548456205174,-0.386963,-0.922974,0.237915,-0.365854,-0.304878,-4.268293
1548456205175,-0.384644,-0.924133,0.239563,-0.121951,-0.548781,-4.878049
1548456205182,-0.382263,-0.922607,0.238464,-0.487805,-0.975610,-5.426829
1548456205205,-0.382629,-0.920715,0.241150,-1.036585,-1.341463,-5.853659
1548456205205,-0.378296,-0.920532,0.239563,-1.524390,-1.463415,-6.402439
1548456205212,-0.377625,-0.923584,0.240234,-1.585366,-1.707317,-6.829268
1548456205227,-0.379395,-0.920959,0.241211,-1.768293,-1.890244,-7.195122
1548456205242,-0.377869,-0.924011,0.236511,-1.829268,-2.073171,-7.500000
1548456205264,-0.377136,-0.924133,0.232788,-1.219512,-2.317073,-7.743903
1548456205265,-0.374756,-0.927734,0.237549,-1.158537,-2.682927,-8.353659
1548456205265,-0.371826,-0.927979,0.234436,-1.280488,-3.109756,-8.963415
1548456205294,-0.368835,-0.925537,0.237000,-1.158537,-3.536585,-9.268292
1548456205294,-0.368469,-0.927063,0.240845,-1.219512,-3.719512,-9.390244
1548456205295,-0.366333,-0.930237,0.238037,-0.975610,-3.841464,-9.329268
1548456205316,-0.364807,-0.935059,0.236023,-0.914634,-3.841464,-9.329268
1548456205317,-0.362183,-0.934204,0.237610,-0.853659,-3.902439,-9.146341
1548456205347,-0.362915,-0.931030,0.236023,-0.975610,-3.841464,-8.841464
1548456205347,-0.362427,-0.933167,0.239319,-1.524390,-3.658537,-8.902439
1548456205348,-0.359619,-0.933655,0.237854,-1.646341,-3.780488,-8.963415
1548456205354,-0.358154,-0.934875,0.239502,-1.646341,-3.841464,-8.841464
1548456205362,-0.356262,-0.935669,0.238647,-1.585366,-3.963415,-8.536586
1548456205377,-0.353760,-0.935669,0.236816,-1.463415,-3.780488,-8.353659
1548456205407,-0.352600,-0.938965,0.236267,-1.341463,-3.841464,-8.414635
1548456205407,-0.348267,-0.938293,0.233948,-1.097561,-3.719512,-8.109756
1548456205408,-0.350708,-0.935242,0.235352,-1.402439,-3.841464,-7.804878
1548456205421,-0.349426,-0.937378,0.234741,-1.463415,-3.902439,-7.621952
1548456205422,-0.348633,-0.941467,0.235901,-1.158537,-3.902439,-7.682927
1548456205459,-0.344360,-0.937805,0.236450,-1.219512,-3.841464,-7.804878
1548456205460,-0.341980,-0.941650,0.238220,-1.524390,-3.780488,-7.865854
1548456205460,-0.338928,-0.941284,0.237305,-1.890244,-3.963415,-7.682927
1548456205467,-0.339661,-0.939270,0.235718,-1.951220,-3.841464,-7.439024
1548456205474,-0.340759,-0.938049,0.235413,-2.134146,-3.719512,-7.317073
1548456205482,-0.339478,-0.940308,0.235107,-2.134146,-3.841464,-7.256098
1548456205512,-0.338989,-0.939453,0.236145,-2.195122,-3.963415,-7.195122
1548456205519,-0.335754,-0.940735,0.236877,-2.256098,-3.841464,-7.378049
1548456205520,-0.333801,-0.943237,0.234741,-2.804878,-4.024390,-7.926829
1548456205520,-0.330933,-0.942749,0.234314,-3.536585,-4.390244,-8.231708
1548456205534,-0.330627,-0.943604,0.232117,-4.207317,-4.512195,-8.475610
1548456205564,-0.329712,-0.938171,0.232178,-4.451220,-4.512195,-8.475610
1548456205572,-0.330566,-0.942322,0.229797,-4.390244,-4.451220,-8.536586
1548456205572,-0.326782,-0.945312,0.230347,-4.268293,-4.756098,-9.024390
1548456205573,-0.326599,-0.942627,0.229126,-4.390244,-5.121951,-9.512196
1548456205579,-0.322998,-0.941833,0.230103,-4.451220,-5.548780,-9.939025
1548456205594,-0.322327,-0.943726,0.226562,-4.390244,-5.975610,-10.609756
1548456205610,-0.308960,-0.966736,0.234741,-3.902439,-6.097561,-10.975610
1548456205617,-0.301575,-0.960449,0.235107,-3.475610,-5.548780,-10.548780
1548456205624,-0.317749,-0.946594,0.234253,-5.670732,-2.317073,-5.853659
1548456205632,-0.317383,-0.949890,0.231079,-6.951220,-2.073171,-3.719512
1548456205639,-0.311096,-0.953552,0.228882,-7.560976,-2.012195,-4.329268
1548456205669,-0.310486,-0.951782,0.224915,-8.536586,-2.134146,-4.756098
1548456205669,-0.314270,-0.950256,0.222534,-9.573171,-2.256098,-4.512195
1548456205670,-0.315491,-0.948120,0.222107,-9.817074,-2.439024,-4.390244
1548456205684,-0.334167,-0.939392,0.218750,-9.756098,-2.256098,-4.512195
1548456205692,-0.286499,-0.969788,0.223450,-9.756098,-2.012195,-5.243903
1548456205699,-0.306946,-0.958862,0.220520,-9.512196,-2.317073,-7.682927
1548456205722,-0.321655,-0.946594,0.216919,-10.670732,-3.292683,-4.817073
1548456205722,-0.291626,-0.963867,0.217712,-11.097561,-2.378049,-5.060976
1548456205729,-0.308350,-0.958557,0.212524,-11.524390,-2.621951,-5.670732
1548456205744,-0.311462,-0.955444,0.207397,-11.829268,-2.621951,-3.902439
1548456205782,-0.302673,-0.958374,0.204651,-11.524390,-2.073171,-3.963415
1548456205782,-0.302917,-0.958496,0.205078,-11.036586,-1.768293,-4.512195
1548456205783,-0.316833,-0.951843,0.204712,-10.609756,-2.195122,-4.329268
1548456205789,-0.376099,-0.867249,0.143677,-10.243902,-1.829268,-4.451220
1548456205790,-0.187561,-1.067749,0.262512,-5.975610,-8.109756,-14.451220
1548456205804,-0.300293,-0.950378,0.199646,-1.219512,-7.073171,-18.963415
1548456205812,-0.310730,-0.952148,0.206726,-9.085366,-1.463415,-0.182927
1548456205819,-0.296204,-0.961792,0.188660,-9.939025,-2.134146,-1.951220
1548456205842,-0.293213,-0.961975,0.194397,-10.853659,-1.951220,-4.634146
1548456205842,-0.296936,-0.959106,0.193604,-10.060976,-2.317073,-4.756098
1548456205849,-0.291077,-0.960327,0.194275,-9.634147,-2.134146,-4.573171
1548456205864,-0.289368,-0.960449,0.191711,-9.817074,-2.195122,-5.060976
1548456205872,-0.290955,-0.963379,0.185852,-10.670732,-2.500000,-4.817073
1548456205887,-0.289368,-0.966919,0.189758,-10.975610,-2.378049,-4.634146
1548456205894,-0.290100,-0.961121,0.184814,-10.548780,-2.256098,-4.634146
1548456205902,-0.289673,-0.975525,0.188599,-10.487805,-2.317073,-4.573171
1548456205917,-0.286377,-0.967896,0.183289,-10.121951,-2.439024,-4.817073
1548456205924,-0.286560,-0.968872,0.182129,-9.939025,-2.500000,-5.243903
1548456205932,-0.286377,-0.969238,0.183777,-9.756098,-2.621951,-5.060976
1548456205939,-0.283569,-0.970154,0.183655,-9.817074,-2.804878,-5.121951
1548456205954,-0.285217,-0.970276,0.182251,-10.487805,-2.682927,-5.243903
1548456205962,-0.283752,-0.971558,0.175232,-11.219512,-2.500000,-5.243903
1548456205969,-0.282471,-0.972839,0.172791,-11.890244,-2.317073,-5.365854
1548456205984,-0.275635,-0.969788,0.168884,-12.256098,-2.073171,-5.487805
1548456205999,-0.280701,-0.964966,0.165466,-12.378049,-2.134146,-5.304878
1548456206000,-0.282104,-0.971375,0.167419,-12.317074,-2.500000,-5.548780
1548456206014,-0.276672,-0.977112,0.170166,-11.890244,-2.256098,-6.280488
1548456206022,-0.273499,-0.972595,0.165649,-12.195122,-2.439024,-6.524390
1548456206029,-0.275940,-0.971741,0.161987,-12.682927,-2.195122,-6.158537
1548456206052,-0.275330,-0.971558,0.150940,-13.048780,-2.317073,-5.609756
1548456206059,-0.270569,-0.972656,0.151672,-12.682927,-1.768293,-5.609756
