timestamp, accel_x, accel_y, accel_z, gyro_x, gyro_y, gyro_z
1548457128464,-0.923340,0.010864,-0.204468,5.914634,54.878052,-17.500000
1548457128472,-0.953735,-0.034729,-0.243225,-10.548780,38.475609,-14.939025
1548457128487,-0.912842,0.068298,-0.272400,-12.500000,17.926830,-12.134147
1548457128494,-0.928406,0.045288,-0.199585,0.000000,4.207317,-5.304878
1548457128502,-1.060730,0.008057,-0.213196,-9.817074,0.243902,-7.743903
1548457128517,-1.134033,0.036438,-0.198730,-10.000000,10.000000,-4.390244
1548457128524,-1.120544,-0.013977,-0.224060,-8.414635,21.585367,-4.268293
1548457128531,-0.948059,0.118408,-0.236938,-11.402439,23.170732,-2.804878
1548457128548,-0.955444,0.046570,-0.236389,-11.158537,13.902439,-3.475610
1548457128554,-1.017334,0.077759,-0.253479,-20.853659,6.951220,-7.012195
1548457128569,-1.040466,0.088135,-0.228149,-18.475611,5.792683,-6.768293
1548457128577,-0.997803,0.085938,-0.238098,-12.439025,-0.731707,-5.853659
1548457128584,-1.032410,0.085876,-0.250610,-11.097561,-8.292683,-2.926829
1548457128591,-1.054382,0.099792,-0.248169,-7.621952,-11.097561,-1.036585
1548457128606,-1.020752,0.093567,-0.247925,-3.597561,-15.000000,-2.865854
1548457128614,-0.991699,0.075867,-0.249084,-4.024390,-23.536587,-4.024390
1548457128621,-1.030762,0.077515,-0.241211,-3.170732,-29.207317,-1.890244
1548457128636,-1.075317,0.086731,-0.249146,0.000000,-29.085367,1.219512
1548457128644,-0.978821,0.082397,-0.250977,1.341463,-27.743902,2.012195
1548457128652,-1.065125,0.046509,-0.239441,3.109756,-27.560976,0.975610
1548457128666,-1.058899,0.049683,-0.265747,5.731708,-26.768293,0.487805
1548457128674,-1.029480,0.048889,-0.261169,0.609756,-7.134147,-2.195122
1548457128681,-1.020325,0.025330,-0.276367,-0.487805,-6.219512,-8.963415
1548457128697,-0.962463,0.052856,-0.263916,-2.317073,-10.426829,-11.158537
1548457128704,-0.989197,0.011292,-0.224731,-0.365854,-11.768293,-10.487805
1548457128711,-0.965149,0.017883,-0.234070,2.378049,-10.365854,-10.365854
1548457128726,-0.969482,0.014771,-0.231201,3.048780,4.451220,-10.121951
1548457128734,-1.002930,-0.001892,-0.204529,5.365854,15.426829,-7.621952
1548457128741,-0.951782,0.080994,-0.233459,9.878049,19.573172,-1.036585
1548457128756,-1.020386,0.009155,-0.204407,9.878049,23.353659,4.146341
1548457128764,-1.044067,-0.016418,-0.174622,10.426829,18.536585,1.646341
1548457128771,-1.009033,-0.010437,-0.164551,10.548780,10.731708,0.365854
1548457128786,-0.991211,-0.029175,-0.202087,6.463415,11.585366,-1.890244
1548457128794,-0.975952,0.057312,-0.227844,-3.170732,23.780489,1.768293
1548457128801,-0.969116,0.027527,-0.202332,-6.829268,27.317074,0.487805
1548457128816,-1.037964,-0.018433,-0.221252,1.951220,34.085365,-3.780488
1548457128824,-1.050049,-0.017151,-0.215149,6.097561,37.439026,-6.158537
1548457128831,-1.025208,-0.023315,-0.216248,1.280488,38.414635,-7.804878
1548457128846,-1.009277,0.018250,-0.200806,-2.865854,40.487804,-11.402439
1548457128854,-0.929443,0.067810,-0.208313,-5.304878,42.682926,-10.609756
1548457128861,-0.947266,0.075989,-0.215393,-8.536586,41.463417,-7.439024
1548457128876,-0.966736,0.078491,-0.228027,-10.060976,32.500000,-3.780488
1548457128884,-0.966309,0.068298,-0.233704,-10.731708,29.024391,-2.804878
1548457128899,-0.956299,0.057922,-0.251343,-12.195122,28.597561,-2.195122
1548457128906,-0.982483,0.031738,-0.249634,-12.012196,27.682928,-2.378049
1548457128914,-1.000671,0.033630,-0.243286,-11.341464,26.524391,-3.109756
1548457128929,-1.003967,0.042053,-0.243713,-12.500000,28.841465,-4.207317
1548457128937,-0.994690,0.019409,-0.257568,-15.243903,27.012196,-5.121951
1548457128944,-0.983582,0.043457,-0.252136,-16.585365,29.634148,-8.475610
1548457128951,-1.015930,0.056946,-0.250854,-18.353659,25.853659,-9.756098
1548457128966,-1.015015,0.056641,-0.241943,-13.536586,20.487804,-10.792684
1548457128974,-1.027466,0.036743,-0.273132,-14.146341,12.439025,-10.060976
1548457128981,-1.074158,-0.000854,-0.288574,-16.463415,10.426829,-11.463415
1548457129004,-1.011353,0.021912,-0.286621,-15.670732,5.426829,-13.841464
1548457129004,-0.926453,0.019165,-0.286316,-13.902439,5.914634,-15.487805
1548457129012,-0.957947,0.000000,-0.313049,-15.365854,5.670732,-15.548780
1548457129027,-0.999207,0.021362,-0.349060,-14.329268,-3.353659,-10.914635
1548457129034,-1.004578,0.029419,-0.353394,-12.439025,-6.707317,-5.914634
1548457129041,-1.021240,0.035034,-0.329224,-11.524390,-3.353659,-3.658537
1548457129056,-0.972534,0.064392,-0.314514,-11.951220,-2.560976,-2.865854
1548457129065,-0.948120,0.066528,-0.317200,-13.475610,-4.939024,-4.451220
1548457129072,-0.997375,0.034668,-0.336182,-14.451220,-8.353659,-3.475610
1548457129086,-0.994263,0.031311,-0.359192,-12.865854,-9.268292,-1.585366
1548457129094,-0.968994,0.042603,-0.358765,-9.390244,-10.060976,-1.707317
1548457129102,-0.965332,0.053223,-0.344116,-4.329268,-12.682927,-0.487805
1548457129117,-0.985962,0.052734,-0.329651,-0.670732,-12.012196,0.304878
1548457129124,-0.979858,0.026550,-0.321960,-0.853659,-9.756098,0.121951
1548457129132,-0.998840,0.002686,-0.328979,-2.621951,-8.719512,-1.951220
1548457129147,-1.014648,0.016846,-0.338135,-2.621951,-6.158537,-3.902439
1548457129154,-1.018860,0.033691,-0.332764,0.731707,-2.256098,-5.000000
1548457129163,-1.018677,0.034973,-0.326599,4.085366,0.121951,-4.573171
1548457129177,-1.001099,0.035461,-0.327332,3.597561,0.548781,-4.512195
1548457129184,-0.990173,0.013550,-0.337280,1.463415,0.304878,-5.914634
1548457129191,-0.992493,0.022766,-0.337036,0.304878,-0.792683,-6.524390
1548457129206,-1.010498,0.028076,-0.334167,-0.670732,-0.853659,-6.707317
1548457129214,-1.040283,0.022888,-0.336609,-0.792683,1.280488,-7.621952
1548457129221,-1.050171,0.005981,-0.345459,0.060976,1.280488,-7.743903
1548457129236,-1.042908,0.015015,-0.337524,-0.609756,-3.048780,-6.707317
1548457129244,-1.046692,-0.000244,-0.338196,2.500000,-3.475610,-5.731708
1548457129252,-1.028809,0.010803,-0.338562,2.560976,-11.524390,-2.804878
1548457129266,-1.002930,0.020752,-0.344727,-0.975610,-22.621952,0.121951
1548457129274,-0.998108,0.019531,-0.348450,-2.134146,-29.817074,1.646341
1548457129281,-0.992798,0.000671,-0.344299,-0.853659,-38.719513,3.292683
1548457129296,-0.997925,0.012146,-0.338989,-0.548781,-46.463417,5.060976
1548457129312,-0.990601,0.013489,-0.311890,0.060976,-49.573174,6.951220
1548457129313,-1.019165,0.029358,-0.279175,3.231707,-49.634148,8.414635
1548457129326,-1.042297,0.032715,-0.254150,7.804878,-44.268295,11.768293
1548457129334,-1.023315,0.043701,-0.233215,9.268292,-37.317074,11.585366
1548457129341,-0.974426,0.053162,-0.214417,9.146341,-33.841465,9.695122
1548457129356,-0.992004,0.009827,-0.244446,9.451220,-26.768293,7.134147
1548457129364,-1.025269,-0.092346,-0.195129,8.414635,-20.304878,7.439024
1548457129371,-1.128601,-0.052063,-0.169678,7.256098,-16.036585,9.939025
1548457129386,-0.961792,0.152588,-0.220581,-7.378049,-0.792683,22.621952
1548457129394,-0.897583,0.098083,-0.218018,-20.792683,32.256100,15.670732
1548457129401,-0.949524,0.058533,-0.243835,-13.353659,35.000000,6.341464
1548457129416,-0.954468,0.046570,-0.260803,-5.243903,25.914635,6.158537
1548457129424,-0.938171,0.048767,-0.251465,-4.329268,19.451220,4.695122
1548457129431,-0.945251,0.040833,-0.244995,-0.914634,15.121951,3.292683
1548457129446,-0.970520,0.012817,-0.243408,3.109756,10.000000,2.682927
1548457129454,-0.982483,0.008057,-0.244019,6.707317,6.158537,2.256098
1548457129462,-0.988403,0.014954,-0.233398,9.695122,3.780488,2.987805
1548457129476,-1.005798,-0.004150,-0.223938,11.341464,1.829268,2.865854
1548457129484,-1.027161,-0.013794,-0.222778,9.939025,0.609756,0.914634
1548457129491,-1.023560,0.006226,-0.222595,7.500000,0.914634,1.524390
1548457129506,-1.005188,0.019409,-0.228027,4.268293,3.048780,1.524390
1548457129514,-0.990845,0.026611,-0.240601,1.341463,3.902439,0.487805
1548457129521,-0.990479,0.029663,-0.236938,-0.060976,2.682927,0.975610
1548457129536,-1.004028,0.024902,-0.239075,-1.951220,0.060976,-0.914634
1548457129544,-1.031311,0.020325,-0.232788,-3.841464,-2.621951,-2.317073
1548457129551,-1.032166,0.028870,-0.235168,-5.304878,-3.780488,-2.256098
1548457129566,-1.028076,0.040833,-0.239441,-6.646342,-2.743902,-2.195122
1548457129574,-1.020569,0.048157,-0.245178,-2.317073,-1.463415,-2.195122
1548457129581,-1.020691,0.038879,-0.250305,0.365854,0.121951,-1.646341
1548457129597,-1.006775,0.043457,-0.233521,-2.073171,0.853659,-1.219512
1548457129604,-1.022278,0.046387,-0.239197,-0.792683,-1.646341,-1.829268
1548457129611,-1.005554,0.054321,-0.274231,2.743902,-5.487805,-2.073171
1548457129626,-0.950806,0.073425,-0.235413,0.792683,-4.268293,-1.463415
1548457129634,-1.013611,0.056763,-0.242737,1.158537,-15.121951,1.524390
1548457129641,-1.040894,0.041382,-0.273254,2.560976,-26.585367,2.743902
1548457129656,-1.017944,0.027527,-0.254883,4.695122,-13.780488,2.073171
1548457129664,-1.011719,0.035767,-0.253662,5.792683,-8.597561,1.829268
1548457129671,-1.022156,0.039429,-0.256348,5.487805,-8.902439,1.768293
1548457129686,-1.012573,0.036865,-0.258667,5.731708,-8.048780,1.585366
1548457129694,-1.000183,0.033569,-0.258667,5.060976,-6.707317,1.463415
1548457129701,-1.004944,0.024109,-0.258484,3.963415,-6.402439,1.524390
1548457129716,-1.010193,0.021973,-0.257202,3.292683,-6.341464,1.829268
1548457129724,-0.997375,0.031128,-0.261475,2.743902,-5.365854,2.256098
1548457129731,-0.989990,0.033691,-0.257812,1.280488,-5.182927,1.829268
1548457129747,-1.003113,0.031555,-0.256958,-0.304878,-6.158537,1.341463
1548457129754,-1.017029,0.029419,-0.256165,-1.951220,-7.073171,1.402439
1548457129762,-1.017090,0.026794,-0.255493,-3.414634,-6.463415,1.585366
1548457129777,-1.040405,0.025452,-0.238525,-4.329268,-5.182927,1.463415
1548457129784,-1.079224,0.022827,-0.232605,-4.390244,-4.329268,1.280488
1548457129792,-1.041260,0.003601,-0.290222,-4.817073,-0.182927,0.914634
1548457129806,-0.848572,0.020752,-0.296387,-7.804878,3.780488,-3.292683
1548457129814,-0.949158,0.052795,-0.229980,-4.146341,-3.658537,-0.792683
1548457129822,-1.081299,0.040344,-0.266113,3.780488,-2.987805,10.731708
1548457129844,-1.057434,0.030701,-0.272217,2.439024,-11.768293,12.073171
1548457129844,-1.011597,0.032959,-0.143066,2.804878,-21.524391,10.609756
1548457129852,-0.975037,0.045959,-0.181458,0.670732,-25.365854,10.243902
1548457129866,-0.998352,0.044434,-0.274536,-8.780488,-14.573171,8.353659
1548457129874,-1.029236,0.032471,-0.227905,-9.756098,-13.719513,9.634147
1548457129881,-1.018921,0.045288,-0.189026,-7.134147,-29.207317,11.463415
1548457129897,-1.015442,0.066772,-0.152405,-7.804878,-30.121952,11.219512
1548457129904,-1.025635,0.013672,-0.279785,-9.634147,-22.621952,7.987805
1548457129911,-0.997925,0.048218,-0.185181,-5.121951,-16.158537,4.268293
1548457129926,-1.020813,0.051392,-0.204224,-2.256098,-21.219513,7.621952
1548457129934,-1.016785,0.071289,-0.187988,-1.890244,-19.085367,9.512196
1548457129941,-1.019836,0.094177,-0.168274,-1.463415,-20.487804,10.000000
1548457129956,-1.027161,0.053772,-0.257141,-0.426829,-15.365854,10.487805
1548457129964,-1.023193,0.054443,-0.165649,2.987805,-8.963415,9.390244
1548457129971,-1.070251,0.225586,0.343933,8.475610,-15.609756,11.707317
1548457129986,-1.139709,-0.120667,-0.230225,-11.585366,4.024390,14.817074
1548457129994,-0.832764,-0.028748,-0.604492,-54.390244,104.207321,-49.085365
1548457130002,-1.078186,0.061340,-0.030273,70.853661,66.158539,-59.756100
1548457130016,-0.926880,0.117249,-0.339600,5.304878,-8.475610,-4.634146
1548457130024,-0.964966,0.052185,-0.183777,0.365854,16.280489,-2.012195
1548457130031,-1.067322,-0.052917,-0.089722,20.609756,7.134147,4.024390
1548457130047,-1.040466,0.001526,-0.263489,7.134147,-11.280488,-3.170732
1548457130054,-1.014587,0.057678,-0.226624,-4.451220,-7.743903,-5.426829
1548457130062,-0.989380,0.066528,-0.218933,-3.414634,-0.060976,-1.646341
1548457130076,-0.990540,0.054443,-0.236755,-3.536585,-1.707317,-2.134146
1548457130084,-1.015198,0.029724,-0.225647,0.914634,-3.048780,-0.914634
1548457130091,-1.032593,0.030090,-0.196899,3.292683,-2.195122,0.975610
1548457130106,-1.055176,0.025635,-0.175415,0.121951,-3.475610,1.280488
1548457130114,-1.016174,0.015076,-0.230286,-9.512196,-9.451220,-2.682927
1548457130121,-0.994934,0.031433,-0.256958,-17.743902,-11.219512,-7.134147
1548457130136,-1.002075,0.048523,-0.251831,-12.987805,-5.426829,-4.634146
1548457130144,-1.016174,0.049744,-0.235901,-3.292683,2.743902,0.000000
1548457130151,-1.017212,0.050415,-0.224182,2.195122,7.804878,1.585366
1548457130167,-1.022034,0.054199,-0.223938,4.146341,6.280488,1.524390
1548457130174,-1.028870,0.042114,-0.219177,3.658537,4.207317,1.524390
1548457130181,-1.021729,0.032959,-0.223755,1.585366,3.292683,0.182927
1548457130196,-1.017639,0.036438,-0.225891,-1.402439,2.682927,-1.524390
1548457130204,-1.020020,0.040649,-0.218933,-2.804878,1.829268,-1.402439
1548457130211,-1.003845,0.048889,-0.219482,-3.231707,0.914634,-1.219512
1548457130226,-1.001221,0.048157,-0.217285,-4.512195,-1.585366,-1.097561
1548457130234,-1.023560,0.050598,-0.191406,-5.365854,-5.121951,-1.036585
1548457130241,-0.992859,0.073486,-0.177856,-4.390244,-4.695122,-1.646341
1548457130256,-0.959595,0.062256,-0.330505,-8.719512,6.341464,-2.317073
1548457130264,-0.994141,0.035828,-0.280884,-10.304878,3.719512,4.085366
1548457130271,-1.039368,0.042419,-0.073059,8.963415,-12.804878,10.365854
1548457130287,-0.952271,0.039612,-0.241455,15.853659,-4.817073,10.670732
1548457130294,-1.015198,0.077026,-0.220459,5.487805,10.731708,5.914634
1548457130301,-1.080566,0.033752,-0.195251,3.475610,-3.353659,11.341464
1548457130317,-1.058228,-0.000916,-0.255981,3.536585,0.182927,4.817073
1548457130324,-1.046326,0.032593,-0.190613,-0.609756,1.524390,-0.487805
1548457130331,-0.978149,0.092041,-0.173645,4.878049,-0.060976,-3.902439
1548457130346,-0.960022,0.060303,-0.141479,0.304878,9.451220,-4.390244
1548457130354,-1.006042,0.061646,-0.169983,-3.231707,9.634147,-3.536585
1548457130362,-0.989136,0.044128,-0.244995,-14.512196,12.682927,-3.536585
1548457130377,-0.998901,0.049805,-0.255981,-18.780489,9.878049,-5.000000
1548457130384,-1.025757,0.036377,-0.270874,-14.695123,2.865854,-2.378049
1548457130392,-1.039246,0.029175,-0.248413,-7.682927,-2.804878,-1.951220
1548457130407,-1.033508,0.039490,-0.219055,-0.182927,-5.670732,-2.195122
1548457130414,-1.004883,0.059814,-0.202148,3.780488,-5.182927,-2.926829
1548457130422,-1.010986,0.060791,-0.189819,4.024390,-4.146341,-2.926829
1548457130437,-1.018127,0.050476,-0.202942,2.378049,-6.341464,-1.768293
1548457130444,-1.018738,0.035034,-0.228394,-0.426829,-6.585366,-1.707317
1548457130452,-1.019348,0.021179,-0.240784,-2.195122,-7.621952,-1.463415
1548457130467,-1.044556,0.019836,-0.234985,-0.853659,-6.341464,-1.707317
1548457130474,-1.051453,0.030701,-0.226929,2.073171,-6.951220,-2.804878
1548457130482,-1.012573,0.059692,-0.221924,4.024390,-7.256098,-3.963415
1548457130496,-0.996277,0.062988,-0.208496,4.756098,-6.829268,-3.963415
1548457130504,-1.001587,0.040283,-0.200378,4.146341,-8.109756,-3.597561
1548457130511,-1.009155,0.033325,-0.212219,1.890244,-10.304878,-3.902439
1548457130526,-1.004395,0.034790,-0.228027,-0.304878,-9.878049,-3.292683
1548457130534,-0.994873,0.027527,-0.218445,-0.731707,-10.426829,-2.439024
1548457130541,-0.999268,0.028687,-0.205261,-0.426829,-14.268293,-1.829268
1548457130556,-1.010132,0.045898,-0.204224,-0.670732,-15.975610,-0.609756
1548457130564,-1.013550,0.057617,-0.204590,-0.792683,-14.085366,-0.914634
1548457130571,-1.116577,-0.037048,-0.302246,0.304878,-12.317074,-0.853659
1548457130586,-1.017944,0.256897,0.393311,8.719512,-16.463415,0.243902
1548457130594,-0.775085,0.263794,-0.178772,-94.573174,10.548780,37.804878
1548457130601,-1.045837,0.080994,-0.461792,-63.414635,14.024390,9.268292
1548457130616,-1.122192,-0.051514,-0.250854,36.463417,-15.792684,-16.890244
1548457130624,-1.078247,-0.025208,-0.195251,-3.597561,-11.341464,2.439024
1548457130631,-1.013367,0.093933,-0.142761,12.317074,1.707317,2.804878
1548457130646,-0.976379,0.125244,-0.122131,14.573171,6.036585,1.829268
1548457130654,-0.994873,0.091858,-0.135376,4.939024,7.073171,1.158537
1548457130662,-1.016846,0.048645,-0.167847,-1.463415,9.024390,1.768293
1548457130676,-1.029114,0.018860,-0.208069,-5.121951,11.829268,2.195122
1548457130684,-1.036682,-0.005310,-0.191223,-5.548780,9.451220,1.829268
1548457130691,-1.029236,-0.000122,-0.171021,-4.024390,4.878049,0.426829
1548457130706,-1.002563,0.047546,-0.171326,-5.487805,3.292683,-0.243902
1548457130714,-0.985107,0.066711,-0.169861,-9.390244,0.609756,1.036585
1548457130721,-0.976807,0.039062,-0.185791,-12.439025,-1.890244,1.097561
1548457130737,-1.131714,0.020203,-0.247009,-15.000000,-6.280488,0.243902
1548457130744,-0.937012,-0.046570,-0.005554,-6.585366,19.939024,-6.829268
1548457130751,-0.790405,0.316467,-0.341248,5.243903,150.609756,-18.536585
1548457130767,-1.027039,-0.018433,-0.346130,-87.804878,-19.573172,17.378050
1548457130774,-1.048584,-0.023193,-0.249634,-23.902439,-30.975611,-0.670732
1548457130781,-1.037598,0.065186,-0.189636,-0.975610,-9.024390,3.353659
1548457130796,-1.028442,0.079407,-0.218201,-6.341464,-14.817074,2.439024
1548457130804,-0.990356,0.055908,-0.213257,-9.756098,-18.536585,-1.585366
1548457130812,-0.891724,0.021240,-0.213806,-13.109756,-14.512196,-1.707317
1548457130826,-0.983093,0.026978,-0.232971,-4.695122,-12.621951,0.182927
1548457130834,-1.066284,0.031921,-0.227783,-21.951220,-22.560976,2.621951
1548457130842,-1.051086,0.057922,-0.218750,-22.012196,-23.109756,6.158537
1548457130856,-1.070984,0.064697,-0.204956,-18.902439,-25.853659,6.036585
1548457130864,-1.115112,0.140991,-0.189697,-21.341463,-26.280489,2.439024
1548457130871,-1.034790,0.161316,-0.180054,-25.243902,-24.939026,-3.170732
1548457130886,-1.025574,0.122803,-0.182495,-17.134148,-14.878049,-2.256098
1548457130894,-1.080444,0.085510,-0.203430,-13.170732,-5.548780,-3.902439
1548457130902,-1.079651,0.044861,-0.211609,-13.658537,-2.378049,-3.231707
1548457130924,-1.077393,0.045593,-0.210083,-15.365854,-3.658537,-3.902439
1548457130925,-1.052795,0.089172,-0.211914,-20.243902,-5.060976,-5.121951
1548457130931,-1.001221,0.126709,-0.201843,-25.731709,-4.207317,-6.463415
1548457130946,-0.997131,0.130493,-0.194824,-27.317074,-2.256098,-6.158537
1548457130954,-1.027710,0.104614,-0.209656,-27.804878,-2.743902,-4.146341
1548457130961,-1.010559,0.076233,-0.213257,-28.963415,-7.743903,-1.158537
1548457130977,-0.960815,-0.005066,-0.151672,-27.500000,-12.865854,1.951220
1548457130984,-0.971924,0.060974,-0.160461,-14.390244,-12.560976,4.024390
1548457130991,-1.011536,0.004883,-0.255676,-3.048780,-14.512196,2.134146
1548457131014,-1.035645,0.022644,-0.190491,-10.487805,-25.000000,2.500000
1548457131029,-1.056030,0.076904,-0.171387,-10.304878,-28.048780,2.743902
1548457131030,-1.058105,0.098633,-0.167847,-10.731708,-26.585367,-1.036585
1548457131036,-0.976318,0.065186,-0.157410,-6.707317,-26.646341,-2.987805
1548457131052,-0.976807,0.076843,-0.202820,-10.731708,-23.292683,-4.817073
1548457131052,-0.995361,0.077515,-0.201904,-8.536586,-26.585367,-3.048780
1548457131067,-0.996216,0.081055,-0.199158,7.317073,-28.658537,-3.353659
1548457131074,-1.024353,0.080505,-0.168091,17.195122,-27.012196,-1.707317
1548457131082,-1.042908,0.055725,-0.144531,27.987806,-25.304878,-1.219512
1548457131097,-1.044067,0.036011,-0.146729,35.182926,-22.073172,-2.987805
1548457131104,-1.056396,0.026733,-0.133850,38.109756,-16.585365,-4.573171
1548457131119,-1.074585,0.029907,-0.117065,39.451221,-11.829268,-5.000000
1548457131127,-1.037598,0.033447,-0.125977,39.695122,-3.841464,-4.695122
1548457131134,-1.015564,0.040771,-0.140930,37.439026,7.439024,-4.939024
1548457131142,-1.010437,0.041199,-0.165405,36.158539,16.158537,-3.597561
1548457131157,-0.976624,0.031982,-0.161194,36.402439,19.878050,-1.280488
1548457131164,-0.908264,-0.144897,-0.218689,39.085365,26.890245,0.609756
1548457131171,-1.067810,0.006836,-0.075500,42.682926,30.121952,2.439024
1548457131186,-1.127014,0.250183,-0.108582,21.646341,21.219513,25.914635
1548457131194,-1.095825,0.197266,-0.197266,2.743902,48.231709,19.878050
1548457131202,-1.059021,0.178467,-0.193848,15.792684,69.695122,10.731708
1548457131216,-1.064087,0.158875,-0.209656,20.060976,61.402439,11.707317
1548457131224,-1.035461,0.111694,-0.202881,23.292683,58.963417,12.500000
1548457131232,-1.199707,-0.189453,-0.219238,30.304878,59.756100,12.500000
1548457131247,-0.929260,-0.198303,-0.155151,46.097561,63.963417,10.792684
1548457131254,-0.601013,-0.055054,-0.187988,50.914635,80.670731,8.597561
1548457131262,-0.955811,-0.021179,-0.212524,13.780488,35.060978,6.585366
1548457131277,-1.141663,-0.009705,-0.201233,-1.646341,-7.682927,-9.756098
1548457131284,-1.098755,0.007996,-0.208679,-13.719513,7.743903,-18.780489
1548457131292,-0.961975,0.050903,-0.253662,-22.621952,23.353659,-15.609756
1548457131307,-0.871704,0.103943,-0.242859,-28.170732,31.646341,-7.987805
1548457131314,-0.898193,0.128845,-0.253174,-30.060976,20.609756,-3.109756
1548457131322,-0.955505,0.111755,-0.272705,-25.853659,3.048780,-1.463415
1548457131337,-0.997192,0.084106,-0.253052,-17.804878,-4.573171,-1.402439
1548457131344,-1.018311,0.067017,-0.231323,-10.060976,-5.060976,-3.048780
1548457131359,-1.028870,0.053284,-0.223206,-6.951220,-4.573171,-5.060976
1548457131366,-1.021423,0.050354,-0.227722,-7.439024,-3.414634,-6.219512
1548457131374,-1.003784,0.054565,-0.241699,-8.292683,-0.731707,-5.731708
1548457131382,-0.996460,0.052551,-0.252075,-8.536586,1.280488,-4.512195
1548457131397,-1.008362,0.054504,-0.247803,-8.048780,0.548781,-3.963415
1548457131404,-1.025879,0.058228,-0.238586,-6.951220,-2.073171,-4.329268
1548457131412,-1.035706,0.063660,-0.232483,-6.097561,-3.963415,-5.426829
1548457131427,-1.032043,0.065491,-0.228760,-5.182927,-4.207317,-6.768293
1548457131434,-1.025940,0.062744,-0.228333,-3.841464,-3.719512,-7.500000
1548457131442,-1.025635,0.057922,-0.226257,-2.378049,-3.231707,-7.378049
1548457131457,-1.027344,0.056091,-0.227173,-0.609756,-2.682927,-6.524390
1548457131464,-1.027466,0.045654,-0.231201,1.341463,-2.134146,-5.487805
1548457131472,-1.027771,0.033813,-0.234558,2.560976,-1.707317,-4.939024
1548457131487,-1.023682,0.023132,-0.231934,3.353659,-1.768293,-4.878049
1548457131494,-1.023804,0.015381,-0.225891,3.536585,-2.439024,-4.695122
1548457131502,-1.023132,0.016113,-0.220459,3.170732,-3.231707,-4.573171
1548457131517,-1.019653,0.021606,-0.218628,2.256098,-3.841464,-4.390244
1548457131524,-1.018066,0.026978,-0.214844,0.609756,-4.451220,-4.024390
1548457131532,-1.018188,0.039185,-0.213257,-0.975610,-4.878049,-3.841464
1548457131546,-1.017151,0.047241,-0.211243,-2.195122,-5.243903,-3.536585
1548457131554,-1.014771,0.055420,-0.210876,-3.048780,-5.426829,-3.292683
1548457131562,-1.010742,0.060974,-0.210449,-3.414634,-5.304878,-3.353659
1548457131577,-1.007751,0.063232,-0.213745,-2.865854,-5.060976,-3.475610
1548457131584,-1.003906,0.063232,-0.218567,-2.500000,-4.939024,-3.597561
1548457131592,-1.005920,0.057434,-0.221863,-1.890244,-4.817073,-3.780488
1548457131607,-1.003967,0.050964,-0.230469,-0.975610,-4.390244,-3.841464
1548457131614,-1.004150,0.042236,-0.232849,0.060976,-3.719512,-3.780488
1548457131621,-1.003662,0.036499,-0.238403,0.426829,-2.987805,-3.719512
1548457131637,-1.000854,0.033264,-0.245605,0.426829,-2.195122,-3.597561
1548457131644,-1.001892,0.031616,-0.254578,0.487805,-1.890244,-3.475610
1548457131652,-1.006653,0.028198,-0.256470,0.426829,-1.707317,-3.414634
1548457131667,-1.010925,0.021301,-0.257080,0.365854,-1.829268,-3.536585
1548457131674,-1.008423,0.019165,-0.261108,0.426829,-1.768293,-3.658537
1548457131682,-1.008118,0.019897,-0.269653,0.487805,-1.402439,-3.475610
1548457131697,-1.006104,0.018738,-0.274414,0.304878,-0.975610,-3.170732
1548457131704,-1.011414,0.013916,-0.278564,0.000000,-0.914634,-2.865854
1548457131712,-1.019653,0.009949,-0.278076,-0.304878,-1.158537,-2.804878
1548457131727,-1.024841,0.004395,-0.272766,-0.731707,-1.280488,-2.987805
1548457131735,-1.029907,0.000427,-0.273987,-1.097561,-1.036585,-2.926829
1548457131742,-1.031738,0.000977,-0.271484,-1.890244,-0.426829,-2.682927
1548457131757,-1.032166,-0.001343,-0.270813,-3.231707,0.365854,-2.256098
1548457131764,-1.031006,-0.003113,-0.272339,-4.451220,0.914634,-2.012195
1548457131772,-1.032532,-0.003052,-0.272888,-5.487805,1.341463,-1.768293
1548457131787,-1.030151,-0.006165,-0.273865,-6.463415,1.585366,-1.585366
1548457131794,-1.028503,-0.005127,-0.272095,-7.804878,1.707317,-1.585366
1548457131802,-1.025391,-0.004028,-0.268799,-9.146341,1.829268,-1.524390
1548457131817,-1.021545,0.000122,-0.263672,-10.304878,1.951220,-1.463415
1548457131824,-1.017883,0.008423,-0.255737,-11.280488,1.890244,-1.646341
1548457131832,-1.018188,0.015564,-0.247253,-11.951220,1.402439,-2.012195
1548457131847,-1.014465,0.028198,-0.242126,-12.256098,1.280488,-2.378049
1548457131854,-1.007263,0.038391,-0.240234,-12.500000,1.280488,-2.926829
1548457131862,-1.001465,0.043640,-0.238098,-12.560976,1.402439,-3.475610
1548457131877,-0.996033,0.037598,-0.235352,-12.439025,1.646341,-3.841464
1548457131884,-0.989502,0.041382,-0.233826,-12.195122,2.317073,-4.024390
1548457131892,-0.981934,0.053711,-0.237122,-12.256098,3.109756,-3.658537
1548457131907,-0.980347,0.049866,-0.235962,-12.256098,2.804878,-4.024390
1548457131914,-0.980042,0.045105,-0.237061,-11.951220,1.890244,-4.939024
1548457131921,-0.976929,0.044495,-0.236816,-11.707317,0.487805,-5.914634
1548457131936,-0.976440,0.037109,-0.235168,-11.585366,-0.731707,-6.524390
1548457131944,-0.976746,0.031616,-0.235107,-11.036586,-2.256098,-6.829268
1548457131952,-0.975830,0.034180,-0.233887,-10.182927,-3.780488,-7.073171
1548457131967,-0.978027,0.037292,-0.232605,-9.634147,-4.939024,-7.256098
1548457131974,-0.978699,0.042603,-0.233032,-9.329268,-6.097561,-7.743903
1548457131982,-0.976624,0.043396,-0.232422,-9.695122,-7.256098,-8.353659
1548457131997,-0.982971,0.043823,-0.231628,-10.000000,-8.353659,-8.780488
1548457132004,-0.986084,0.042664,-0.230225,-9.939025,-9.512196,-9.146341
1548457132012,-0.989563,0.038208,-0.233582,-9.878049,-10.182927,-9.390244
1548457132027,-0.994446,0.033691,-0.233398,-9.817074,-10.670732,-9.512196
1548457132034,-0.994934,0.027710,-0.230957,-9.939025,-11.036586,-9.634147
1548457132042,-0.997986,0.022278,-0.232727,-10.121951,-11.402439,-9.695122
1548457132057,-1.003845,0.014954,-0.234375,-9.939025,-11.768293,-9.512196
1548457132064,-1.015259,0.006165,-0.233948,-10.182927,-12.256098,-9.329268
1548457132072,-1.025818,0.003418,-0.235657,-10.609756,-12.743903,-8.719512
1548457132087,-1.039246,-0.001587,-0.234253,-11.768293,-13.109756,-8.109756
1548457132094,-1.050232,0.002563,-0.221680,-13.414635,-13.414635,-7.317073
1548457132102,-1.060608,0.009033,-0.211609,-15.243903,-13.597561,-6.646342
1548457132116,-1.068420,0.012573,-0.200439,-17.256098,-13.292684,-6.158537
1548457132124,-1.075806,0.022400,-0.186218,-18.536585,-12.682927,-5.609756
1548457132132,-1.078003,0.032166,-0.174072,-18.475611,-11.585366,-5.060976
1548457132146,-1.076355,0.042175,-0.165955,-17.865854,-9.573171,-4.573171
1548457132154,-1.070496,0.043213,-0.156799,-16.280489,-7.134147,-3.780488
1548457132162,-1.057983,0.046082,-0.156555,-14.146341,-4.634146,-2.926829
1548457132176,-1.043213,0.038269,-0.160400,-11.951220,-1.890244,-2.378049
1548457132184,-1.029968,0.029968,-0.170105,-9.756098,0.365854,-1.890244
1548457132192,-1.015442,0.019043,-0.176331,-7.926829,2.134146,-1.707317
1548457132207,-1.007324,0.008057,-0.188721,-6.585366,3.536585,-1.646341
1548457132214,-1.001038,0.001587,-0.201111,-5.975610,4.390244,-1.768293
1548457132221,-0.992981,-0.007996,-0.212036,-6.280488,5.000000,-1.829268
1548457132237,-0.989929,-0.009399,-0.219849,-7.378049,5.000000,-2.073171
1548457132244,-0.991699,-0.009827,-0.222900,-8.292683,4.817073,-2.317073
1548457132251,-0.992737,-0.008545,-0.221191,-8.719512,4.390244,-2.500000
1548457132267,-0.998047,-0.001038,-0.222107,-8.597561,3.902439,-2.865854
1548457132274,-1.004456,0.002808,-0.214172,-8.109756,3.536585,-3.109756
1548457132282,-1.007568,0.008545,-0.205994,-7.804878,3.292683,-3.231707
1548457132297,-1.014587,0.015137,-0.205994,-6.463415,3.414634,-3.170732
1548457132304,-1.020508,0.020874,-0.202820,-5.548780,3.414634,-3.292683
1548457132312,-1.024170,0.021179,-0.198120,-5.121951,3.292683,-3.475610
1548457132327,-1.026489,0.022095,-0.198853,-4.634146,3.231707,-3.902439
1548457132334,-1.029663,0.024353,-0.199585,-4.024390,3.170732,-4.390244
1548457132342,-1.032227,0.026001,-0.198914,-3.963415,2.926829,-4.756098
1548457132357,-1.029602,0.022156,-0.200745,-4.024390,2.804878,-5.060976
1548457132364,-1.026611,0.019958,-0.202087,-3.963415,2.743902,-5.243903
1548457132372,-1.022034,0.021606,-0.203735,-2.987805,2.682927,-5.487805
1548457132387,-1.022034,0.017639,-0.203125,-2.195122,2.682927,-5.792683
1548457132394,-1.018005,0.013245,-0.205322,-1.341463,2.743902,-5.975610
1548457132402,-1.015137,0.009888,-0.203308,-0.365854,2.987805,-5.914634
1548457132417,-1.011230,0.000671,-0.202637,0.243902,3.048780,-5.670732
1548457132424,-1.008423,-0.004883,-0.205994,0.426829,3.048780,-5.243903
1548457132432,-1.007996,-0.007080,-0.203796,0.060976,3.048780,-4.878049
1548457132447,-1.007935,-0.010193,-0.204041,-0.426829,2.743902,-4.756098
1548457132454,-1.006348,-0.010498,-0.203857,-0.670732,2.500000,-4.634146
1548457132461,-1.003845,-0.010620,-0.203613,-0.670732,2.317073,-4.451220
1548457132476,-1.003784,-0.011230,-0.206726,-0.365854,2.195122,-4.329268
1548457132484,-1.003479,-0.010437,-0.212585,0.182927,2.012195,-4.146341
1548457132492,-1.002625,-0.014709,-0.216309,0.853659,2.073171,-3.719512
1548457132506,-1.004089,-0.020508,-0.223267,1.585366,1.829268,-3.292683
1548457132514,-1.005127,-0.028076,-0.227600,2.439024,1.585366,-2.804878
1548457132521,-1.005920,-0.035339,-0.232788,2.926829,1.402439,-2.256098
1548457132537,-1.008179,-0.040771,-0.238647,3.109756,0.853659,-1.707317
1548457132544,-1.014526,-0.044983,-0.244629,2.987805,0.182927,-1.280488
1548457132552,-1.024536,-0.044434,-0.245728,2.195122,-0.731707,-0.731707
1548457132566,-1.033630,-0.039246,-0.245422,1.097561,-1.585366,0.000000
1548457132574,-1.043457,-0.035339,-0.242493,-0.182927,-2.317073,0.670732
1548457132582,-1.046936,-0.025635,-0.243958,-1.646341,-2.865854,1.158537
1548457132597,-1.048828,-0.018921,-0.241211,-2.804878,-3.231707,1.707317
1548457132604,-1.047913,-0.014709,-0.235413,-3.536585,-3.536585,1.890244
1548457132612,-1.043518,-0.008057,-0.228394,-3.780488,-3.658537,2.195122
1548457132627,-1.036255,-0.009949,-0.220886,-3.597561,-3.475610,2.804878
1548457132634,-1.028564,-0.003174,-0.211731,-3.109756,-2.682927,3.780488
1548457132642,-1.023560,0.006165,-0.206604,-2.500000,-1.646341,4.756098
1548457132657,-1.015808,0.009888,-0.204590,-1.585366,-0.914634,5.365854
1548457132664,-1.010071,0.007874,-0.201416,-0.548781,-0.670732,5.670732
1548457132672,-1.005005,0.008728,-0.199402,0.243902,-0.670732,5.426829
1548457132687,-1.001099,0.010742,-0.198486,0.975610,-0.548781,5.060976
1548457132694,-0.996826,0.011658,-0.196899,1.829268,-0.426829,4.817073
1548457132702,-0.992737,0.015991,-0.192749,2.865854,-0.243902,4.817073
1548457132717,-0.989014,0.016296,-0.193359,4.207317,-0.121951,4.573171
1548457132724,-0.986572,0.018433,-0.197632,5.609756,0.121951,4.085366
1548457132732,-0.982727,0.017761,-0.199036,6.646342,0.365854,3.536585
1548457132747,-0.982910,0.017029,-0.203979,7.682927,0.487805,3.048780
1548457132754,-0.989075,0.015808,-0.203796,8.658537,0.182927,2.682927
1548457132762,-0.997864,0.015869,-0.201294,9.390244,-0.121951,2.378049
1548457132777,-1.001404,0.015747,-0.203735,9.878049,-0.121951,2.073171
1548457132784,-1.002563,0.019775,-0.210999,10.121951,-0.121951,1.768293
1548457132791,-1.007996,0.023682,-0.214294,10.487805,-0.121951,1.829268
1548457132807,-1.013062,0.025452,-0.218079,10.975610,-0.609756,1.646341
1548457132814,-1.016418,0.025940,-0.221680,11.646341,-1.036585,1.524390
1548457132822,-1.018738,0.026001,-0.226074,12.317074,-1.341463,1.463415
1548457132837,-1.018311,0.019104,-0.228394,12.317074,-1.524390,1.402439
1548457132844,-1.017029,0.015015,-0.232117,12.073171,-1.402439,1.341463
1548457132851,-1.010193,0.015381,-0.234009,12.134147,-1.036585,1.402439
1548457132867,-1.009827,0.011414,-0.233093,11.524390,-1.402439,1.341463
1548457132874,-1.008972,0.006348,-0.234619,10.548780,-1.951220,1.158537
1548457132882,-1.012512,0.000916,-0.238892,9.634147,-2.317073,0.853659
1548457132897,-1.014648,-0.002686,-0.235596,8.353659,-2.500000,0.548781
1548457132904,-1.017883,-0.001709,-0.236450,7.195122,-2.500000,0.426829
1548457132912,-1.022827,-0.000610,-0.236938,6.463415,-2.560976,0.670732
1548457132927,-1.031982,-0.009277,-0.236572,5.853659,-2.682927,1.280488
1548457132934,-1.041870,-0.014893,-0.238708,5.243903,-2.682927,2.134146
1548457132942,-1.046936,-0.016541,-0.240295,5.365854,-2.134146,3.048780
1548457132957,-1.044617,-0.015137,-0.241943,4.939024,-1.341463,3.902439
1548457132964,-1.040405,-0.017944,-0.239380,4.512195,-0.365854,4.207317
1548457132972,-1.033997,-0.016357,-0.235474,4.085366,0.548781,4.390244
1548457132987,-1.027466,-0.010498,-0.232605,4.512195,1.280488,4.756098
1548457132994,-1.022034,-0.001709,-0.236694,5.121951,1.585366,5.121951
1548457133002,-1.023193,-0.000061,-0.237122,5.121951,1.585366,5.426829
1548457133017,-1.022034,-0.000305,-0.233948,4.695122,1.768293,5.487805
1548457133024,-1.018188,0.001465,-0.227844,4.390244,2.317073,5.426829
1548457133032,-1.018250,0.003723,-0.223328,4.451220,3.231707,5.487805
1548457133046,-1.017212,0.008789,-0.222595,4.695122,4.146341,5.426829
1548457133054,-1.014648,0.007263,-0.223267,5.121951,5.121951,5.487805
1548457133062,-1.013367,0.005676,-0.225220,5.792683,5.548780,5.487805
1548457133077,-1.010315,0.005066,-0.226990,6.707317,5.914634,5.426829
1548457133084,-1.006348,0.001709,-0.228577,7.500000,6.280488,5.304878
1548457133092,-1.005188,-0.001587,-0.225281,7.804878,6.158537,5.060976
1548457133107,-1.009644,-0.006836,-0.220154,7.926829,6.036585,4.939024
1548457133114,-1.008606,-0.009399,-0.224609,8.109756,6.158537,4.939024
1548457133122,-1.009705,-0.005554,-0.227844,8.231708,6.158537,4.878049
1548457133137,-1.012573,-0.002930,-0.226746,7.987805,6.036585,4.756098
1548457133144,-1.015930,-0.003540,-0.230835,7.500000,5.365854,4.573171
1548457133152,-1.018860,-0.006592,-0.234924,7.256098,4.634146,4.329268
1548457133167,-1.021301,-0.004944,-0.235413,6.829268,3.780488,4.085366
1548457133174,-1.020020,0.000549,-0.233826,6.524390,3.170732,4.207317
1548457133182,-1.017151,0.004150,-0.229492,6.341464,2.804878,4.451220
1548457133197,-1.011902,0.007080,-0.228516,6.585366,2.378049,4.695122
1548457133204,-1.008911,0.008362,-0.227905,7.439024,1.707317,5.000000
1548457133212,-1.000183,0.007935,-0.226379,8.292683,0.670732,5.060976
1548457133234,-0.991089,0.002319,-0.224670,9.146341,-0.182927,5.000000
1548457133235,-0.984436,0.001404,-0.218994,9.939025,-1.158537,4.817073
1548457133242,-0.977661,0.009094,-0.218323,10.426829,-2.317073,4.634146
1548457133257,-0.971619,0.019104,-0.214661,10.853659,-3.536585,4.512195
1548457133264,-0.974915,0.025696,-0.210510,11.097561,-5.121951,4.329268
1548457133272,-0.977966,0.030579,-0.212646,11.463415,-6.951220,3.963415
1548457133287,-0.979248,0.031677,-0.214722,12.195122,-8.170732,3.353659
1548457133294,-0.985840,0.029724,-0.215149,12.926829,-9.085366,2.804878
1548457133302,-0.992615,0.024597,-0.213196,13.597561,-10.121951,2.195122
1548457133317,-0.997925,0.026917,-0.213623,13.658537,-10.853659,1.524390
1548457133324,-1.000366,0.029663,-0.211609,13.292684,-11.158537,1.036585
1548457133332,-1.006042,0.028625,-0.212097,13.292684,-11.158537,0.975610
1548457133347,-1.011597,0.026184,-0.210449,13.353659,-10.914635,0.975610
1548457133354,-1.014404,0.024292,-0.214600,13.536586,-10.609756,1.219512
1548457133362,-1.017456,0.023193,-0.217651,13.658537,-10.182927,1.341463
1548457133377,-1.021790,0.015381,-0.217224,13.414635,-9.939025,1.036585
1548457133384,-1.025879,0.012207,-0.217224,12.378049,-9.756098,0.792683
1548457133392,-1.025024,0.016113,-0.225342,11.280488,-9.451220,0.609756
1548457133407,-1.028809,0.018982,-0.230286,10.975610,-8.841464,0.975610
1548457133414,-1.037415,0.015991,-0.234131,11.158537,-8.841464,1.341463
1548457133422,-1.045105,0.018005,-0.243408,10.243902,-9.329268,1.341463
1548457133437,-1.048523,0.013306,-0.249878,9.512196,-9.024390,1.890244
1548457133444,-1.051941,0.000366,-0.250916,9.329268,-8.475610,2.621951
1548457133452,-1.052429,-0.008728,-0.254395,8.536586,-8.170732,2.987805
1548457133467,-1.044739,0.001770,-0.253113,6.707317,-7.865854,3.048780
1548457133474,-1.037476,0.004517,-0.250671,5.121951,-6.585366,3.780488
1548457133482,-1.033569,0.000000,-0.245544,4.390244,-5.731708,4.695122
1548457133497,-1.027588,0.001343,-0.235718,3.475610,-5.670732,5.121951
1548457133504,-1.021240,0.007385,-0.225464,2.682927,-5.243903,5.426829
1548457133512,-1.010986,0.015259,-0.219666,2.560976,-4.146341,5.731708
1548457133527,-1.003967,0.020203,-0.217712,2.621951,-3.170732,5.975610
1548457133534,-1.003052,0.024170,-0.212341,2.865854,-2.317073,5.914634
1548457133542,-1.004700,0.028931,-0.210083,3.109756,-1.585366,5.609756
1548457133557,-1.007690,0.027893,-0.205994,3.170732,-0.853659,5.060976
1548457133564,-1.007263,0.024109,-0.206177,2.865854,0.121951,4.451220
1548457133572,-1.013123,0.019714,-0.212402,2.865854,1.402439,3.780488
1548457133587,-1.018555,0.015503,-0.214417,2.378049,2.012195,3.170732
1548457133594,-1.021973,0.014648,-0.212219,1.158537,1.890244,2.500000
1548457133602,-1.021973,0.010803,-0.212097,0.121951,2.317073,2.134146
1548457133617,-1.019348,0.008301,-0.212585,-1.158537,2.865854,1.951220
1548457133625,-1.019043,0.006653,-0.216370,-2.439024,3.170732,1.890244
1548457133632,-1.015747,0.003662,-0.221497,-3.719512,3.170732,1.890244
1548457133647,-1.013489,-0.003113,-0.220886,-5.609756,2.804878,1.829268
1548457133654,-1.015808,-0.005249,-0.219543,-7.134147,2.317073,1.646341
1548457133662,-1.009277,-0.006409,-0.220642,-8.658537,1.890244,1.524390
1548457133677,-1.001526,-0.005249,-0.224670,-9.939025,1.768293,1.341463
1548457133684,-0.995789,-0.004028,-0.225220,-11.524390,0.853659,0.914634
1548457133692,-0.994690,-0.001343,-0.219727,-12.804878,-0.609756,0.182927
1548457133707,-0.994873,0.003662,-0.214233,-13.353659,-2.134146,-0.365854
1548457133714,-0.995605,0.009094,-0.205933,-13.475610,-3.353659,-0.853659
1548457133722,-0.996277,0.020630,-0.196777,-12.987805,-3.963415,-1.402439
1548457133737,-0.997375,0.027344,-0.189209,-11.707317,-4.390244,-2.012195
1548457133744,-1.002930,0.032898,-0.182312,-9.939025,-4.573171,-2.743902
1548457133752,-1.008911,0.040344,-0.176392,-7.256098,-4.634146,-3.475610
1548457133767,-1.016479,0.042542,-0.179138,-4.085366,-4.146341,-4.268293
1548457133774,-1.020386,0.040466,-0.183777,-1.707317,-3.536585,-5.000000
1548457133782,-1.021362,0.037048,-0.192993,0.121951,-2.743902,-5.548780
1548457133797,-1.024414,0.028320,-0.204041,1.829268,-2.134146,-5.975610
1548457133804,-1.027771,0.016724,-0.205017,2.926829,-2.378049,-6.646342
1548457133812,-1.027649,0.015381,-0.205322,3.719512,-3.048780,-7.195122
1548457133827,-1.022949,0.012634,-0.209045,4.390244,-3.719512,-7.621952
1548457133834,-1.019775,0.005859,-0.207214,4.634146,-4.268293,-8.048780
1548457133842,-1.018860,0.002869,-0.200500,4.451220,-4.756098,-8.292683
1548457133857,-1.013245,0.004578,-0.198120,4.451220,-5.182927,-8.292683
1548457133864,-1.007568,0.006531,-0.195251,4.268293,-5.487805,-8.292683
1548457133872,-1.004333,0.001465,-0.195374,3.841464,-5.792683,-8.231708
1548457133887,-1.005920,-0.000488,-0.192444,3.292683,-6.097561,-8.170732
1548457133894,-1.011414,-0.001404,-0.188232,3.231707,-6.646342,-8.170732
1548457133902,-1.015625,-0.002930,-0.184021,3.170732,-6.951220,-8.048780
1548457133917,-1.021851,0.000000,-0.189941,3.048780,-6.768293,-7.865854
1548457133924,-1.029602,-0.001343,-0.195007,2.743902,-6.341464,-7.378049
1548457133932,-1.038635,-0.000366,-0.200439,2.317073,-6.158537,-6.951220
1548457133947,-1.046143,0.000916,-0.204956,2.195122,-6.158537,-6.707317
1548457133954,-1.050720,0.001831,-0.201172,1.951220,-5.975610,-6.585366
1548457133962,-1.053162,0.005737,-0.196960,2.560976,-5.487805,-6.097561
1548457133977,-1.052368,0.007385,-0.197876,3.902439,-5.243903,-5.548780
1548457133984,-1.054871,0.003052,-0.195312,4.695122,-4.817073,-4.939024
1548457133992,-1.054749,0.002319,-0.195129,5.609756,-4.207317,-4.085366
1548457134007,-1.052185,-0.000549,-0.194946,6.158537,-3.231707,-3.292683
1548457134014,-1.044006,-0.004822,-0.192932,5.975610,-2.256098,-2.317073
1548457134022,-1.033569,-0.006409,-0.189880,5.914634,-1.524390,-1.524390
1548457134037,-1.024719,-0.005676,-0.188354,5.914634,-0.975610,-0.731707
1548457134044,-1.023193,-0.006531,-0.187927,5.731708,-0.975610,0.060976
1548457134051,-1.022034,-0.006226,-0.187012,5.670732,-1.219512,0.731707
1548457134067,-1.023438,-0.007446,-0.182434,5.487805,-1.280488,1.280488
1548457134074,-1.023621,-0.007446,-0.180176,5.060976,-1.219512,1.951220
1548457134081,-1.019409,-0.009521,-0.182312,4.695122,-1.219512,2.439024
1548457134097,-1.015442,-0.009277,-0.180847,4.268293,-1.341463,2.865854
1548457134104,-1.015564,-0.010681,-0.178528,3.719512,-1.829268,3.170732
1548457134112,-1.016602,-0.010620,-0.177551,3.231707,-2.378049,3.475610
1548457134127,-1.015869,-0.012268,-0.176819,2.865854,-2.804878,3.902439
1548457134134,-1.016235,-0.018494,-0.173523,2.378049,-2.987805,4.329268
1548457134141,-1.030518,-0.065918,-0.136963,1.524390,-3.231707,4.634146
1548457134156,-1.030090,-0.055298,-0.154175,1.524390,-2.865854,5.000000
1548457134164,-1.014282,-0.018066,-0.177673,0.365854,0.121951,5.731708
1548457134172,-1.010193,0.013428,-0.187012,-4.207317,1.341463,5.975610
1548457134186,-1.010864,0.023438,-0.182495,-7.256098,0.487805,5.670732
1548457134194,-1.006714,0.027100,-0.195251,-7.926829,-0.670732,5.121951
1548457134202,-1.013367,-0.000977,-0.185242,-6.829268,-1.829268,4.451220
1548457134217,-1.021790,-0.025879,-0.175171,-5.182927,-2.865854,3.963415
1548457134224,-1.045105,-0.040588,-0.172668,-4.878049,-2.926829,3.353659
1548457134232,-1.029968,-0.014160,-0.195740,-6.585366,-1.097561,2.926829
1548457134247,-1.007019,0.026306,-0.211487,-9.573171,2.987805,2.987805
1548457134254,-1.022583,0.035645,-0.208679,-12.926829,2.804878,1.951220
1548457134262,-1.021912,0.024109,-0.218140,-12.439025,2.134146,1.341463
1548457134277,-1.039490,-0.001038,-0.196655,-11.219512,3.353659,0.609756
1548457134284,-1.047241,-0.010193,-0.207214,-9.146341,3.963415,-0.121951
1548457134292,-1.017517,0.009155,-0.223816,-7.256098,7.195122,-0.060976
1548457134307,-1.010254,0.012268,-0.235229,-6.585366,9.878049,0.243902
1548457134314,-1.019348,-0.003906,-0.231628,-6.036585,8.475610,0.000000
1548457134321,-1.022339,-0.000244,-0.224976,-4.695122,7.804878,-0.243902
1548457134337,-0.964661,0.032349,-0.240540,-3.231707,8.841464,-0.365854
1548457134344,-0.967957,-0.000244,-0.227478,-1.646341,6.707317,-1.341463
1548457134352,-1.069702,-0.058777,-0.182312,-0.243902,-3.475610,-3.719512
1548457134367,-1.020630,-0.019836,-0.227417,-0.304878,-4.878049,-3.780488
1548457134374,-1.013855,-0.002014,-0.207886,-1.829268,2.256098,-2.621951
1548457134381,-1.014771,0.007812,-0.199829,-3.658537,0.060976,-2.500000
1548457134397,-1.038757,-0.008606,-0.205322,-3.292683,-0.365854,-2.195122
1548457134404,-1.021667,0.000244,-0.212524,-2.682927,0.487805,-2.012195
1548457134411,-0.991760,0.001953,-0.214172,-2.317073,3.658537,-1.036585
1548457134427,-0.982666,0.020508,-0.203064,-2.195122,1.463415,-1.463415
1548457134434,-0.999207,0.015076,-0.197693,-2.134146,-3.353659,-2.134146
1548457134442,-1.009949,-0.007324,-0.200012,-0.731707,-7.621952,-2.439024
1548457134457,-1.022034,-0.006104,-0.188354,0.060976,-9.817074,-2.439024
1548457134480,-1.002075,0.028442,-0.188477,-0.792683,-10.243902,-2.073171
1548457134480,-0.998901,0.010620,-0.194153,-1.097561,-10.243902,-2.073171
1548457134501,-1.033813,-0.023621,-0.175354,-0.548781,-13.414635,-2.987805
1548457134501,-1.054626,-0.026123,-0.166016,-0.609756,-13.658537,-3.048780
1548457134506,-1.053040,-0.024597,-0.168274,-0.609756,-9.085366,-2.012195
1548457134517,-1.032288,-0.010864,-0.180054,-1.463415,-3.475610,-0.548781
1548457134524,-1.001099,0.051392,-0.188293,-2.682927,0.182927,0.426829
1548457134531,-1.016357,0.044189,-0.189026,-3.109756,0.243902,0.487805
1548457134546,-1.027527,0.012939,-0.190552,-0.792683,-3.719512,-0.731707
1548457134555,-1.019775,0.038086,-0.193604,0.670732,-4.634146,-1.646341
1548457134562,-1.023804,0.016602,-0.184875,0.975610,-4.512195,-1.707317
1548457134577,-1.030151,0.005005,-0.180969,1.951220,-5.487805,-2.073171
1548457134584,-1.026489,-0.006226,-0.178345,2.500000,-5.182927,-1.768293
1548457134591,-1.029358,-0.042175,-0.164917,4.207317,-4.207317,-0.792683
1548457134607,-1.029663,-0.033875,-0.168457,5.853659,-4.207317,-0.243902
1548457134614,-1.021667,-0.021912,-0.175781,5.548780,-3.353659,0.182927
1548457134621,-1.024597,-0.017822,-0.172180,3.719512,-3.353659,0.060976
1548457134636,-1.021606,-0.015686,-0.180603,2.682927,-3.963415,0.000000
1548457134644,-1.020935,0.001404,-0.180786,1.890244,-3.719512,0.000000
1548457134651,-1.023315,-0.006836,-0.176514,0.914634,-3.719512,0.000000
1548457134666,-1.017395,-0.007202,-0.177673,1.097561,-4.146341,0.000000
1548457134674,-1.026794,0.010498,-0.178833,1.280488,-4.207317,-0.121951
1548457134681,-1.036865,-0.009827,-0.174744,1.463415,-4.756098,-0.243902
1548457134697,-1.026428,-0.015930,-0.184204,1.951220,-3.963415,-0.304878
1548457134704,-1.012329,-0.016541,-0.192200,2.012195,-2.621951,-0.304878
1548457134712,-1.036194,-0.029724,-0.184875,1.341463,-3.414634,-0.487805
1548457134727,-1.039001,-0.026611,-0.173523,0.060976,-4.634146,-0.609756
1548457134735,-1.035583,-0.008240,-0.186279,-0.914634,-2.256098,-0.121951
1548457134743,-1.032104,-0.005066,-0.177856,-1.829268,-0.792683,0.060976
1548457134757,-1.021973,-0.003113,-0.169800,-2.743902,-0.304878,-0.060976
1548457134765,-1.022400,-0.000610,-0.171997,-2.500000,-0.121951,-0.487805
1548457134772,-1.030334,-0.001953,-0.175964,-1.280488,-1.280488,-1.097561
1548457134787,-1.031189,-0.006226,-0.175354,-1.036585,-1.646341,-1.463415
1548457134795,-1.025452,-0.005859,-0.174316,-1.524390,-0.853659,-1.585366
1548457134802,-1.020691,-0.004150,-0.174255,-1.707317,-0.304878,-1.585366
1548457134818,-1.018860,-0.007324,-0.174500,-1.768293,-0.060976,-1.524390
1548457134825,-0.996277,-0.000061,-0.159119,-1.646341,-0.304878,-1.707317
1548457134832,-1.011475,-0.000916,-0.166992,-0.365854,-1.585366,-2.012195
1548457134847,-1.023926,-0.015076,-0.173645,2.012195,-5.426829,-2.560976
1548457134855,-1.013428,-0.012939,-0.168030,1.341463,-4.512195,-2.682927
1548457134864,-1.027710,-0.019226,-0.170410,1.585366,-3.963415,-2.804878
1548457134877,-1.034729,-0.018860,-0.167542,1.158537,-4.451220,-3.109756
1548457134885,-1.018250,-0.008240,-0.166931,-0.365854,-1.768293,-2.865854
1548457134892,-1.025452,-0.007874,-0.171814,-0.609756,-0.853659,-2.804878
1548457134907,-1.017883,-0.005066,-0.169678,-0.731707,-1.768293,-2.865854
1548457134915,-1.018799,-0.006348,-0.168457,-0.853659,-2.256098,-2.926829
1548457134930,-1.034363,-0.008728,-0.168945,0.121951,-4.817073,-3.170732
1548457134937,-1.046082,-0.017212,-0.163818,0.853659,-6.829268,-3.231707
1548457134944,-1.048279,-0.012085,-0.165833,1.219512,-6.463415,-3.170732
1548457134953,-1.040161,-0.011230,-0.157715,0.975610,-4.939024,-2.926829
1548457134967,-1.011353,-0.008118,-0.166809,1.158537,-3.353659,-2.682927
1548457134975,-1.033997,-0.009277,-0.166931,2.378049,-4.268293,-3.048780
1548457134982,-1.018677,-0.004761,-0.165466,1.463415,-4.207317,-3.292683
1548457134997,-1.015930,-0.002930,-0.167114,0.914634,-0.182927,-2.500000
1548457135005,-1.021545,-0.015991,-0.163513,1.768293,-2.012195,-2.195122
1548457135012,-1.015869,-0.022156,-0.155579,1.463415,-1.097561,-2.378049
1548457135027,-1.041138,-0.035645,-0.163452,0.548781,-1.036585,-2.682927
1548457135034,-1.112976,-0.033386,-0.136841,0.182927,-0.975610,-2.378049
1548457135042,-1.102478,-0.016479,-0.199646,-0.792683,4.695122,-1.463415
1548457135057,-0.882446,0.002686,-0.208740,-5.731708,28.231709,0.670732
1548457135065,-0.912537,-0.009277,-0.098267,-6.707317,28.963415,0.853659
1548457135072,-0.954590,0.075378,-0.179138,1.707317,-2.439024,-1.829268
1548457135087,-1.238037,-0.106201,-0.195374,6.646342,-28.109756,-1.707317
1548457135094,-1.038635,-0.037292,-0.138184,6.585366,-6.829268,-5.731708
1548457135102,-1.025024,-0.027161,-0.162292,3.353659,13.170732,-0.182927
1548457135117,-0.958496,-0.016479,-0.183105,1.219512,9.390244,3.048780
1548457135124,-1.011292,-0.003784,-0.193176,-1.219512,6.951220,0.000000
1548457135132,-1.037109,-0.005737,-0.171936,-0.731707,3.109756,-0.853659
1548457135147,-1.032837,-0.014099,-0.187500,1.097561,2.987805,0.914634
1548457135154,-1.037292,-0.002869,-0.166626,1.524390,3.170732,0.792683
1548457135162,-1.055664,-0.023254,-0.166504,1.951220,2.195122,1.219512
1548457135177,-0.990845,-0.004517,-0.189209,2.134146,3.475610,0.853659
1548457135191,-1.028015,-0.014587,-0.179932,2.500000,5.060976,1.707317
1548457135192,-1.031128,-0.019653,-0.189575,2.865854,0.609756,1.951220
1548457135206,-1.008423,-0.015076,-0.185852,3.292683,1.768293,1.341463
1548457135214,-1.033508,-0.029114,-0.170044,3.414634,0.243902,1.158537
1548457135221,-0.989624,-0.029907,-0.192566,2.987805,-0.853659,0.975610
1548457135237,-0.945984,-0.004700,-0.196716,2.743902,1.951220,1.524390
1548457135244,-1.051270,-0.008179,-0.165588,2.073171,-7.195122,2.195122
1548457135251,-1.057556,-0.014587,-0.168640,2.195122,-12.926829,1.097561
1548457135266,-1.061523,-0.023132,-0.164490,2.865854,-8.841464,0.365854
1548457135274,-1.029602,-0.028870,-0.174377,2.804878,-3.963415,0.121951
1548457135282,-1.009277,-0.012512,-0.180054,2.621951,-0.487805,1.768293
1548457135296,-1.013428,-0.004517,-0.175903,2.621951,-0.304878,2.195122
1548457135304,-1.039551,-0.020386,-0.165161,3.170732,-3.475610,2.195122
1548457135311,-1.051880,-0.021240,-0.162170,3.780488,-4.146341,2.560976
1548457135326,-1.039795,-0.011353,-0.169922,3.048780,-1.036585,3.536585
1548457135334,-1.030518,-0.011780,-0.169983,2.378049,2.012195,3.658537
1548457135342,-1.013916,-0.011047,-0.177673,2.682927,3.780488,3.170732
1548457135356,-1.015015,-0.017212,-0.176697,3.292683,4.695122,3.170732
1548457135365,-1.027039,-0.015015,-0.172424,3.658537,3.231707,2.926829
1548457135372,-1.029968,-0.011169,-0.174194,3.536585,1.951220,3.231707
1548457135387,-1.031799,-0.010925,-0.177856,3.658537,2.073171,2.439024
1548457135394,-1.016296,-0.014465,-0.186768,3.719512,2.439024,1.463415
1548457135402,-0.992310,-0.010071,-0.193726,3.780488,3.414634,1.219512
1548457135417,-1.002014,-0.024048,-0.187805,3.780488,1.158537,1.402439
1548457135424,-1.048035,-0.033691,-0.176575,3.658537,-3.780488,1.890244
1548457135431,-1.039001,-0.019775,-0.181213,3.048780,-4.207317,2.987805
1548457135454,-1.030457,-0.013062,-0.176819,2.500000,-0.853659,3.414634
1548457135454,-1.015564,-0.007385,-0.183594,2.195122,0.182927,3.475610
1548457135462,-0.993958,0.004395,-0.190552,2.073171,1.036585,3.658537
1548457135477,-1.037109,-0.009277,-0.171509,2.073171,-1.280488,3.353659
1548457135484,-1.018616,-0.005676,-0.180237,2.134146,-3.048780,3.231707
1548457135492,-1.021606,-0.007874,-0.175476,1.890244,-0.487805,4.268293
1548457135507,-1.025085,0.000305,-0.182007,1.402439,-2.073171,4.634146
1548457135514,-1.004822,0.012268,-0.188538,0.365854,-0.853659,5.365854
1548457135522,-1.030457,-0.005798,-0.181824,-0.182927,-2.987805,4.878049
1548457135537,-1.031006,-0.005188,-0.184265,-0.182927,-4.146341,5.121951
1548457135544,-1.024170,0.001221,-0.186035,-0.487805,-2.195122,6.097561
1548457135552,-1.019592,0.008789,-0.187744,-1.280488,-2.743902,6.097561
1548457135567,-1.042908,-0.001099,-0.173706,-1.951220,-4.146341,6.463415
1548457135574,-1.031189,-0.000916,-0.177246,-2.073171,-4.085366,7.073171
1548457135582,-1.033997,0.017700,-0.176147,-2.317073,-1.951220,8.475610
1548457135597,-1.028503,0.025330,-0.176697,-2.804878,-1.707317,9.085366
1548457135604,-1.032288,0.014343,-0.172058,-3.048780,-2.317073,8.963415
1548457135612,-1.033813,0.002869,-0.172241,-3.048780,-2.621951,9.390244
1548457135626,-1.029236,0.031738,-0.180420,-3.475610,-1.463415,10.670732
1548457135634,-1.027832,0.004578,-0.180847,-4.451220,-0.304878,11.646341
1548457135642,-1.021606,0.002441,-0.179016,-5.304878,-1.463415,11.463415
1548457135656,-1.028259,0.023193,-0.175232,-6.341464,-2.195122,12.439025
1548457135664,-1.028442,0.025146,-0.178345,-7.621952,-2.560976,12.621951
1548457135671,-1.023499,0.024231,-0.176453,-8.109756,-2.073171,13.475610
1548457135687,-1.014709,0.029846,-0.176147,-7.621952,-0.548781,15.243903
1548457135694,-1.038269,0.032532,-0.168823,-6.829268,-0.304878,16.890244
1548457135702,-1.011047,0.051453,-0.180115,-6.402439,0.121951,17.987804
1548457135717,-1.031433,0.037720,-0.173218,-6.219512,1.829268,18.353659
1548457135724,-1.039185,0.027893,-0.169617,-5.853659,-0.609756,18.414635
1548457135731,-1.023987,0.043457,-0.173279,-6.219512,0.731707,19.451220
1548457135746,-1.018311,0.051636,-0.180176,-7.073171,1.707317,20.000000
1548457135761,-1.027161,0.054199,-0.177612,-7.378049,0.914634,20.121952
1548457135762,-1.027222,0.055908,-0.177124,-7.560976,0.304878,20.609756
1548457135776,-1.029175,0.054749,-0.177185,-7.560976,0.487805,20.670732
1548457135784,-1.022339,0.065796,-0.178406,-7.073171,0.609756,21.097561
1548457135792,-1.027954,0.056946,-0.171021,-6.707317,0.609756,21.463415
1548457135807,-1.031006,0.078186,-0.171204,-6.280488,-1.097561,21.219513
1548457135814,-1.008362,0.100830,-0.189331,-5.731708,0.853659,21.890244
1548457135823,-1.022400,0.054077,-0.176086,-4.939024,0.000000,20.853659
1548457135837,-1.033691,0.102661,-0.170288,-3.414634,-1.341463,21.341463
1548457135844,-0.984070,0.116638,-0.203125,-2.926829,0.426829,22.073172
1548457135852,-1.018616,0.044006,-0.170044,-2.378049,-2.378049,20.365854
1548457135867,-1.036133,0.105042,-0.165222,0.365854,-9.756098,20.304878
1548457135874,-1.009399,0.132629,-0.191895,-0.426829,-5.304878,21.585367
1548457135882,-1.005005,0.060364,-0.187256,0.000000,-6.097561,21.890244
1548457135897,-1.005188,0.127808,-0.174561,2.987805,-11.463415,21.158537
1548457135905,-1.190918,-0.022034,-0.093750,3.841464,-14.268293,22.682928
1548457135913,-1.039368,0.136719,-0.137329,9.024390,6.036585,22.621952
1548457135937,-1.001221,0.174866,-0.195679,-1.707317,33.414635,26.402439
1548457135937,-0.960449,0.073486,-0.227417,-10.121951,17.500000,22.012196
1548457135942,-0.981384,0.076294,-0.215271,-6.463415,11.646341,22.621952
1548457135957,-0.951721,0.139832,-0.208618,-1.829268,3.231707,23.231709
1548457135964,-1.004761,0.147034,-0.185425,-2.926829,-1.768293,24.878050
1548457135972,-1.041748,0.139771,-0.178772,-2.987805,-7.682927,25.853659
1548457135987,-1.047913,0.135437,-0.181030,-2.195122,-6.707317,26.768293
1548457135994,-1.019531,0.161255,-0.178345,-2.134146,-3.048780,27.195122
1548457136002,-1.011780,0.183899,-0.187317,-1.707317,0.548781,27.926830
1548457136017,-1.022461,0.169800,-0.177551,-2.439024,0.000000,27.317074
1548457136024,-1.019836,0.155884,-0.176270,-0.975610,-1.524390,26.585367
1548457136032,-1.014709,0.172058,-0.174805,-0.426829,0.914634,27.317074
1548457136047,-0.996338,0.178406,-0.190552,0.121951,3.841464,29.085367
1548457136054,-1.004395,0.165527,-0.185730,-1.890244,4.451220,29.634148
1548457136062,-1.007812,0.187073,-0.176758,-1.158537,1.646341,29.451220
1548457136077,-1.003662,0.192749,-0.188354,-0.243902,3.292683,30.365854
1548457136084,-1.023621,0.182861,-0.179443,-1.402439,3.170732,30.487806
1548457136092,-1.008057,0.199585,-0.182983,-0.731707,2.073171,30.548780
1548457136107,-1.005249,0.210754,-0.189575,-1.219512,3.292683,30.914635
1548457136114,-1.006165,0.207947,-0.194946,-2.073171,2.926829,30.975611
1548457136122,-1.000610,0.215515,-0.190857,-1.158537,1.890244,31.280489
1548457136137,-1.015320,0.197388,-0.169312,-1.036585,1.402439,31.402439
1548457136144,-1.010010,0.205994,-0.185303,-0.792683,2.378049,31.707317
1548457136152,-0.988342,0.206360,-0.189209,-0.914634,5.000000,32.012196
1548457136159,-0.975891,0.228699,-0.183716,-0.914634,5.304878,31.768293
1548457136174,-1.004272,0.234741,-0.175720,-1.097561,3.475610,32.073170
1548457136182,-0.995911,0.224365,-0.189941,-2.926829,2.865854,31.341465
1548457136189,-0.983215,0.230835,-0.197327,-4.329268,4.512195,30.426830
1548457136204,-0.983093,0.232117,-0.195068,-2.926829,3.109756,29.817074
1548457136212,-0.989380,0.251343,-0.170349,-1.280488,2.317073,29.878050
1548457136219,-0.997803,0.241150,-0.178711,0.121951,2.134146,29.634148
1548457136234,-0.971436,0.247131,-0.206604,-3.658537,3.292683,28.292683
1548457136242,-0.991028,0.261658,-0.174011,-1.585366,3.109756,28.536587
1548457136249,-0.982727,0.255005,-0.181946,-1.097561,2.560976,27.987806
1548457136264,-0.950012,0.223022,-0.209229,-4.573171,4.451220,25.487806
1548457136272,-0.973389,0.262024,-0.199829,-4.939024,3.475610,24.451220
1548457136281,-0.977844,0.275269,-0.190918,-2.743902,1.219512,24.756098
1548457136294,-0.976196,0.274841,-0.182495,-3.292683,0.914634,23.475611
1548457136302,-0.969971,0.291870,-0.195801,-3.780488,2.195122,22.804878
1548457136309,-0.965027,0.290100,-0.191895,-3.353659,3.048780,21.463415
1548457136324,-0.967773,0.270874,-0.183899,-1.707317,1.341463,19.634148
1548457136332,-0.968994,0.292419,-0.197021,-1.219512,1.829268,18.841463
1548457136339,-0.966797,0.283142,-0.189514,-0.670732,1.036585,17.317074
1548457136354,-0.962097,0.289612,-0.189636,-0.792683,0.914634,16.280489
1548457136362,-0.962891,0.285767,-0.192444,-1.524390,1.524390,15.121951
1548457136369,-0.952576,0.281799,-0.191956,-1.524390,2.317073,13.414635
1548457136384,-0.951477,0.290222,-0.194092,-1.280488,2.439024,12.073171
1548457136392,-0.945496,0.296448,-0.197205,-1.463415,2.682927,10.731708
1548457136399,-0.950806,0.296326,-0.195007,-1.707317,2.134146,9.207317
1548457136414,-0.951477,0.293396,-0.196228,-1.341463,1.158537,7.926829
1548457136422,-0.954956,0.284546,-0.190186,-0.792683,0.487805,6.585366
1548457136429,-0.953186,0.305786,-0.193970,-0.975610,1.219512,5.975610
1548457136444,-0.953125,0.309570,-0.194702,-1.097561,1.463415,4.756098
1548457136451,-0.957153,0.309875,-0.195862,-0.548781,1.036585,3.536585
1548457136459,-0.962158,0.310303,-0.194031,0.365854,0.670732,2.621951
1548457136474,-0.959167,0.304688,-0.193848,0.914634,0.792683,1.402439
1548457136481,-0.955505,0.302795,-0.197327,1.341463,1.341463,0.060976
1548457136489,-0.954468,0.304077,-0.197632,1.036585,1.524390,-0.914634
1548457136504,-0.952820,0.306885,-0.202148,0.853659,0.914634,-1.707317
1548457136511,-0.953186,0.309082,-0.198059,0.670732,0.609756,-2.256098
1548457136519,-0.953186,0.311768,-0.195190,1.097561,0.426829,-2.804878
1548457136534,-0.958435,0.314514,-0.195679,1.646341,0.304878,-3.048780
1548457136542,-0.954773,0.313965,-0.195801,1.646341,0.121951,-3.231707
1548457136556,-0.957764,0.311584,-0.196716,1.524390,0.121951,-3.109756
1548457136565,-0.958801,0.306274,-0.197144,1.524390,-0.243902,-3.353659
1548457136571,-0.933960,0.346069,-0.221741,2.134146,-0.182927,-3.414634
1548457136579,-0.966370,0.326721,-0.196838,2.378049,-1.524390,-3.841464
1548457136594,-0.983948,0.298584,-0.184387,3.414634,-6.219512,-5.548780
1548457136602,-0.972168,0.295471,-0.193054,3.536585,-3.780488,-4.573171
1548457136617,-0.964600,0.310120,-0.195984,2.439024,-1.768293,-3.780488
1548457136624,-0.968079,0.319946,-0.193420,2.317073,-1.951220,-3.414634
1548457136632,-0.969971,0.318237,-0.193237,1.036585,-2.012195,-3.719512
1548457136639,-0.971313,0.308594,-0.193542,0.000000,-1.280488,-3.841464
1548457136654,-0.974426,0.309143,-0.194092,-0.304878,-0.670732,-3.414634
1548457136662,-0.971863,0.318848,-0.200989,-0.243902,-0.365854,-3.353659
1548457136669,-0.964966,0.329773,-0.204895,-0.365854,-0.121951,-3.414634
1548457136684,-0.966614,0.289124,-0.190552,-0.060976,-0.792683,-4.573171
1548457136692,-0.970032,0.297974,-0.194580,0.426829,-1.463415,-4.024390
1548457136699,-0.968262,0.315552,-0.196106,0.060976,-1.951220,-3.170732
1548457136714,-0.968201,0.307983,-0.188721,-0.182927,-2.195122,-3.231707
1548457136721,-0.968262,0.308167,-0.193604,-0.060976,-1.890244,-3.048780
1548457136729,-0.970154,0.309570,-0.199951,-0.548781,-1.402439,-2.926829
1548457136744,-0.967896,0.307373,-0.193359,-0.060976,-1.524390,-3.170732
1548457136752,-0.969116,0.307617,-0.188171,1.707317,-1.646341,-3.231707
1548457136759,-0.972046,0.299805,-0.193604,1.219512,-2.195122,-3.231707
1548457136774,-0.973511,0.288574,-0.193909,1.341463,-1.829268,-3.292683
1548457136782,-0.968567,0.294189,-0.191101,1.890244,-0.914634,-3.414634
1548457136789,-0.967957,0.298157,-0.187012,2.134146,-0.609756,-3.597561
1548457136804,-0.969177,0.300598,-0.190613,1.402439,0.000000,-4.085366
1548457136812,-0.969788,0.299744,-0.194031,1.097561,1.280488,-4.939024
1548457136819,-0.964294,0.298218,-0.195740,1.219512,2.012195,-5.792683
1548457136834,-0.919128,0.312683,-0.220581,1.463415,1.707317,-6.219512
1548457136842,-0.987427,0.280396,-0.187805,2.256098,-2.073171,-6.768293
1548457136849,-0.999207,0.279236,-0.185242,3.780488,-7.378049,-7.500000
1548457136865,-0.966064,0.284302,-0.201660,4.268293,-2.073171,-7.256098
1548457136872,-0.938477,0.269897,-0.201172,3.963415,0.182927,-8.109756
1548457136879,-0.947510,0.259277,-0.200317,3.780488,-2.621951,-8.536586
1548457136894,-0.978271,0.267212,-0.195435,3.292683,-7.195122,-8.414635
1548457136901,-0.984558,0.272949,-0.190735,2.378049,-8.353659,-8.475610
1548457136909,-0.983276,0.276489,-0.191956,1.707317,-6.646342,-8.841464
1548457136924,-0.981689,0.284607,-0.197876,1.524390,-5.670732,-9.268292
1548457136932,-0.974365,0.270935,-0.195312,1.585366,-5.000000,-9.939025
1548457136939,-0.978394,0.270386,-0.197632,2.073171,-4.207317,-10.365854
1548457136954,-0.980896,0.273682,-0.194702,2.682927,-3.780488,-10.304878
1548457136962,-0.981323,0.274048,-0.193665,3.231707,-3.658537,-10.670732
1548457136969,-0.976746,0.266052,-0.194397,3.719512,-3.780488,-11.097561
1548457136984,-0.979919,0.260559,-0.192200,3.414634,-4.329268,-11.524390
1548457136992,-0.980225,0.259827,-0.192688,3.963415,-4.695122,-11.890244
1548457136999,-0.976562,0.264343,-0.192688,4.085366,-4.268293,-12.073171
1548457137014,-0.974670,0.262268,-0.192444,3.902439,-4.024390,-12.378049
1548457137022,-0.973267,0.261292,-0.194031,3.658537,-4.024390,-12.621951
1548457137029,-0.980408,0.260559,-0.188049,3.109756,-4.085366,-12.621951
1548457137044,-0.982910,0.254578,-0.190002,2.439024,-3.963415,-12.621951
1548457137052,-0.981628,0.253113,-0.191406,1.768293,-2.560976,-12.682927
1548457137059,-0.984558,0.251038,-0.189331,1.951220,-1.951220,-12.500000
1548457137074,-0.985718,0.253296,-0.188843,1.829268,-1.829268,-12.317074
1548457137081,-0.989929,0.255005,-0.188110,1.524390,-1.646341,-12.195122
1548457137089,-0.994934,0.253540,-0.190369,1.463415,-1.585366,-12.012196
1548457137104,-0.997620,0.252625,-0.190186,1.646341,-1.463415,-11.890244
1548457137111,-0.997864,0.250427,-0.190002,1.524390,-1.646341,-11.768293
1548457137119,-0.994873,0.245605,-0.188965,1.585366,-1.890244,-11.707317
1548457137134,-0.995056,0.244873,-0.186523,1.402439,-1.890244,-11.646341
1548457137141,-0.994019,0.240906,-0.180176,1.158537,-1.768293,-11.463415
1548457137149,-0.992920,0.236816,-0.182312,0.792683,-1.585366,-11.280488
1548457137164,-0.991028,0.235474,-0.185852,0.426829,-1.219512,-11.097561
1548457137171,-0.990295,0.232483,-0.186707,0.060976,-1.219512,-11.036586
1548457137179,-0.990601,0.225769,-0.186829,-0.243902,-1.585366,-10.792684
1548457137194,-0.989197,0.221069,-0.183167,-0.365854,-1.890244,-10.731708
1548457137201,-0.989441,0.220093,-0.178345,0.000000,-1.951220,-10.609756
1548457137209,-0.990112,0.222168,-0.176941,0.000000,-2.012195,-10.487805
1548457137224,-0.992798,0.223328,-0.177551,-0.121951,-1.890244,-10.365854
1548457137231,-0.991638,0.218140,-0.178589,0.000000,-1.768293,-10.487805
1548457137239,-0.990967,0.219727,-0.180420,-0.182927,-1.768293,-10.731708
1548457137262,-0.992554,0.216980,-0.181396,-0.121951,-1.951220,-11.036586
1548457137262,-0.996948,0.213013,-0.182434,-0.182927,-2.073171,-11.463415
1548457137269,-0.996033,0.209473,-0.182739,0.243902,-2.195122,-11.646341
1548457137284,-0.994995,0.206848,-0.182983,0.548781,-2.134146,-11.707317
1548457137291,-0.997314,0.202637,-0.183105,0.792683,-1.890244,-11.829268
1548457137299,-0.999390,0.200317,-0.180542,1.036585,-1.768293,-12.073171
1548457137314,-1.000122,0.199280,-0.185425,1.097561,-1.646341,-12.256098
1548457137322,-0.999329,0.196777,-0.183960,1.402439,-1.463415,-12.378049
1548457137329,-0.999817,0.198792,-0.184998,1.707317,-1.402439,-12.743903
1548457137344,-0.998718,0.203003,-0.188660,1.951220,-1.585366,-13.231708
1548457137352,-0.999146,0.200562,-0.189758,1.646341,-1.890244,-13.597561
1548457137360,-1.001648,0.195129,-0.188110,1.646341,-2.012195,-13.780488
1548457137374,-0.999573,0.192078,-0.188110,2.195122,-1.951220,-13.841464
1548457137382,-1.002686,0.184387,-0.191467,2.317073,-1.768293,-13.902439
1548457137389,-1.004700,0.177063,-0.189148,2.073171,-1.707317,-13.780488
1548457137404,-1.003357,0.177429,-0.185547,2.195122,-1.463415,-13.597561
1548457137412,-1.002625,0.179504,-0.184875,2.195122,-1.097561,-13.414635
1548457137419,-1.002686,0.179626,-0.184326,2.012195,-1.097561,-13.292684
1548457137434,-1.004761,0.179688,-0.185425,1.890244,-1.219512,-13.292684
1548457137442,-0.991760,0.200623,-0.180298,2.256098,-1.463415,-13.231708
1548457137449,-1.026855,0.151855,-0.202332,-0.365854,-1.341463,-13.475610
1548457137465,-1.010742,0.184814,-0.172424,2.621951,-4.146341,-13.231708
1548457137478,-0.995605,0.169800,-0.178284,4.939024,-2.743902,-13.780488
1548457137514,-1.012024,0.159485,-0.177979,1.402439,-2.439024,-13.048780
1548457137514,-1.010498,0.160217,-0.181519,1.585366,-3.414634,-13.109756
1548457137514,-1.016724,0.149780,-0.171082,1.707317,-2.378049,-13.048780
1548457137514,-1.000977,0.152893,-0.180969,1.280488,-1.768293,-13.292684
1548457137524,-1.006531,0.144409,-0.183960,0.060976,-1.036585,-13.109756
1548457137534,-1.011658,0.145874,-0.172363,0.426829,-2.682927,-13.414635
1548457137543,-1.001282,0.143555,-0.178833,0.609756,-2.621951,-13.780488
1548457137560,-1.012024,0.143250,-0.173523,-0.060976,-2.134146,-14.024390
1548457137564,-1.013733,0.143738,-0.167236,0.731707,-3.170732,-14.268293
1548457137571,-1.013489,0.137390,-0.178040,0.609756,-2.439024,-14.817074
1548457137585,-1.022888,0.130798,-0.167969,1.036585,-2.134146,-15.121951
1548457137595,-1.009583,0.127991,-0.170837,1.768293,-1.463415,-16.402439
1548457137615,-0.991211,0.115784,-0.183228,0.792683,0.060976,-16.951220
1548457137615,-0.994629,0.136230,-0.182739,0.365854,-0.060976,-17.317074
1548457137646,-1.024780,0.124634,-0.168152,1.158537,-3.048780,-16.341463
1548457137646,-1.024292,0.112488,-0.176941,0.792683,-3.475610,-17.195122
1548457137646,-0.999573,0.109985,-0.187073,1.097561,-1.341463,-17.560976
1548457137652,-1.001770,0.127441,-0.178467,2.743902,-0.853659,-17.621952
1548457137659,-1.020569,0.113770,-0.171692,2.743902,-3.353659,-17.195122
1548457137682,-1.022034,0.119812,-0.181030,2.073171,-3.658537,-17.865854
1548457137682,-1.031128,0.103638,-0.168030,3.048780,-2.621951,-17.987804
1548457137691,-1.007202,0.100708,-0.179199,4.878049,-1.768293,-18.292683
1548457137708,-1.022217,0.097046,-0.169983,5.609756,-0.792683,-17.804878
1548457137713,-0.999023,0.107178,-0.182312,4.939024,-2.378049,-17.926830
1548457137721,-1.020813,0.110962,-0.172302,5.731708,-2.682927,-17.256098
1548457137737,-1.043701,0.101990,-0.165344,5.426829,-4.878049,-17.317074
1548457137742,-1.039856,0.081543,-0.174805,5.243903,-3.475610,-17.560976
1548457137749,-1.010254,0.076721,-0.184753,5.000000,-0.426829,-17.865854
1548457137765,-1.001953,0.097656,-0.183838,5.975610,0.060976,-16.707317
1548457137772,-1.031433,0.093933,-0.173889,4.756098,-2.256098,-16.036585
1548457137779,-1.028687,0.087524,-0.177917,3.475610,-4.024390,-16.219513
1548457137794,-1.037720,0.068604,-0.169373,3.658537,-2.682927,-15.914635
1548457137809,-1.023071,0.052551,-0.171997,4.756098,-2.317073,-15.365854
1548457137810,-1.007080,0.071106,-0.175415,4.329268,-0.731707,-14.451220
1548457137824,-1.020935,0.073669,-0.179138,3.109756,-1.585366,-13.475610
1548457137832,-1.021240,0.069885,-0.176575,0.548781,-2.804878,-13.597561
1548457137839,-1.019226,0.070251,-0.182373,0.121951,-2.378049,-13.292684
1548457137854,-1.014160,-0.002075,-0.168823,0.426829,-2.926829,-12.926829
1548457137862,-1.054688,0.140259,-0.138550,3.109756,-5.182927,-11.280488
1548457137869,-1.020325,0.024597,-0.230103,-11.341464,-1.097561,-8.719512
1548457137884,-1.037354,0.104248,-0.153687,-0.304878,-3.475610,-11.158537
1548457137892,-1.015625,0.055298,-0.190369,-0.243902,-2.560976,-11.829268
1548457137899,-1.034668,0.069336,-0.149963,0.487805,-3.841464,-11.402439
1548457137914,-1.009338,-0.028809,-0.214050,1.829268,-3.963415,-10.914635
1548457137922,-1.049561,0.149719,-0.069214,3.353659,-3.597561,-10.000000
1548457137929,-0.992249,-0.009033,-0.245117,2.134146,-4.573171,-7.134147
1548457137944,-1.029846,0.077881,-0.170593,-8.292683,0.609756,-8.475610
1548457137951,-1.053650,0.029114,-0.151672,6.951220,-7.195122,-8.414635
1548457137959,-0.992859,0.083313,-0.151611,2.317073,-3.963415,-9.573171
1548457137974,-1.024719,0.027100,-0.207703,-1.158537,0.182927,-9.207317
1548457137981,-1.038208,0.057861,-0.148804,2.195122,-5.670732,-9.085366
1548457137989,-1.033997,0.034119,-0.160339,4.512195,-5.121951,-9.390244
1548457138004,-1.039673,0.032043,-0.165344,2.378049,-2.317073,-9.207317
1548457138012,-1.008606,0.039124,-0.164734,3.963415,-1.158537,-9.146341
1548457138019,-1.026001,0.023193,-0.169006,2.439024,-0.182927,-9.146341
1548457138034,-1.024536,0.030457,-0.159546,2.012195,-2.073171,-9.390244
1548457138042,-1.020142,0.025513,-0.169006,2.134146,-0.548781,-9.329268
1548457138049,-1.009949,0.035767,-0.169250,1.951220,-0.182927,-9.207317
1548457138064,-1.017639,0.023621,-0.177002,1.585366,-0.548781,-9.329268
1548457138072,-1.031677,0.022766,-0.164429,1.646341,-2.012195,-9.329268
1548457138080,-1.019104,0.017761,-0.169250,2.134146,-1.890244,-9.573171
1548457138094,-0.992126,-0.071716,-0.212341,1.951220,-0.731707,-9.756098
1548457138102,-1.059082,0.147644,-0.070374,4.207317,-3.109756,-8.780488
1548457138109,-0.999329,-0.062012,-0.256958,-4.573171,-1.768293,-8.353659
1548457138124,-1.039612,-0.026001,-0.180115,0.670732,-1.524390,-10.060976
1548457138132,-1.054138,0.125122,-0.056641,7.500000,-7.012195,-9.451220
1548457138140,-0.991516,-0.047852,-0.255127,-2.317073,-0.426829,-9.878049
1548457138154,-1.025391,-0.018616,-0.191956,-1.768293,1.768293,-11.158537
1548457138162,-1.049866,0.074768,-0.084778,7.987805,-6.524390,-9.573171
1548457138169,-1.002075,-0.036011,-0.240234,-0.365854,0.487805,-9.756098
1548457138185,-1.032959,0.014221,-0.160950,1.829268,1.463415,-9.573171
1548457138192,-1.027161,0.013184,-0.146240,6.463415,-4.329268,-9.024390
1548457138199,-1.025818,0.001831,-0.180298,2.987805,-2.256098,-8.353659
1548457138214,-1.028259,0.002136,-0.164917,3.719512,-1.829268,-7.865854
1548457138222,-1.029358,-0.003296,-0.162292,4.024390,-3.048780,-7.926829
1548457138229,-1.034302,-0.003662,-0.162170,4.085366,-3.536585,-7.560976
1548457138244,-1.036926,-0.002686,-0.162354,4.207317,-3.353659,-7.134147
1548457138252,-1.028503,0.003540,-0.162659,4.146341,-2.682927,-6.707317
1548457138259,-1.035156,0.005005,-0.161133,3.475610,-2.256098,-6.402439
1548457138274,-1.023010,0.001160,-0.166931,2.621951,-1.646341,-6.280488
1548457138282,-1.024658,0.002747,-0.162415,2.134146,-0.914634,-5.792683
1548457138289,-1.036194,0.000061,-0.163391,2.012195,-1.646341,-5.365854
1548457138304,-1.030701,-0.003540,-0.164307,1.585366,-1.524390,-5.304878
1548457138312,-1.028137,-0.003906,-0.160400,1.158537,-1.158537,-4.878049
1548457138319,-1.034546,-0.006531,-0.155701,1.158537,-1.097561,-4.451220
1548457138334,-1.029541,-0.009460,-0.158752,1.036585,-0.914634,-4.024390
1548457138342,-1.023621,-0.008240,-0.160645,0.487805,-0.121951,-3.719512
1548457138349,-1.015015,-0.007446,-0.162231,0.365854,0.000000,-3.292683
1548457138364,-1.025024,-0.009277,-0.159058,0.548781,-0.609756,-3.109756
1548457138372,-1.036621,-0.014465,-0.156799,0.609756,-1.829268,-3.231707
1548457138379,-1.028870,-0.009399,-0.159424,0.731707,-1.280488,-3.231707
1548457138394,-1.027100,-0.010376,-0.158386,1.158537,-0.487805,-2.926829
1548457138402,-1.027954,-0.010681,-0.162415,1.402439,-0.670732,-2.865854
1548457138409,-1.027344,-0.015930,-0.163025,1.280488,-0.914634,-2.804878
1548457138424,-1.028076,-0.020203,-0.161438,1.036585,-0.914634,-2.987805
1548457138439,-1.026123,-0.019287,-0.161316,0.853659,-0.548781,-2.987805
1548457138440,-1.025452,-0.018372,-0.158081,0.792683,-0.487805,-3.048780
1548457138454,-1.028198,-0.018311,-0.163879,1.158537,-0.548781,-2.987805
1548457138462,-1.024963,-0.021484,-0.167786,1.402439,-0.487805,-2.926829
1548457138469,-1.014893,-0.018616,-0.161560,1.951220,-1.097561,-2.682927
1548457138485,-1.028503,-0.015015,-0.154602,2.317073,-2.256098,-2.195122
1548457138492,-1.059265,-0.022461,-0.151123,2.195122,-3.597561,-2.195122
1548457138499,-1.047668,-0.020813,-0.156311,2.195122,-2.378049,-2.439024
1548457138514,-1.055603,-0.022034,-0.152283,2.195122,1.402439,-2.134146
1548457138522,-0.995300,-0.027649,-0.176697,1.768293,4.695122,-2.317073
1548457138529,-0.972656,-0.015564,-0.178528,1.768293,8.292683,-2.256098
1548457138544,-1.022949,-0.024902,-0.153503,2.560976,2.256098,-1.585366
1548457138552,-1.010864,-0.019531,-0.172058,2.073171,-4.207317,-1.463415
1548457138559,-1.065491,-0.038940,-0.148193,2.134146,-3.780488,-0.853659
1548457138574,-1.030884,-0.029297,-0.160339,1.402439,-5.365854,-1.219512
1548457138582,-1.026306,-0.029114,-0.170288,1.585366,0.304878,-1.280488
1548457138589,-1.003479,-0.013489,-0.164673,1.768293,1.402439,-1.097561
1548457138604,-1.012329,-0.028503,-0.174072,0.914634,-0.182927,-0.792683
1548457138611,-1.005859,-0.026367,-0.169556,0.670732,-3.475610,-1.036585
1548457138619,-1.033203,-0.027649,-0.156982,0.792683,-4.756098,-0.670732
1548457138634,-1.057373,-0.029663,-0.151184,0.121951,-7.682927,-0.548781
1548457138642,-1.061340,-0.031311,-0.158081,-0.121951,-6.158537,-0.426829
1548457138649,-1.026245,-0.013306,-0.168823,0.000000,-0.060976,-0.731707
1548457138664,-1.025330,-0.010559,-0.155273,-0.060976,2.439024,-0.304878
1548457138679,-1.053284,-0.041260,-0.166138,-0.792683,-0.975610,0.121951
1548457138680,-0.992249,-0.026978,-0.175720,-0.060976,1.402439,-0.792683
1548457138694,-1.013245,-0.023315,-0.159363,0.121951,2.865854,-0.060976
1548457138702,-1.061707,-0.028137,-0.150452,0.182927,-2.804878,0.365854
1548457138709,-1.036621,-0.014343,-0.158691,0.000000,-2.682927,-0.121951
1548457138724,-1.002502,-0.025024,-0.172974,-0.670732,1.890244,0.000000
1548457138732,-1.017517,-0.021301,-0.165161,-1.097561,0.853659,0.853659
1548457138739,-1.045593,-0.024963,-0.153564,-0.243902,-1.890244,0.853659
1548457138754,-1.044556,-0.030762,-0.157166,-0.609756,-2.317073,0.487805
1548457138762,-1.005432,-0.022217,-0.166748,-0.609756,1.524390,0.243902
1548457138769,-1.018738,-0.020325,-0.163879,-1.036585,2.134146,1.097561
1548457138785,-1.029297,-0.023010,-0.164612,-0.914634,-0.487805,1.280488
1548457138792,-1.038940,-0.027039,-0.156677,-0.853659,-0.853659,1.036585
1548457138799,-1.028625,-0.030518,-0.159790,-1.097561,-0.365854,0.792683
1548457138814,-1.025208,-0.028625,-0.158325,-1.341463,0.609756,1.036585
1548457138822,-1.015869,-0.024292,-0.164978,-1.341463,0.548781,1.341463
1548457138829,-1.028870,-0.018311,-0.153687,-0.853659,0.304878,1.585366
1548457138844,-1.044800,-0.025879,-0.150940,-0.792683,-1.768293,1.585366
1548457138852,-1.015320,-0.024353,-0.163940,-0.914634,-0.609756,1.280488
1548457138859,-1.034119,-0.024597,-0.154724,-0.548781,1.280488,1.280488
1548457138874,-1.022644,-0.024719,-0.164185,-0.426829,-0.487805,1.097561
1548457138882,-1.011292,-0.026306,-0.167297,-0.304878,1.097561,1.158537
1548457138890,-1.029114,-0.026062,-0.161377,-0.304878,-0.670732,1.280488
1548457138904,-1.045715,-0.030273,-0.154297,0.304878,-2.195122,1.158537
1548457138912,-1.009460,-0.029297,-0.164795,0.426829,-1.463415,0.853659
1548457138919,-1.005005,-0.018677,-0.160461,0.914634,0.792683,0.670732
1548457138934,-1.023865,-0.028259,-0.160828,0.975610,-2.500000,1.585366
1548457138942,-1.037598,-0.015015,-0.155762,1.097561,-2.682927,1.097561
1548457138949,-1.067017,-0.024414,-0.148682,0.731707,-2.743902,0.914634
1548457138964,-1.023743,-0.020691,-0.162659,0.487805,0.365854,0.060976
1548457138972,-0.992676,-0.019836,-0.172913,0.426829,4.878049,-0.060976
1548457138979,-1.018555,-0.025879,-0.168518,0.609756,2.500000,0.609756
1548457138994,-1.044861,-0.029846,-0.161316,1.341463,-1.707317,0.853659
1548457139002,-1.045532,-0.028381,-0.158569,1.768293,-1.890244,0.670732
1548457139009,-1.018433,-0.024414,-0.164673,1.585366,0.426829,0.426829
1548457139024,-1.037720,-0.024353,-0.161682,1.158537,0.792683,0.731707
1548457139032,-1.017761,-0.024048,-0.171082,0.792683,-0.243902,0.548781
1548457139039,-1.012939,-0.023193,-0.168945,0.914634,1.402439,0.365854
1548457139054,-1.029297,-0.019897,-0.157715,0.975610,-0.182927,0.426829
1548457139062,-1.033508,-0.022827,-0.162354,1.097561,-1.219512,0.853659
1548457139069,-1.031311,-0.028259,-0.168274,0.792683,-0.609756,0.975610
1548457139084,-1.027405,-0.020874,-0.162170,0.853659,0.487805,0.731707
1548457139092,-1.015320,-0.020081,-0.165833,0.670732,0.731707,0.792683
1548457139099,-1.005981,-0.023132,-0.169739,0.609756,0.609756,0.914634
1548457139114,-1.032654,-0.028259,-0.156616,0.792683,-1.585366,1.097561
1548457139122,-1.042358,-0.018555,-0.162720,0.304878,-4.451220,1.158537
1548457139129,-1.031128,-0.015137,-0.163940,1.158537,-0.304878,0.792683
1548457139144,-0.979797,-0.094055,-0.162842,0.365854,-0.060976,1.280488
1548457139152,-1.040649,-0.024109,-0.164368,-1.158537,-4.817073,-0.548781
1548457139159,-1.035034,0.023560,-0.161438,-1.585366,-5.609756,-2.804878
1548457139174,-1.034119,0.003967,-0.161560,-1.707317,-0.426829,1.707317
1548457139182,-1.028687,-0.007263,-0.162292,-1.097561,-1.585366,1.280488
1548457139197,-1.024292,-0.018799,-0.159973,-0.731707,-0.975610,0.914634
1548457139204,-1.028442,-0.024475,-0.157104,0.121951,-0.670732,0.853659
1548457139219,-1.026428,-0.024475,-0.159790,0.670732,-0.731707,0.975610
1548457139219,-1.026428,-0.023865,-0.161377,0.609756,-0.426829,1.341463
1548457139234,-1.027161,-0.022705,-0.161377,0.365854,-0.487805,1.463415
1548457139242,-1.026245,-0.021118,-0.161743,0.304878,-0.792683,1.402439
1548457139249,-1.028381,-0.021484,-0.161011,0.304878,-0.853659,1.524390
1548457139264,-1.026794,-0.020935,-0.159851,0.182927,-0.792683,1.585366
1548457139272,-1.026062,-0.019592,-0.159851,0.243902,-0.670732,1.646341
1548457139279,-1.023865,-0.019348,-0.159180,0.487805,-0.609756,1.646341
1548457139294,-1.023499,-0.018188,-0.158691,0.487805,-0.609756,1.585366
1548457139302,-1.024780,-0.016113,-0.164062,0.548781,-0.792683,1.707317
1548457139309,-1.025635,-0.018372,-0.164001,0.426829,-0.853659,1.829268
1548457139324,-1.029236,-0.019958,-0.162964,0.304878,-0.853659,1.890244
1548457139332,-1.028625,-0.021790,-0.163391,0.365854,-0.731707,2.073171
1548457139339,-1.027771,-0.023132,-0.161682,0.487805,-0.548781,2.195122
1548457139354,-1.028381,-0.021667,-0.163391,0.670732,-0.487805,2.256098
1548457139362,-1.025146,-0.021301,-0.162354,0.426829,-0.548781,2.256098
1548457139369,-1.024719,-0.017761,-0.160156,0.304878,-0.487805,2.317073
1548457139384,-1.024963,-0.011597,-0.161621,0.182927,-0.670732,2.378049
1548457139392,-1.024475,-0.009827,-0.162415,0.304878,-0.853659,2.500000
1548457139399,-1.024658,-0.008789,-0.162720,0.548781,-0.975610,2.439024
1548457139414,-1.024231,-0.011353,-0.164246,0.487805,-1.036585,2.317073
1548457139422,-1.027649,-0.012085,-0.160828,0.365854,-0.914634,2.256098
1548457139429,-1.030396,-0.012756,-0.161255,0.304878,-0.914634,2.378049
1548457139444,-1.026733,-0.011719,-0.162415,0.609756,-0.731707,2.500000
1548457139452,-1.029175,-0.011536,-0.162048,0.731707,-0.548781,2.621951
1548457139459,-1.029175,-0.010376,-0.161926,0.853659,-0.426829,2.743902
1548457139474,-1.028137,-0.012878,-0.164307,0.914634,-0.304878,2.743902
1548457139482,-1.029419,-0.016113,-0.164978,0.914634,-0.182927,2.926829
1548457139489,-1.028931,-0.012512,-0.165039,0.975610,-0.304878,2.987805
1548457139504,-1.027710,-0.013367,-0.163818,0.731707,-0.426829,3.048780
1548457139512,-1.026367,-0.011292,-0.161743,0.365854,-0.426829,3.109756
1548457139519,-1.024597,-0.007751,-0.162048,0.000000,-0.426829,3.170732
1548457139534,-1.026733,-0.006042,-0.162842,-0.182927,-0.670732,3.353659
1548457139542,-1.026367,-0.007751,-0.162720,-0.304878,-0.792683,3.414634
1548457139549,-1.025085,-0.007751,-0.160339,-0.182927,-0.731707,3.353659
1548457139564,-1.024109,-0.007141,-0.161621,0.000000,-0.670732,3.536585
1548457139572,-1.026978,-0.007202,-0.163879,0.182927,-0.670732,3.841464
1548457139580,-1.028687,-0.005859,-0.163330,-0.182927,-0.853659,3.963415
1548457139594,-1.029541,-0.006653,-0.160950,-0.243902,-0.853659,4.085366
1548457139602,-1.027588,-0.005249,-0.160645,-0.243902,-0.609756,4.207317
1548457139609,-1.026794,-0.003601,-0.161682,-0.304878,-0.609756,4.390244
1548457139624,-1.025330,0.001221,-0.160461,-0.609756,-0.792683,4.573171
1548457139632,-1.028015,0.002991,-0.162842,-0.731707,-1.036585,4.756098
1548457139639,-1.027954,0.000610,-0.160095,-0.792683,-1.280488,5.121951
1548457139654,-1.029236,0.002075,-0.163208,-1.158537,-1.341463,5.365854
1548457139662,-1.028992,0.002136,-0.164246,-1.280488,-1.280488,5.731708
1548457139669,-1.026184,0.005127,-0.161560,-1.402439,-1.280488,6.036585
1548457139684,-1.028992,0.009399,-0.158936,-1.707317,-1.219512,6.341464
1548457139692,-1.028625,0.012268,-0.160645,-1.585366,-1.341463,6.707317
1548457139699,-1.029480,0.014465,-0.159119,-1.768293,-1.463415,6.951220
1548457139714,-1.028320,0.014526,-0.159302,-1.707317,-1.524390,7.317073
1548457139722,-1.028381,0.015442,-0.158508,-1.890244,-1.585366,7.560976
1548457139729,-1.030457,0.015137,-0.159119,-1.951220,-1.768293,7.865854
1548457139744,-1.028137,0.017883,-0.160034,-1.951220,-1.585366,8.292683
1548457139752,-1.027710,0.018982,-0.160889,-2.012195,-1.036585,8.963415
1548457139759,-1.028809,0.021423,-0.161804,-2.012195,0.000000,10.182927
1548457139774,-1.027466,0.021118,-0.164062,-1.768293,0.487805,11.219512
1548457139782,-1.029175,0.025757,-0.159180,-1.768293,0.304878,11.646341
1548457139789,-1.030334,0.028931,-0.159058,-1.890244,0.121951,11.829268
1548457139804,-1.026672,0.031189,-0.159363,-1.646341,0.121951,12.073171
1548457139812,-1.027893,0.032593,-0.161255,-1.768293,0.182927,12.378049
1548457139819,-1.026062,0.035339,-0.163330,-1.707317,0.182927,12.926829
1548457139834,-1.028320,0.035950,-0.163818,-1.829268,0.121951,13.414635
1548457139842,-1.028809,0.039001,-0.165161,-2.073171,0.121951,13.963415
1548457139849,-1.026062,0.039490,-0.164917,-2.378049,0.182927,14.451220
1548457139864,-1.024902,0.041687,-0.164917,-2.743902,0.243902,14.878049
1548457139872,-1.025269,0.041992,-0.166626,-3.109756,0.182927,15.304878
1548457139879,-1.027222,0.044128,-0.165283,-3.475610,0.182927,15.914635
1548457139894,-1.026306,0.047668,-0.164490,-3.536585,0.243902,16.524391
1548457139902,-1.030151,0.050232,-0.164062,-3.536585,0.426829,17.134148
1548457139909,-1.031128,0.054993,-0.163574,-3.841464,0.426829,17.621952
1548457139924,-1.029480,0.060303,-0.164246,-4.146341,0.670732,18.048780
1548457139932,-1.029724,0.066345,-0.164062,-4.268293,0.914634,18.292683
1548457139939,-1.028442,0.070496,-0.165527,-4.268293,1.097561,18.597561
1548457139962,-1.028503,0.074463,-0.167480,-4.146341,1.158537,18.902439
1548457139962,-1.028259,0.074585,-0.166504,-3.963415,1.219512,19.207317
1548457139969,-1.025146,0.074036,-0.169922,-3.780488,1.341463,19.451220
1548457139984,-1.023193,0.075256,-0.168823,-3.414634,1.463415,19.695122
1548457139992,-1.021851,0.078552,-0.166809,-3.231707,1.402439,20.000000
1548457139999,-1.019409,0.083374,-0.169922,-2.987805,1.219512,20.182928
1548457140020,-1.021973,0.088806,-0.169861,-2.926829,1.097561,20.487804
1548457140022,-1.022644,0.093811,-0.168823,-2.865854,0.975610,20.792683
1548457140029,-1.023682,0.096924,-0.167236,-2.743902,0.914634,21.036587
1548457140044,-1.026978,0.101990,-0.165955,-2.256098,0.792683,21.219513
1548457140052,-1.026672,0.107361,-0.167053,-1.646341,0.670732,21.402439
1548457140059,-1.025635,0.111938,-0.167053,-1.280488,0.792683,21.585367
1548457140074,-1.021912,0.111328,-0.167114,-1.097561,0.853659,21.585367
1548457140082,-1.020569,0.112122,-0.165710,-1.097561,0.975610,21.768293
1548457140089,-1.019653,0.118225,-0.164612,-0.975610,0.853659,21.829269
1548457140104,-1.021606,0.122437,-0.163147,-0.975610,0.792683,21.951220
1548457140112,-1.020447,0.125671,-0.164246,-1.036585,0.914634,21.951220
1548457140119,-1.016541,0.128540,-0.168579,-1.280488,1.036585,22.256098
1548457140134,-1.013123,0.130554,-0.168823,-1.524390,1.158537,22.378050
1548457140142,-1.012695,0.132568,-0.168884,-1.951220,1.097561,22.439024
1548457140149,-1.012573,0.137146,-0.169434,-2.073171,0.914634,22.560976
1548457140164,-1.012390,0.140991,-0.169495,-2.073171,0.792683,22.560976
1548457140172,-1.013123,0.150146,-0.170288,-2.195122,0.792683,22.560976
1548457140179,-1.011292,0.154114,-0.171997,-2.560976,0.853659,22.804878
1548457140194,-1.011108,0.158752,-0.171692,-2.682927,0.792683,22.926830
1548457140202,-1.014709,0.159363,-0.171509,-2.317073,0.609756,22.987806
1548457140209,-1.013550,0.164490,-0.171082,-1.890244,0.487805,23.048780
1548457140224,-1.009277,0.167725,-0.170105,-1.585366,0.731707,23.048780
1548457140232,-1.006653,0.167236,-0.169434,-1.463415,0.853659,23.109756
1548457140239,-1.009583,0.172180,-0.170288,-1.158537,0.670732,22.987806
1548457140254,-1.009460,0.174377,-0.172607,-0.975610,0.487805,22.865854
1548457140262,-1.005676,0.176575,-0.173096,-1.158537,0.487805,22.743902
1548457140269,-1.005127,0.180725,-0.174744,-1.341463,0.792683,22.500000
1548457140284,-1.006897,0.177979,-0.171875,-1.524390,0.792683,22.317074
1548457140292,-1.007202,0.183594,-0.172363,-1.585366,0.670732,22.012196
1548457140299,-1.002441,0.188049,-0.176208,-1.829268,0.670732,21.890244
1548457140314,-1.002625,0.189209,-0.177795,-2.500000,0.487805,21.585367
1548457140322,-1.000366,0.193787,-0.174683,-3.170732,0.365854,21.280489
1548457140329,-0.996826,0.199280,-0.175781,-3.719512,0.609756,20.914635
1548457140344,-0.998169,0.202271,-0.174988,-3.841464,0.548781,20.487804
1548457140352,-0.998047,0.205139,-0.171997,-3.902439,0.182927,20.365854
1548457140359,-0.994019,0.213196,-0.172607,-3.902439,0.121951,20.000000
1548457140389,-0.995056,0.217590,-0.172485,-4.085366,0.182927,19.451220
1548457140390,-0.997742,0.222229,-0.170715,-3.963415,0.121951,18.963415
1548457140390,-0.989807,0.230286,-0.173157,-3.658537,0.426829,18.658537
1548457140404,-0.990845,0.235474,-0.170166,-3.292683,1.036585,18.231709
1548457140412,-0.991699,0.233704,-0.166687,-2.560976,0.975610,17.804878
1548457140419,-0.991028,0.227356,-0.168640,-1.585366,0.792683,17.500000
1548457140434,-0.989868,0.227051,-0.168945,-0.853659,0.548781,16.951220
1548457140442,-0.985474,0.230774,-0.166382,-0.304878,0.670732,16.219513
1548457140449,-0.986450,0.233948,-0.167603,-0.731707,0.182927,15.487805
1548457140464,-0.989990,0.238770,-0.168579,-1.219512,-0.487805,14.878049
1548457140471,-0.988159,0.239746,-0.169006,-1.646341,-0.548781,14.451220
1548457140479,-0.986145,0.244812,-0.167847,-1.707317,-0.182927,14.207317
1548457140494,-0.985168,0.248840,-0.165405,-1.402439,0.426829,13.841464
1548457140502,-0.977356,0.253113,-0.168945,-1.158537,0.548781,13.475610
1548457140510,-0.978394,0.255493,-0.173767,-1.097561,0.731707,13.109756
1548457140524,-0.983459,0.256897,-0.169861,-0.731707,0.304878,12.560976
1548457140532,-0.982605,0.255066,-0.169678,-0.426829,0.060976,12.195122
1548457140540,-0.983398,0.254761,-0.169678,-0.060976,-0.060976,12.195122
1548457140555,-0.982300,0.253540,-0.162659,0.060976,0.243902,12.134147
1548457140562,-0.980957,0.251953,-0.166321,-0.792683,0.426829,11.768293
1548457140571,-0.980103,0.263611,-0.174194,-2.256098,0.792683,11.402439
1548457140585,-0.976562,0.275757,-0.177063,-3.048780,1.097561,11.219512
1548457140592,-0.981445,0.284790,-0.180725,-3.780488,0.487805,11.219512
1548457140599,-0.977600,0.280945,-0.182434,-3.475610,-0.121951,11.097561
1548457140614,-0.981628,0.288513,-0.178467,-2.317073,-0.121951,11.280488
1548457140622,-0.989319,0.284058,-0.171387,-1.219512,-0.792683,11.402439
1548457140630,-0.979492,0.289490,-0.179565,-0.426829,-0.487805,11.463415
1548457140644,-0.984497,0.287964,-0.173462,-0.243902,0.121951,11.463415
1548457140652,-0.981323,0.284485,-0.172546,-0.609756,-0.609756,11.524390
1548457140660,-0.971191,0.283569,-0.172363,-0.609756,0.426829,11.585366
1548457140674,-0.981750,0.284363,-0.168701,-1.219512,-0.243902,11.768293
1548457140682,-0.972168,0.291260,-0.170837,-2.378049,-1.463415,11.707317
1548457140690,-0.968506,0.298096,-0.171936,-2.865854,-1.524390,11.768293
1548457140704,-0.997864,0.290039,-0.168823,-3.475610,-1.829268,11.829268
1548457140712,-0.970520,0.297607,-0.170410,-3.231707,-0.914634,11.524390
1548457140719,-0.939941,0.298340,-0.166748,-2.500000,2.865854,11.524390
1548457140734,-0.953796,0.297180,-0.175354,-3.170732,1.890244,11.707317
1548457140742,-0.969971,0.312256,-0.179810,-3.780488,0.304878,11.463415
1548457140749,-1.001343,0.309875,-0.162415,-2.621951,-0.731707,11.829268
1548457140764,-0.996765,0.301514,-0.156921,-1.158537,-1.097561,12.195122
1548457140772,-0.955200,0.321411,-0.179077,-0.853659,2.560976,12.256098
1548457140780,-0.972290,0.307861,-0.172180,-1.524390,3.048780,11.707317
1548457140794,-0.965027,0.309448,-0.174255,-1.585366,0.000000,10.792684
1548457140802,-0.973328,0.312500,-0.173706,-1.341463,-1.036585,10.609756
1548457140809,-0.971130,0.317871,-0.170715,-1.463415,-2.012195,10.487805
1548457140824,-0.978394,0.295593,-0.159973,-1.158537,-2.073171,10.365854
1548457140832,-0.957397,0.317139,-0.185608,-0.792683,-1.158537,9.756098
1548457140839,-0.947144,0.323486,-0.161255,0.121951,0.609756,9.512196
1548457140854,-0.960571,0.306335,-0.157349,1.158537,-1.890244,9.024390
1548457140862,-0.973938,0.302063,-0.165283,-0.243902,-3.048780,8.170732
1548457140869,-0.959839,0.313782,-0.165100,-0.548781,-1.219512,7.865854
1548457140884,-0.956848,0.326233,-0.170593,-0.853659,0.914634,7.439024
1548457140892,-0.954590,0.310425,-0.169067,-1.219512,0.914634,7.195122
1548457140899,-0.949646,0.330688,-0.176025,-1.219512,1.219512,6.585366
1548457140914,-0.963013,0.318787,-0.168274,-0.670732,0.426829,6.097561
1548457140922,-0.969482,0.316040,-0.165955,0.182927,-0.670732,5.365854
1548457140929,-0.961243,0.323792,-0.170715,0.487805,-0.243902,4.512195
1548457140944,-0.930115,0.309875,-0.185669,0.060976,1.524390,4.024390
1548457140953,-1.000854,0.344727,-0.200256,-0.365854,-0.914634,4.146341
1548457140959,-0.959412,0.377747,-0.151001,1.646341,-2.865854,3.536585
1548457140974,-0.974060,0.279297,-0.136108,4.268293,2.073171,2.682927
1548457140981,-0.957825,0.277710,-0.199524,-0.304878,1.585366,4.695122
1548457140989,-0.962585,0.335876,-0.182251,3.231707,-0.975610,2.012195
1548457141004,-0.965637,0.357300,-0.173950,2.134146,-1.341463,0.243902
1548457141012,-0.951660,0.349426,-0.160889,-0.853659,2.073171,1.829268
1548457141019,-0.957520,0.316711,-0.183838,0.548781,1.890244,2.682927
1548457141034,-0.957764,0.320312,-0.180786,1.280488,0.853659,2.134146
1548457141042,-0.957153,0.334717,-0.171814,3.170732,-1.585366,0.609756
1548457141049,-0.961670,0.334534,-0.174744,1.402439,-1.951220,0.243902
1548457141064,-0.963501,0.326050,-0.180542,0.304878,0.000000,1.402439
1548457141072,-0.959778,0.324219,-0.176453,0.853659,0.792683,1.646341
1548457141080,-0.957764,0.333069,-0.170288,1.158537,-0.060976,0.670732
1548457141094,-0.955933,0.341370,-0.173645,0.548781,-1.097561,0.060976
1548457141102,-0.952209,0.337280,-0.178284,0.060976,-0.792683,0.487805
1548457141110,-0.953735,0.331116,-0.177002,0.670732,-0.365854,0.792683
1548457141124,-0.956299,0.329468,-0.172974,1.158537,-0.975610,0.487805
1548457141132,-0.960754,0.332031,-0.171021,0.975610,-1.646341,0.426829
1548457141139,-0.961426,0.337646,-0.170410,0.792683,-1.402439,0.670732
1548457141154,-0.961731,0.337341,-0.169678,0.975610,-0.792683,0.731707
1548457141162,-0.963440,0.335999,-0.171448,1.463415,-0.731707,0.243902
1548457141169,-0.966797,0.334106,-0.174194,1.646341,-0.975610,-0.182927
1548457141184,-0.963989,0.336487,-0.172668,1.219512,-1.219512,-0.243902
1548457141192,-0.960754,0.337891,-0.171692,0.731707,-1.097561,-0.121951
1548457141199,-0.962646,0.335083,-0.171387,0.365854,-0.792683,0.000000
1548457141214,-0.963745,0.335632,-0.175476,-0.121951,-0.060976,0.182927
1548457141222,-0.961792,0.337708,-0.172363,-0.365854,0.853659,0.487805
1548457141229,-0.959473,0.338806,-0.170898,0.182927,1.280488,0.731707
1548457141244,-0.959412,0.335754,-0.173950,0.609756,1.097561,0.731707
1548457141252,-0.960632,0.335327,-0.175354,0.853659,0.121951,0.548781
1548457141259,-0.960327,0.331482,-0.172424,1.097561,-0.670732,0.426829
1548457141274,-0.960144,0.331360,-0.173645,1.158537,-1.158537,0.487805
1548457141282,-0.960876,0.339233,-0.170898,1.036585,-1.158537,0.670732
1548457141290,-0.959656,0.339355,-0.171692,0.548781,-0.914634,0.853659
1548457141304,-0.960510,0.335876,-0.173767,0.670732,-0.670732,0.914634
1548457141312,-0.962463,0.330139,-0.173889,0.914634,-0.548781,0.853659
1548457141319,-0.959045,0.330933,-0.173584,0.914634,-0.365854,0.792683
1548457141334,-0.959961,0.336060,-0.174133,0.853659,-0.487805,0.670732
1548457141342,-0.962524,0.336975,-0.174438,0.853659,-0.975610,0.609756
1548457141350,-0.964111,0.331909,-0.174377,0.670732,-1.280488,0.731707
1548457141365,-0.960754,0.328674,-0.176941,0.243902,-1.219512,0.609756
1548457141372,-0.957153,0.329346,-0.172546,0.060976,-0.792683,0.426829
1548457141379,-0.959534,0.335571,-0.172058,0.000000,-0.670732,0.304878
1548457141394,-0.959290,0.333923,-0.173706,-0.121951,-0.548781,0.426829
1548457141402,-0.958191,0.331604,-0.175476,-0.121951,-0.243902,0.304878
1548457141409,-0.959656,0.330627,-0.175659,-0.121951,-0.609756,0.121951
1548457141424,-0.963196,0.330322,-0.177979,0.121951,-0.975610,0.000000
1548457141432,-0.958679,0.331177,-0.176331,0.182927,-0.670732,0.000000
1548457141439,-0.958740,0.334839,-0.176636,0.243902,-0.304878,0.243902
1548457141455,-0.958435,0.334229,-0.176514,0.670732,-0.426829,0.426829
1548457141462,-0.960083,0.328796,-0.174133,0.731707,-0.731707,0.304878
1548457141470,-0.961487,0.331055,-0.177307,0.304878,-1.036585,-0.121951
1548457141491,-0.961548,0.336304,-0.179016,0.060976,-1.463415,-0.182927
1548457141492,-0.962158,0.338928,-0.177612,0.000000,-1.951220,-0.121951
1548457141499,-0.964355,0.338013,-0.177979,0.182927,-1.951220,0.000000
1548457141515,-0.977417,0.343201,-0.171997,0.365854,-1.585366,0.060976
1548457141522,-0.958008,0.334229,-0.177429,0.426829,-0.365854,0.000000
1548457141529,-0.948364,0.326233,-0.178894,0.670732,2.195122,-0.121951
1548457141544,-0.965576,0.338684,-0.174072,0.609756,0.792683,-0.243902
1548457141552,-0.960083,0.330566,-0.174316,0.487805,0.182927,-0.243902
1548457141559,-0.960022,0.331543,-0.171387,0.548781,1.097561,-0.243902
1548457141574,-0.957764,0.335144,-0.174194,0.609756,0.182927,-0.365854
1548457141583,-0.969604,0.336304,-0.172119,0.731707,-0.365854,-0.609756
1548457141589,-0.951111,0.335571,-0.176453,0.609756,-0.121951,-0.975610
1548457141604,-0.954468,0.327332,-0.172791,0.731707,1.341463,-1.097561
1548457141612,-0.955139,0.333435,-0.176758,0.853659,0.731707,-1.341463
1548457141619,-0.961060,0.331726,-0.174927,0.853659,0.487805,-1.585366
1548457141634,-0.956543,0.329407,-0.177429,1.036585,-0.426829,-1.707317
1548457141643,-0.956360,0.327454,-0.174255,1.158537,-0.670732,-1.951220
1548457141649,-0.963379,0.324463,-0.170959,1.036585,-0.731707,-2.560976
1548457141664,-0.970032,0.325378,-0.165955,1.341463,-0.609756,-2.987805
1548457141672,-0.963623,0.327698,-0.171143,1.402439,0.487805,-3.292683
1548457141679,-0.942993,0.318237,-0.180176,1.219512,2.073171,-3.536585
1548457141702,-0.929260,0.313354,-0.180542,1.341463,2.560976,-3.963415
1548457141703,-0.975098,0.314697,-0.167664,2.134146,-1.036585,-4.512195
1548457141709,-0.967590,0.315369,-0.172852,2.682927,-3.109756,-5.060976
1548457141724,-0.968567,0.317017,-0.170776,2.500000,-0.426829,-5.365854
1548457141732,-0.952087,0.320862,-0.180542,1.829268,0.365854,-6.097561
1548457141739,-0.950134,0.317017,-0.185364,1.768293,0.670732,-6.585366
1548457141754,-0.965637,0.315247,-0.175354,2.500000,-0.975610,-7.073171
1548457141762,-0.967896,0.317505,-0.177734,3.231707,-1.951220,-7.743903
1548457141769,-0.968323,0.312073,-0.181702,3.170732,-1.768293,-8.353659
1548457141784,-0.964050,0.308044,-0.176514,3.109756,-1.646341,-8.963415
1548457141792,-0.965881,0.308228,-0.172302,3.353659,-1.768293,-9.329268
1548457141799,-0.963867,0.306763,-0.176880,3.292683,-1.646341,-9.634147
1548457141814,-0.964233,0.304810,-0.177551,3.170732,-1.585366,-9.878049
1548457141822,-0.966309,0.306091,-0.173035,3.353659,-1.768293,-10.304878
1548457141829,-0.969360,0.307068,-0.176025,3.475610,-1.829268,-10.731708
1548457141844,-0.971802,0.305969,-0.178528,3.292683,-1.768293,-11.036586
1548457141852,-0.970947,0.306213,-0.180542,3.109756,-1.768293,-11.402439
1548457141859,-0.965759,0.300781,-0.184204,2.926829,-1.463415,-11.707317
1548457141874,-0.967834,0.292664,-0.181824,2.804878,-1.646341,-11.890244
1548457141882,-0.978210,0.290649,-0.178223,3.414634,-2.378049,-12.073171
1548457141889,-0.982178,0.292053,-0.175415,3.353659,-2.621951,-12.378049
1548457141904,-0.978088,0.293396,-0.182495,2.987805,-1.890244,-12.743903
1548457141912,-0.973694,0.288574,-0.182983,2.439024,-1.402439,-13.048780
1548457141919,-0.970764,0.287720,-0.182983,1.646341,-1.402439,-13.109756
1548457141934,-0.972534,0.286743,-0.186157,1.829268,-1.402439,-13.048780
1548457141942,-0.977295,0.281799,-0.182556,2.012195,-1.890244,-12.743903
1548457141949,-0.976318,0.279907,-0.183533,2.134146,-1.890244,-12.682927
1548457141964,-0.975647,0.281189,-0.183350,2.743902,-1.402439,-12.804878
1548457141972,-0.979065,0.277588,-0.179626,2.804878,-1.341463,-12.865854
1548457141979,-0.980164,0.273743,-0.181702,2.743902,-1.646341,-13.048780
1548457141994,-0.982117,0.270508,-0.182251,2.987805,-1.707317,-13.292684
1548457142009,-0.986023,0.270630,-0.180176,2.926829,-1.951220,-13.475610
1548457142010,-0.989380,0.265686,-0.179688,2.560976,-2.134146,-13.719513
1548457142024,-0.987366,0.261108,-0.180786,2.134146,-1.890244,-14.024390
1548457142032,-0.979126,0.256409,-0.177734,2.012195,-1.219512,-14.024390
1548457142039,-0.980530,0.253479,-0.180908,1.585366,-0.914634,-13.963415
1548457142054,-0.985535,0.250549,-0.179932,1.158537,-1.219512,-14.024390
1548457142062,-0.989014,0.248413,-0.177307,0.670732,-1.524390,-14.268293
1548457142069,-0.988403,0.250671,-0.176392,0.426829,-1.402439,-14.512196
1548457142084,-0.987366,0.247131,-0.177734,0.548781,-1.341463,-14.817074
1548457142092,-0.986877,0.245056,-0.173706,0.914634,-1.524390,-15.000000
1548457142099,-0.983337,0.243896,-0.174133,1.646341,-1.585366,-15.243903
1548457142114,-0.986328,0.242126,-0.174683,2.256098,-1.890244,-15.426829
1548457142122,-0.986816,0.236572,-0.172363,2.500000,-2.134146,-15.792684
1548457142129,-0.986694,0.232727,-0.173706,2.560976,-2.134146,-16.036585
1548457142152,-0.986023,0.226868,-0.175476,2.804878,-1.951220,-16.158537
1548457142152,-0.991028,0.221191,-0.174866,2.926829,-1.890244,-16.219513
1548457142159,-0.994324,0.221680,-0.176758,2.987805,-2.073171,-16.402439
1548457142174,-0.999634,0.219849,-0.173157,2.682927,-2.012195,-16.585365
1548457142182,-1.001648,0.224548,-0.174622,2.317073,-2.195122,-16.890244
1548457142189,-0.997620,0.222534,-0.178589,2.439024,-2.195122,-16.951220
1548457142204,-0.997925,0.213623,-0.179688,2.439024,-2.256098,-17.134148
1548457142212,-1.006287,0.208679,-0.170166,2.682927,-2.865854,-17.560976
1548457142219,-1.004517,0.207092,-0.169556,3.109756,-3.109756,-17.987804
1548457142234,-1.002747,0.205933,-0.170837,3.292683,-2.804878,-18.414635
1548457142242,-1.002747,0.199280,-0.171509,2.500000,-2.682927,-18.658537
1548457142250,-1.000916,0.190918,-0.171448,2.012195,-2.743902,-18.780489
1548457142264,-0.993042,0.186523,-0.173096,2.073171,-2.439024,-19.146341
1548457142272,-0.992126,0.188049,-0.171326,1.646341,-2.317073,-19.512196
1548457142279,-0.996338,0.190979,-0.173706,1.097561,-2.560976,-19.878050
1548457142294,-1.000488,0.185425,-0.178528,0.365854,-2.560976,-19.878050
1548457142302,-0.997925,0.179810,-0.177246,0.304878,-2.134146,-19.878050
1548457142317,-1.000488,0.178894,-0.174561,0.914634,-1.829268,-20.000000
1548457142324,-1.007019,0.183533,-0.174011,1.219512,-2.073171,-20.060976
1548457142332,-1.013550,0.184204,-0.174500,2.012195,-2.378049,-20.304878
1548457142339,-1.012207,0.181091,-0.175293,2.804878,-2.439024,-20.609756
1548457142354,-1.010193,0.174622,-0.176819,3.658537,-2.012195,-20.792683
1548457142362,-1.009766,0.163696,-0.175354,4.512195,-2.012195,-20.914635
1548457142369,-1.010376,0.154785,-0.174011,4.878049,-2.378049,-21.097561
1548457142384,-1.009399,0.148376,-0.173279,5.487805,-2.621951,-20.975611
1548457142392,-1.010803,0.143555,-0.173218,5.121951,-2.621951,-20.975611
1548457142399,-1.011841,0.137939,-0.172607,4.512195,-2.500000,-20.975611
1548457142414,-1.010376,0.131775,-0.173828,3.780488,-2.439024,-20.975611
1548457142422,-1.009094,0.133118,-0.173279,2.987805,-2.621951,-21.219513
1548457142429,-1.010742,0.130432,-0.173096,2.378049,-2.926829,-21.402439
1548457142444,-1.014404,0.127136,-0.170349,2.012195,-3.292683,-21.585367
1548457142452,-1.014038,0.122925,-0.172974,1.707317,-3.475610,-21.646341
1548457142459,-1.014160,0.116211,-0.171204,1.524390,-3.414634,-21.646341
1548457142474,-1.015808,0.112549,-0.171570,1.280488,-3.231707,-21.585367
1548457142482,-1.016418,0.113159,-0.171082,0.975610,-3.048780,-21.524391
1548457142489,-1.017456,0.108765,-0.170776,0.426829,-2.987805,-21.646341
1548457142504,-1.018188,0.103577,-0.169250,0.182927,-2.987805,-21.768293
1548457142512,-1.015076,0.103638,-0.171936,0.487805,-2.865854,-21.951220
1548457142519,-1.020142,0.099426,-0.172058,0.914634,-3.048780,-22.012196
1548457142534,-1.024719,0.094238,-0.169250,1.402439,-3.353659,-22.134148
1548457142542,-1.025391,0.100281,-0.168640,2.073171,-3.475610,-22.195122
1548457142549,-1.026245,0.096497,-0.170349,2.743902,-3.292683,-22.317074
1548457142564,-1.023926,0.090637,-0.167786,2.682927,-3.292683,-22.682928
1548457142572,-1.026855,0.087097,-0.167908,3.231707,-3.231707,-22.865854
1548457142579,-1.025940,0.079041,-0.165955,3.719512,-3.170732,-22.987806
1548457142594,-1.024902,0.070435,-0.165344,4.329268,-3.109756,-22.987806
1548457142602,-1.025085,0.064636,-0.162476,4.634146,-3.109756,-23.048780
1548457142609,-1.024902,0.065735,-0.161011,4.878049,-3.109756,-22.926830
1548457142624,-1.021973,0.062012,-0.161011,4.878049,-2.926829,-22.743902
1548457142632,-1.022583,0.055603,-0.163757,4.268293,-2.743902,-22.804878
1548457142639,-1.023804,0.050537,-0.162476,4.085366,-2.865854,-22.682928
1548457142654,-1.024475,0.045715,-0.164001,3.841464,-2.926829,-22.682928
1548457142662,-1.025085,0.043152,-0.161560,3.475610,-2.865854,-22.621952
1548457142669,-1.024109,0.040955,-0.157043,3.353659,-2.926829,-22.560976
1548457142684,-1.027283,0.038086,-0.160583,3.353659,-3.048780,-22.317074
1548457142692,-1.025574,0.038757,-0.159729,3.292683,-3.109756,-21.829269
1548457142699,-1.029602,0.036926,-0.160889,3.841464,-3.231707,-21.280489
1548457142714,-1.034973,0.027527,-0.159180,4.329268,-3.658537,-20.914635
1548457142722,-1.032532,0.026489,-0.157532,4.573171,-3.414634,-20.853659
1548457142729,-1.037170,0.025879,-0.160339,4.878049,-3.048780,-20.609756
1548457142744,-1.038330,0.018250,-0.164612,4.634146,-3.231707,-20.121952
1548457142752,-1.034790,0.014648,-0.162903,4.512195,-3.048780,-19.512196
1548457142759,-1.033447,0.009644,-0.165649,4.817073,-2.804878,-19.024391
1548457142774,-1.031067,-0.006775,-0.166260,4.939024,-2.804878,-18.231709
1548457142789,-1.030396,0.003479,-0.160889,4.451220,-2.012195,-16.524391
1548457142790,-1.029236,0.021484,-0.158142,5.853659,-1.524390,-14.878049
1548457142804,-1.031189,0.007263,-0.155762,6.219512,-1.341463,-14.451220
1548457142812,-1.029541,-0.001709,-0.155640,5.304878,-1.768293,-14.634147
1548457142819,-1.025940,-0.004456,-0.157776,4.695122,-1.524390,-14.085366
1548457142834,-1.024902,-0.003174,-0.158203,3.963415,-1.097561,-13.231708
1548457142842,-1.024292,0.000671,-0.158997,3.658537,-1.097561,-12.500000
1548457142849,-1.024414,-0.009644,-0.158997,3.475610,-1.280488,-12.195122
1548457142864,-1.027405,-0.010681,-0.160400,3.353659,-1.646341,-12.073171
1548457142879,-1.032410,-0.012512,-0.157959,3.048780,-1.768293,-11.707317
1548457142880,-1.035095,-0.013428,-0.156982,2.865854,-1.707317,-11.463415
1548457142894,-1.035583,-0.014832,-0.154053,2.743902,-1.585366,-11.158537
1548457142902,-1.036499,-0.009766,-0.154846,2.743902,-1.463415,-10.609756
1548457142909,-1.033569,-0.013611,-0.161072,2.926829,-1.280488,-10.060976
1548457142924,-1.030273,-0.021362,-0.156738,2.926829,-1.158537,-9.817074
1548457142932,-1.029785,-0.020081,-0.159241,3.170732,-0.914634,-9.634147
1548457142939,-1.011292,0.016174,-0.157715,3.231707,-0.609756,-9.268292
1548457142955,-1.034973,-0.018982,-0.161194,2.500000,-1.463415,-7.500000
1548457142962,-1.047241,-0.040527,-0.150269,3.414634,-2.804878,-6.524390
1548457142969,-1.017151,-0.050354,-0.161987,3.841464,-1.036585,-7.560976
1548457142984,-1.011169,-0.041199,-0.158020,3.597561,0.731707,-7.743903
1548457142992,-1.031799,-0.042969,-0.151550,3.475610,-1.768293,-7.256098
1548457142999,-1.033997,-0.042847,-0.155396,2.987805,-2.987805,-6.890244
1548457143014,-1.035339,-0.041870,-0.154724,3.048780,-1.463415,-7.012195
1548457143022,-1.007874,-0.041565,-0.163818,2.560976,-0.731707,-6.951220
1548457143029,-1.019409,-0.040039,-0.151978,2.500000,-1.097561,-7.073171
1548457143044,-1.076050,-0.060791,-0.145569,2.195122,-4.268293,-7.134147
1548457143052,-1.032715,-0.025513,-0.158752,1.829268,-4.024390,-7.865854
1548457143059,-0.993225,-0.073547,-0.164062,2.317073,6.951220,-7.560976
1548457143074,-1.056824,-0.032593,-0.165710,0.609756,-2.317073,-6.585366
1548457143082,-1.002625,0.032593,-0.096985,3.170732,0.670732,-7.317073
1548457143089,-1.016846,-0.059021,-0.181763,-0.792683,-1.036585,-5.487805
1548457143104,-1.032166,-0.065430,-0.194336,-6.097561,-5.365854,-6.707317
1548457143112,-1.039124,-0.048645,-0.146973,1.402439,-3.780488,-5.060976
1548457143119,-1.031860,-0.048401,-0.150391,2.500000,-3.780488,-4.329268
1548457143134,-1.024841,-0.046875,-0.149719,3.353659,-1.890244,-4.085366
1548457143156,-1.020691,-0.057129,-0.170349,1.341463,-1.280488,-3.780488
1548457143157,-1.020996,-0.048950,-0.156311,1.036585,-1.646341,-3.353659
1548457143164,-1.021057,-0.049500,-0.153198,1.158537,-3.292683,-3.292683
1548457143172,-1.030334,-0.049194,-0.148499,0.609756,-3.536585,-2.926829
1548457143179,-1.037537,-0.049316,-0.151001,0.304878,-4.268293,-2.682927
1548457143194,-1.037659,-0.049744,-0.153503,-0.121951,-4.268293,-2.378049
1548457143203,-1.040161,-0.052856,-0.148865,-0.731707,-3.414634,-1.890244
1548457143209,-1.037537,-0.055359,-0.147217,-0.670732,-2.560976,-1.524390
1548457143224,-1.037781,-0.056396,-0.149170,-0.304878,-1.341463,-1.341463
1548457143232,-1.029358,-0.055969,-0.149475,0.000000,-0.182927,-0.914634
1548457143239,-1.028137,-0.056946,-0.151672,0.000000,1.036585,-0.731707
1548457143262,-1.029114,-0.055664,-0.155640,-0.060976,1.097561,-0.487805
1548457143263,-1.024414,-0.048401,-0.154785,0.000000,0.792683,0.182927
1548457143270,-1.024963,-0.049011,-0.150513,-0.487805,0.304878,0.670732
1548457143284,-1.022827,-0.053406,-0.154724,-1.280488,-0.121951,0.792683
1548457143292,-1.024048,-0.053955,-0.151611,-1.524390,-0.426829,1.280488
1548457143299,-1.031372,-0.053467,-0.145752,-1.219512,-1.524390,1.707317
1548457143314,-1.031494,-0.052429,-0.147644,-1.097561,-1.951220,1.951220
1548457143322,-1.033386,-0.050903,-0.150757,-0.792683,-1.951220,2.378049
1548457143330,-1.031921,-0.050110,-0.149536,-0.426829,-1.646341,2.987805
1548457143344,-1.035400,-0.053650,-0.146851,-0.060976,-1.646341,3.170732
1548457143352,-1.037537,-0.057434,-0.148071,0.000000,-1.219512,3.048780
1548457143359,-1.029053,-0.053833,-0.149597,-0.060976,0.000000,3.048780
1548457143374,-1.019897,-0.050964,-0.151489,-0.182927,1.036585,3.292683
1548457143382,-1.015137,-0.049377,-0.152039,-0.426829,1.280488,3.414634
1548457143389,-1.017639,-0.048462,-0.153320,-0.426829,0.670732,3.231707
1548457143404,-1.024536,-0.050415,-0.151062,-0.426829,-0.670732,3.170732
1548457143412,-1.031372,-0.053223,-0.149353,-0.182927,-1.463415,3.170732
1548457143419,-1.033569,-0.055420,-0.151184,-0.060976,-1.585366,3.231707
1548457143434,-1.031006,-0.057007,-0.150391,0.121951,-0.975610,3.353659
1548457143442,-1.030151,-0.057678,-0.151733,0.182927,-0.304878,3.231707
1548457143449,-1.026611,-0.056396,-0.152100,0.182927,0.121951,2.987805
1548457143464,-1.023376,-0.054138,-0.155151,0.182927,0.304878,2.926829
1548457143472,-1.029846,-0.055176,-0.152283,0.121951,0.000000,2.743902
1548457143479,-1.025696,-0.053467,-0.151917,-0.060976,-0.670732,2.500000
1548457143502,-1.026001,-0.052734,-0.150818,-0.182927,-0.609756,2.439024
1548457143503,-1.027710,-0.050049,-0.155396,-0.121951,-0.731707,2.195122
1548457143509,-1.024414,-0.048950,-0.153992,-0.182927,-0.609756,1.951220
1548457143524,-1.022461,-0.049377,-0.152039,0.000000,-0.792683,1.829268
1548457143532,-1.024109,-0.047668,-0.154297,0.182927,-0.914634,1.585366
1548457143539,-1.032227,-0.051147,-0.152222,0.243902,-1.097561,1.341463
1548457143555,-1.037537,-0.054199,-0.151489,0.426829,-0.975610,0.914634
1548457143562,-1.025146,-0.052917,-0.152954,0.609756,-0.121951,0.731707
1548457143569,-1.021423,-0.048096,-0.148804,0.914634,1.341463,0.365854
1548457143584,-1.022583,-0.049255,-0.152649,0.243902,0.914634,0.487805
1548457143592,-1.018188,-0.047668,-0.155212,-0.060976,0.609756,0.304878
1548457143599,-1.017334,-0.043823,-0.152649,-0.121951,0.121951,0.060976
1548457143614,-1.027466,-0.049011,-0.152771,0.060976,-0.914634,0.060976
1548457143622,-1.034363,-0.049744,-0.153809,0.060976,-1.646341,-0.060976
1548457143629,-1.029602,-0.053650,-0.155090,0.243902,-0.914634,-0.304878
1548457143644,-1.034119,-0.046387,-0.151306,0.121951,-0.060976,-0.487805
1548457143652,-1.034241,-0.039734,-0.154785,-0.426829,0.670732,-0.670732
1548457143659,-1.010132,-0.043335,-0.165527,-1.524390,2.317073,-0.914634
1548457143674,-1.014587,-0.052917,-0.162720,-1.951220,1.097561,-0.853659
1548457143682,-1.036194,-0.048157,-0.145935,-1.585366,-1.524390,-0.975610
1548457143689,-1.017273,-0.053589,-0.165710,-1.890244,-2.134146,-1.280488
1548457143704,-1.020203,-0.049561,-0.159363,-2.073171,-1.158537,-0.853659
1548457143712,-1.042480,-0.055115,-0.158447,-2.743902,-2.134146,-0.609756
1548457143719,-1.006592,-0.047791,-0.162720,-2.926829,-1.219512,-1.158537
1548457143734,-1.017822,-0.046814,-0.156738,-2.256098,0.304878,-1.158537
1548457143742,-1.028564,-0.054199,-0.153381,-2.500000,-2.439024,-1.280488
1548457143749,-1.031738,-0.048584,-0.153503,-2.560976,-3.536585,-1.341463
1548457143764,-1.035217,-0.041199,-0.156433,-3.231707,-3.231707,-1.158537
1548457143772,-1.030823,-0.044617,-0.155090,-3.475610,-3.109756,-0.548781
1548457143779,-1.031006,-0.046509,-0.149902,-3.658537,-2.682927,-0.365854
1548457143794,-1.031921,-0.052002,-0.151672,-3.475610,-2.195122,-0.304878
1548457143802,-1.037720,-0.049561,-0.144165,-2.682927,-1.951220,-0.121951
1548457143809,-1.027466,-0.038086,-0.145386,-2.256098,-0.975610,-0.304878
1548457143824,-1.031677,-0.036865,-0.148376,-2.195122,-0.243902,0.182927
1548457143832,-1.038391,-0.052673,-0.143066,-1.768293,-0.731707,0.548781
1548457143839,-1.050171,-0.042358,-0.133545,-0.792683,-0.548781,0.060976
1548457143854,-1.028625,-0.031433,-0.148438,0.000000,1.829268,-0.548781
1548457143862,-1.014771,-0.028687,-0.153198,0.487805,4.634146,0.243902
1548457143869,-1.018921,-0.034973,-0.148987,0.792683,3.902439,1.097561
1548457143885,-1.027710,-0.044128,-0.146423,1.585366,2.256098,1.097561
1548457143892,-1.023743,-0.052185,-0.145264,2.195122,1.890244,0.914634
1548457143899,-1.022034,-0.050720,-0.147095,2.195122,2.012195,1.280488
1548457143914,-1.020020,-0.048462,-0.148010,2.682927,1.341463,1.402439
1548457143922,-1.023560,-0.046997,-0.154419,2.621951,0.121951,1.402439
1548457143930,-1.024292,-0.041504,-0.156677,2.134146,-0.792683,1.402439
1548457143944,-1.032715,-0.036011,-0.155090,2.073171,-0.853659,1.585366
1548457143952,-1.033936,-0.041016,-0.151245,2.500000,-0.731707,1.768293
1548457143959,-1.028687,-0.058289,-0.152466,2.865854,0.060976,2.012195
1548457143975,-1.037415,-0.050049,-0.152771,2.804878,-0.609756,1.463415
1548457143982,-1.034607,-0.046387,-0.155945,2.865854,-0.670732,1.646341
1548457143989,-1.039673,-0.044678,-0.159607,2.865854,0.792683,2.500000
1548457144004,-1.038574,-0.029236,-0.156250,3.170732,1.036585,2.500000
1548457144012,-1.028381,-0.025574,-0.156067,3.353659,2.865854,3.353659
1548457144019,-0.987549,-0.144775,-0.166443,2.865854,2.378049,3.902439
1548457144034,-1.054565,0.033569,-0.157104,1.402439,-4.817073,-0.304878
1548457144042,-1.009766,-0.053162,-0.177246,1.646341,-1.768293,3.963415
1548457144057,-1.035278,-0.115234,-0.148499,3.963415,1.768293,5.304878
1548457144064,-0.983948,-0.134460,-0.163330,2.865854,-1.463415,0.609756
1548457144072,-1.032715,0.004272,-0.146301,0.060976,-2.317073,-5.182927
1548457144079,-1.037720,-0.014221,-0.157227,-1.951220,-2.560976,1.219512
1548457144094,-1.028381,-0.025391,-0.164124,-1.585366,-1.768293,2.378049
1548457144102,-1.023132,-0.036743,-0.163635,-1.219512,-1.524390,0.731707
1548457144109,-1.029175,-0.046021,-0.150940,-0.365854,-1.341463,0.243902
1548457144124,-1.034668,-0.051819,-0.152649,-0.182927,-1.402439,0.243902
1548457144132,-1.036072,-0.050415,-0.160156,-0.426829,-0.243902,0.792683
1548457144139,-1.033630,-0.042786,-0.161194,-0.487805,0.182927,1.280488
1548457144154,-1.031250,-0.041199,-0.155457,-0.670732,-0.182927,1.280488
1548457144162,-1.029419,-0.040588,-0.155518,-0.670732,-0.426829,1.402439
1548457144169,-1.024902,-0.041138,-0.155518,-0.365854,-0.182927,1.280488
1548457144184,-1.020081,-0.041565,-0.154236,-0.487805,-0.060976,1.158537
1548457144192,-1.022583,-0.044250,-0.156494,-0.487805,-0.304878,1.036585
1548457144199,-1.021484,-0.046570,-0.157532,-0.487805,-0.670732,1.219512
1548457144214,-1.023865,-0.042725,-0.153442,-0.609756,-1.036585,1.341463
1548457144222,-1.027100,-0.038818,-0.152527,-0.670732,-1.280488,1.402439
1548457144229,-1.027771,-0.037537,-0.155029,-0.670732,-1.280488,1.402439
1548457144244,-1.027344,-0.035400,-0.154175,-0.670732,-1.280488,1.463415
1548457144252,-1.027649,-0.032837,-0.149963,-0.426829,-1.219512,1.524390
1548457144259,-1.031189,-0.033325,-0.152954,-0.060976,-1.219512,1.707317
1548457144274,-1.029663,-0.037842,-0.155518,0.182927,-1.158537,1.951220
1548457144282,-1.028809,-0.038147,-0.159180,0.304878,-1.036585,2.317073
1548457144290,-1.030579,-0.039124,-0.159790,0.182927,-0.792683,2.500000
1548457144304,-1.034241,-0.037354,-0.160828,0.000000,-0.853659,2.560976
1548457144312,-1.033020,-0.036682,-0.155884,-0.365854,-0.975610,2.743902
1548457144319,-1.029297,-0.033875,-0.154602,-0.792683,-0.853659,3.170732
1548457144334,-1.028870,-0.028687,-0.157166,-1.158537,-0.731707,3.719512
1548457144342,-1.028687,-0.027344,-0.154236,-1.158537,-0.792683,4.207317
1548457144349,-1.028870,-0.028992,-0.155090,-1.097561,-0.975610,4.512195
1548457144364,-1.032227,-0.027588,-0.154114,-1.036585,-0.975610,4.817073
1548457144372,-1.032715,-0.027039,-0.155762,-0.853659,-0.609756,5.487805
1548457144379,-1.029358,-0.026672,-0.156128,-0.853659,-0.243902,5.975610
1548457144394,-1.028259,-0.023621,-0.155090,-0.975610,0.000000,6.341464
1548457144402,-1.030212,-0.024963,-0.159058,-1.219512,-0.060976,6.768293
1548457144409,-1.030396,-0.023315,-0.153320,-1.463415,-0.487805,7.317073
1548457144424,-1.027588,-0.019775,-0.151245,-1.341463,-0.487805,7.743903
1548457144432,-1.026489,-0.021545,-0.152283,-1.524390,-0.304878,8.170732
1548457144439,-1.023560,-0.019470,-0.154419,-1.707317,-0.304878,8.658537
1548457144454,-1.023682,-0.016357,-0.153564,-1.280488,-0.487805,8.963415
1548457144462,-1.026245,-0.014709,-0.152954,-1.097561,-0.670732,9.207317
1548457144469,-1.028687,-0.015808,-0.150940,-1.097561,-0.914634,9.451220
1548457144485,-1.028015,-0.017517,-0.153198,-1.097561,-0.914634,9.695122
1548457144492,-1.026062,-0.012878,-0.156128,-1.158537,-0.670732,10.243902
1548457144499,-1.027832,-0.010559,-0.155762,-0.975610,-0.426829,10.609756
1548457144514,-1.030762,-0.014771,-0.153687,-0.975610,-0.426829,10.914635
1548457144522,-1.031799,-0.014282,-0.151794,-1.097561,-0.487805,10.975610
1548457144529,-1.032288,-0.014954,-0.149475,-1.219512,-0.670732,10.792684
1548457144544,-1.029663,-0.011536,-0.152039,-2.012195,-0.914634,10.548780
1548457144552,-1.027954,-0.006287,-0.152649,-2.865854,-1.097561,10.243902
1548457144560,-1.026123,-0.000488,-0.150085,-3.414634,-1.158537,10.121951
1548457144574,-1.030518,0.004150,-0.150269,-3.597561,-1.402439,10.000000
1548457144582,-1.028564,0.004639,-0.157166,-3.414634,-1.524390,10.121951
1548457144589,-1.028137,0.005493,-0.156433,-3.292683,-1.402439,10.182927
1548457144604,-1.026001,0.004944,-0.154541,-3.536585,-1.402439,10.060976
1548457144612,-1.025085,0.005920,-0.151733,-3.475610,-1.585366,10.000000
1548457144619,-1.023804,0.006042,-0.154297,-3.292683,-1.707317,9.939025
1548457144634,-1.022766,0.007812,-0.151062,-2.804878,-1.402439,10.060976
1548457144642,-1.022095,0.013123,-0.153809,-2.195122,-0.853659,10.548780
1548457144649,-1.023193,0.017090,-0.155090,-1.524390,-0.243902,11.158537
1548457144664,-1.024353,0.015930,-0.158569,-1.097561,-0.060976,11.341464
1548457144679,-1.028625,0.015320,-0.159912,-0.975610,0.000000,11.280488
1548457144680,-1.033020,0.016174,-0.158142,-1.158537,0.060976,11.158537
1548457144694,-1.029602,0.019409,-0.160828,-1.341463,0.243902,11.280488
1548457144702,-1.029480,0.021545,-0.162903,-1.219512,0.304878,11.463415
1548457144709,-1.031372,0.027283,-0.158875,-1.036585,0.243902,11.829268
1548457144724,-1.036194,0.031067,-0.160400,-0.487805,0.060976,12.317074
1548457144732,-1.034668,0.035828,-0.162720,-0.060976,0.000000,12.682927
1548457144739,-1.032898,0.039368,-0.162415,0.121951,0.121951,13.048780
1548457144754,-1.032227,0.041016,-0.162170,0.365854,0.304878,13.475610
1548457144762,-1.031006,0.043213,-0.161926,0.487805,0.304878,14.146341
1548457144769,-1.029663,0.044373,-0.160400,0.243902,0.548781,14.817074
1548457144784,-1.030579,0.047119,-0.157715,0.000000,0.731707,15.304878
1548457144792,-1.031006,0.047363,-0.159790,-0.182927,0.853659,15.853659
1548457144799,-1.028748,0.048157,-0.159302,-0.487805,1.036585,16.463415
1548457144814,-1.029358,0.056763,-0.157715,-1.097561,1.097561,17.317074
1548457144822,-1.028931,0.059265,-0.158691,-1.951220,1.219512,18.292683
1548457144829,-1.026672,0.062805,-0.163269,-2.804878,1.402439,19.085367
1548457144844,-1.026428,0.068787,-0.166931,-3.719512,1.585366,19.939024
1548457144852,-1.025757,0.070862,-0.162842,-4.451220,1.341463,20.731709
1548457144860,-1.024536,0.075439,-0.162292,-4.878049,1.158537,21.402439
1548457144874,-1.026917,0.086121,-0.160889,-4.939024,1.219512,22.134148
1548457144882,-1.029053,0.091553,-0.162842,-4.695122,1.097561,22.987806
1548457144889,-1.028259,0.095459,-0.159180,-4.573171,0.914634,24.146341
1548457144904,-1.030640,0.102234,-0.160156,-4.329268,1.280488,25.121952
1548457144912,-1.034302,0.109131,-0.161133,-4.085366,1.524390,25.975611
1548457144919,-1.034729,0.116028,-0.162537,-3.780488,1.768293,26.890245
1548457144934,-1.032593,0.117615,-0.164246,-3.658537,2.073171,27.682928
1548457144942,-1.024719,0.121582,-0.167297,-3.475610,2.073171,28.414635
1548457144949,-1.028137,0.124329,-0.165466,-3.109756,1.646341,29.024391
1548457144964,-1.034241,0.118591,-0.161682,-2.621951,1.341463,29.817074
1548457144972,-1.031799,0.119141,-0.158447,-2.256098,1.280488,30.609756
1548457144980,-1.022278,0.126221,-0.157837,-2.500000,1.829268,31.646341
1548457144994,-1.014893,0.134705,-0.160278,-3.170732,2.439024,32.134148
1548457145002,-1.016113,0.140564,-0.161743,-4.146341,2.256098,32.317074
