timestamp, accel_x, accel_y, accel_z, gyro_x, gyro_y, gyro_z
1548455287029,-0.313843,-0.470337,0.887207,67.682930,-7.987805,10.060976
1548455287037,-0.320251,-0.441040,0.893677,35.914635,-7.500000,8.658537
1548455287044,-0.317688,-0.423828,0.883240,23.414635,-6.219512,7.621952
1548455287051,-0.311829,-0.431091,0.883240,22.743902,-4.390244,6.341464
1548455287066,-0.309937,-0.448425,0.899780,29.634148,-3.475610,6.158537
1548455287074,-0.314453,-0.439026,0.907837,39.451221,-3.292683,7.560976
1548455287082,-0.314758,-0.399902,0.911987,44.817074,-2.256098,8.048780
1548455287096,-0.310852,-0.384644,0.912231,47.804878,-2.073171,6.341464
1548455287111,-0.305481,-0.402405,0.899292,51.890244,-1.463415,4.207317
1548455287112,-0.306946,-0.405396,0.896362,45.914635,0.182927,3.231707
1548455287126,-0.311340,-0.399719,0.894348,34.146343,-0.792683,1.585366
1548455287134,-0.313782,-0.376953,0.899048,22.743902,-1.219512,-0.304878
1548455287142,-0.314514,-0.372986,0.899170,16.768293,-1.585366,-1.341463
1548455287156,-0.310669,-0.390015,0.892456,17.195122,-1.768293,-2.195122
1548455287164,-0.312683,-0.391357,0.889221,17.804878,-1.280488,-3.109756
1548455287172,-0.310791,-0.380737,0.897461,16.097561,-2.073171,-3.292683
1548455287187,-0.305725,-0.376099,0.903870,13.841464,-2.621951,-3.658537
1548455287194,-0.306396,-0.381897,0.907349,12.500000,-2.682927,-4.451220
1548455287202,-0.309937,-0.396973,0.903625,12.439025,-2.500000,-5.000000
1548455287216,-0.307556,-0.400879,0.898376,12.682927,-2.073171,-4.634146
1548455287224,-0.304688,-0.404175,0.899048,12.317074,-1.890244,-4.146341
1548455287232,-0.305298,-0.407471,0.904236,10.426829,-2.012195,-3.963415
1548455287247,-0.305969,-0.404663,0.903564,7.804878,-2.378049,-3.597561
1548455287254,-0.300964,-0.399231,0.901123,5.182927,-2.317073,-3.292683
1548455287261,-0.301636,-0.398865,0.907959,2.439024,-2.256098,-3.048780
1548455287277,-0.301819,-0.396118,0.910767,0.243902,-2.865854,-2.865854
1548455287284,-0.297424,-0.384399,0.907654,-0.243902,-2.621951,-2.439024
1548455287292,-0.302490,-0.393250,0.905823,1.158537,-2.256098,-1.951220
1548455287307,-0.309265,-0.401123,0.904785,3.109756,-1.768293,-1.768293
1548455287314,-0.309021,-0.403931,0.907593,4.024390,-1.524390,-1.585366
1548455287322,-0.303162,-0.407837,0.912720,3.475610,-1.585366,-1.158537
1548455287344,-0.301514,-0.409851,0.915710,2.378049,-1.585366,-0.792683
1548455287344,-0.302551,-0.409729,0.917175,1.158537,-1.646341,-0.731707
1548455287359,-0.300354,-0.408691,0.926147,-0.426829,-1.585366,-0.792683
1548455287374,-0.303101,-0.409912,0.926270,-1.768293,-1.585366,-0.670732
1548455287375,-0.303955,-0.406128,0.920227,-2.439024,-1.341463,-0.548781
1548455287382,-0.301331,-0.404785,0.918701,-2.926829,-0.609756,-0.670732
1548455287404,-0.303467,-0.401367,0.919128,-2.256098,-0.670732,-0.487805
1548455287405,-0.302917,-0.403076,0.910522,0.000000,-0.243902,0.121951
1548455287411,-0.305054,-0.395752,0.906189,2.012195,0.487805,0.243902
1548455287426,-0.306641,-0.395142,0.910461,2.134146,0.121951,0.000000
1548455287434,-0.302856,-0.395813,0.916626,1.036585,-0.243902,-0.060976
1548455287441,-0.297607,-0.390259,0.919373,-0.182927,-0.243902,-0.121951
1548455287471,-0.297913,-0.384094,0.917969,-1.463415,0.121951,-0.243902
1548455287472,-0.298828,-0.384338,0.917114,-2.621951,0.304878,-0.548781
1548455287479,-0.296387,-0.382507,0.917297,-2.987805,0.609756,-0.731707
1548455287486,-0.294861,-0.377441,0.918335,-2.439024,0.853659,-0.670732
1548455287501,-0.295593,-0.379883,0.921631,-1.219512,0.975610,-0.731707
1548455287502,-0.297974,-0.377686,0.921143,-0.243902,1.280488,-0.792683
1548455287524,-0.299622,-0.373840,0.924194,-0.121951,1.402439,-0.853659
1548455287525,-0.300537,-0.378357,0.927979,-0.426829,1.463415,-0.853659
1548455287532,-0.300781,-0.384277,0.933228,-0.182927,1.402439,-0.853659
1548455287547,-0.301453,-0.382446,0.932007,0.182927,1.585366,-0.670732
1548455287554,-0.303589,-0.383911,0.933838,0.365854,1.890244,-0.548781
1548455287562,-0.306091,-0.393372,0.934082,0.060976,1.890244,-0.487805
1548455287577,-0.308716,-0.391418,0.930115,-0.121951,2.134146,-0.365854
1548455287584,-0.311768,-0.392761,0.927917,-0.487805,2.378049,-0.121951
1548455287592,-0.314392,-0.397827,0.921692,-0.121951,2.682927,0.060976
1548455287606,-0.315247,-0.396851,0.917847,0.365854,3.048780,0.060976
1548455287621,-0.316162,-0.395752,0.913086,-0.060976,3.231707,0.000000
1548455287622,-0.313904,-0.395630,0.909180,-1.097561,3.231707,-0.121951
1548455287636,-0.314880,-0.397827,0.909607,-2.012195,3.353659,-0.548781
1548455287644,-0.317261,-0.402588,0.907532,-2.804878,3.231707,-0.731707
1548455287651,-0.317261,-0.403931,0.906616,-3.902439,3.048780,-0.853659
1548455287666,-0.312622,-0.401306,0.901611,-4.878049,3.231707,-0.853659
1548455287674,-0.309998,-0.401611,0.894043,-5.670732,3.353659,-0.792683
1548455287681,-0.310608,-0.395386,0.890198,-6.402439,3.231707,-0.731707
1548455287696,-0.312683,-0.390015,0.885864,-7.134147,2.987805,-0.609756
1548455287705,-0.313354,-0.394287,0.882935,-7.621952,2.743902,-0.670732
1548455287711,-0.312134,-0.396729,0.878845,-7.560976,2.439024,-1.036585
1548455287726,-0.312073,-0.400024,0.880676,-6.646342,2.073171,-1.158537
1548455287741,-0.310852,-0.409241,0.883423,-5.121951,1.707317,-1.158537
1548455287742,-0.310181,-0.410339,0.885132,-3.841464,1.219512,-0.975610
1548455287756,-0.307129,-0.409851,0.889038,-3.231707,0.670732,-0.731707
1548455287764,-0.303955,-0.413635,0.888123,-3.170732,0.365854,-0.670732
1548455287771,-0.304321,-0.412048,0.883972,-3.719512,-0.060976,-0.670732
1548455287786,-0.306396,-0.418213,0.885925,-4.207317,-0.365854,-0.670732
1548455287794,-0.309937,-0.423340,0.889893,-4.268293,-1.036585,-0.670732
1548455287802,-0.313782,-0.424072,0.892395,-3.597561,-1.280488,-0.304878
1548455287816,-0.309998,-0.427368,0.897888,-2.621951,-1.463415,0.121951
1548455287831,-0.305298,-0.423401,0.897522,-1.646341,-1.829268,0.731707
1548455287832,-0.302917,-0.418640,0.900574,-1.585366,-1.890244,1.280488
1548455287846,-0.303894,-0.419739,0.904358,-2.073171,-2.134146,1.646341
1548455287854,-0.304321,-0.422302,0.903748,-2.439024,-2.073171,1.951220
1548455287861,-0.309753,-0.415771,0.900574,-2.743902,-1.646341,2.500000
1548455287876,-0.316345,-0.408752,0.902710,-3.109756,-1.585366,2.682927
1548455287884,-0.319397,-0.406677,0.902283,-3.658537,-1.707317,2.743902
1548455287892,-0.319336,-0.403687,0.902039,-3.719512,-1.463415,2.926829
1548455287906,-0.317261,-0.401794,0.905640,-3.475610,-1.158537,2.865854
1548455287914,-0.315369,-0.400024,0.910706,-3.353659,-1.036585,2.682927
1548455287921,-0.315674,-0.398193,0.910645,-2.865854,-0.792683,2.439024
1548455287936,-0.314270,-0.395935,0.906738,-2.073171,-0.609756,2.317073
1548455287944,-0.315369,-0.395264,0.902710,-1.646341,-0.182927,2.073171
1548455287951,-0.316406,-0.392883,0.903564,-1.951220,0.000000,1.585366
1548455287966,-0.316162,-0.393311,0.899902,-2.439024,0.060976,1.158537
1548455287974,-0.319397,-0.398499,0.901001,-2.256098,0.365854,0.670732
1548455287981,-0.321716,-0.399353,0.902710,-2.317073,0.487805,0.121951
1548455287996,-0.320007,-0.393494,0.898193,-2.560976,0.487805,-0.243902
1548455288004,-0.319702,-0.395874,0.896667,-1.951220,0.609756,-0.731707
1548455288011,-0.320068,-0.406494,0.900024,-0.731707,0.670732,-1.158537
1548455288026,-0.317444,-0.410583,0.899414,0.243902,0.548781,-1.341463
1548455288034,-0.314331,-0.405579,0.894775,0.426829,0.548781,-1.341463
1548455288042,-0.313904,-0.405701,0.896118,0.304878,0.609756,-1.402439
1548455288057,-0.315491,-0.415161,0.899414,0.243902,0.304878,-1.646341
1548455288064,-0.314514,-0.417297,0.893921,0.304878,0.121951,-1.707317
1548455288072,-0.317322,-0.417847,0.893311,0.121951,0.365854,-1.646341
1548455288086,-0.318176,-0.420044,0.895325,-0.304878,0.121951,-1.768293
1548455288094,-0.316467,-0.422363,0.893738,-0.487805,-0.060976,-1.646341
1548455288102,-0.313782,-0.424377,0.895813,-0.670732,0.182927,-1.463415
1548455288116,-0.314941,-0.426941,0.894775,-0.792683,-0.060976,-1.280488
1548455288124,-0.317200,-0.427917,0.890564,-0.609756,-0.182927,-0.975610
1548455288132,-0.315002,-0.425415,0.888550,-0.365854,0.060976,-0.609756
1548455288147,-0.312683,-0.424622,0.888916,-0.304878,-0.121951,-0.365854
1548455288154,-0.308899,-0.428345,0.889404,-0.487805,-0.182927,-0.243902
1548455288162,-0.310486,-0.428955,0.892090,-1.158537,-0.365854,0.000000
1548455288177,-0.312256,-0.425293,0.892334,-2.012195,-0.548781,0.243902
1548455288184,-0.312988,-0.424194,0.888611,-2.987805,-0.426829,0.548781
1548455288192,-0.318542,-0.423279,0.890259,-3.475610,-0.609756,0.670732
1548455288207,-0.318848,-0.421021,0.890747,-3.414634,-0.914634,0.670732
1548455288214,-0.319153,-0.420654,0.892639,-2.500000,-0.975610,0.975610
1548455288222,-0.317322,-0.424988,0.898987,-0.914634,-1.097561,1.158537
1548455288244,-0.315796,-0.429749,0.903137,0.731707,-1.097561,1.280488
1548455288245,-0.312927,-0.427612,0.903503,1.524390,-0.914634,1.341463
1548455288251,-0.313721,-0.423279,0.901917,1.341463,-0.853659,1.402439
1548455288267,-0.317383,-0.423218,0.902100,0.182927,-0.792683,1.341463
1548455288274,-0.324219,-0.423828,0.902100,-1.158537,-0.670732,1.036585
1548455288281,-0.325317,-0.424255,0.905823,-2.073171,-0.670732,0.914634
1548455288296,-0.324646,-0.426636,0.908264,-2.378049,-0.365854,0.853659
1548455288304,-0.325745,-0.429321,0.914917,-2.012195,0.060976,0.853659
1548455288312,-0.324158,-0.427795,0.912903,-1.341463,0.365854,1.097561
1548455288334,-0.316467,-0.425293,0.904541,-0.975610,1.158537,1.402439
1548455288335,-0.318054,-0.427551,0.904114,-1.158537,1.768293,1.463415
1548455288341,-0.318054,-0.427307,0.912109,-1.768293,1.463415,1.463415
1548455288356,-0.319641,-0.428528,0.908081,-2.560976,1.341463,1.646341
1548455288364,-0.319397,-0.428528,0.905457,-2.987805,1.951220,2.012195
1548455288372,-0.323242,-0.431458,0.906616,-2.804878,2.500000,2.012195
1548455288386,-0.323730,-0.430237,0.901367,-2.804878,2.682927,2.073171
1548455288394,-0.323547,-0.426636,0.898193,-2.682927,3.292683,2.560976
1548455288402,-0.325134,-0.423767,0.897644,-2.439024,3.353659,2.804878
1548455288416,-0.323853,-0.424133,0.895264,-2.195122,3.658537,3.109756
1548455288424,-0.321472,-0.425476,0.893982,-2.195122,4.146341,3.414634
1548455288432,-0.324402,-0.421021,0.892029,-2.317073,4.207317,3.719512
1548455288454,-0.323303,-0.422241,0.889648,-2.439024,4.146341,4.024390
1548455288454,-0.325256,-0.422913,0.880981,-2.012195,4.512195,4.329268
1548455288462,-0.329895,-0.423157,0.884277,-2.317073,4.939024,4.451220
1548455288477,-0.334045,-0.412415,0.886902,-2.682927,4.207317,4.329268
1548455288484,-0.334961,-0.391724,0.897400,-2.134146,4.085366,4.329268
1548455288491,-0.331238,-0.431763,0.896667,2.500000,2.987805,3.292683
1548455288507,-0.330139,-0.441711,0.871704,8.109756,4.207317,3.963415
1548455288514,-0.344604,-0.412537,0.883301,3.841464,5.731708,4.695122
1548455288522,-0.335999,-0.410767,0.892944,-1.097561,2.987805,3.414634
1548455288537,-0.329590,-0.415039,0.885925,-0.914634,3.536585,2.987805
1548455288544,-0.337158,-0.425415,0.885620,1.585366,4.512195,3.109756
1548455288552,-0.341675,-0.430176,0.895264,1.158537,4.085366,2.256098
1548455288567,-0.336609,-0.426453,0.895142,-0.121951,3.719512,1.951220
1548455288574,-0.337280,-0.417236,0.890625,-0.121951,4.573171,2.378049
1548455288581,-0.346741,-0.423279,0.893372,1.280488,4.817073,2.378049
1548455288597,-0.350098,-0.434387,0.894897,3.597561,4.573171,2.317073
1548455288604,-0.347961,-0.436035,0.896484,4.817073,5.000000,2.865854
1548455288611,-0.350220,-0.435486,0.902771,4.024390,5.426829,3.414634
1548455288627,-0.346863,-0.439392,0.902588,3.475610,5.365854,3.658537
1548455288634,-0.347107,-0.442810,0.909485,3.902439,6.097561,4.329268
1548455288642,-0.348877,-0.445312,0.916687,4.634146,6.585366,5.060976
1548455288656,-0.349915,-0.442688,0.916870,5.609756,7.012195,6.036585
1548455288664,-0.355896,-0.443542,0.915955,7.256098,8.048780,7.256098
1548455288672,-0.360291,-0.447388,0.915283,8.902439,8.902439,8.353659
1548455288687,-0.362671,-0.442139,0.919250,9.573171,9.634147,9.329268
1548455288694,-0.363892,-0.439941,0.933899,8.902439,10.365854,10.304878
1548455288703,-0.362061,-0.435791,0.931580,8.414635,11.097561,11.158537
1548455288717,-0.364258,-0.428894,0.923279,8.353659,12.682927,12.012196
1548455288724,-0.371582,-0.427917,0.918579,8.109756,14.085366,12.500000
1548455288732,-0.375366,-0.422729,0.915771,7.987805,14.573171,12.987805
1548455288747,-0.380920,-0.415955,0.918823,7.987805,15.670732,13.780488
1548455288754,-0.384216,-0.410706,0.921814,7.804878,16.524391,14.268293
1548455288762,-0.384644,-0.401611,0.913879,7.743903,17.439024,14.634147
1548455288776,-0.387634,-0.398560,0.909485,7.743903,19.024391,15.060976
1548455288784,-0.389709,-0.393555,0.903381,7.743903,19.817074,15.243903
1548455288792,-0.392761,-0.392090,0.904785,7.500000,20.548780,15.304878
1548455288807,-0.397644,-0.393921,0.912537,7.134147,21.158537,15.243903
1548455288821,-0.403381,-0.387207,0.907166,6.707317,21.585367,15.426829
1548455288822,-0.408203,-0.380493,0.896606,6.524390,22.743902,15.609756
1548455288837,-0.418335,-0.382568,0.891357,6.463415,23.719513,15.365854
1548455288851,-0.425415,-0.381836,0.883789,6.097561,24.024391,15.182927
1548455288852,-0.428345,-0.373535,0.879211,4.939024,24.817074,14.878049
1548455288866,-0.432068,-0.373413,0.878967,3.475610,25.304878,14.451220
1548455288881,-0.433838,-0.374512,0.883179,2.378049,25.426830,14.085366
1548455288882,-0.436707,-0.372192,0.886841,2.439024,25.914635,13.963415
1548455288897,-0.435547,-0.365845,0.885132,3.353659,26.402439,13.902439
1548455288911,-0.441284,-0.367920,0.886658,4.451220,27.073172,13.780488
1548455288912,-0.450378,-0.366211,0.880737,5.914634,27.378050,13.658537
1548455288927,-0.453796,-0.364929,0.872375,7.134147,28.109756,13.780488
1548455288941,-0.462952,-0.367554,0.885010,7.195122,29.024391,13.597561
1548455288942,-0.472778,-0.364868,0.895508,6.768293,28.963415,13.353659
1548455288957,-0.475647,-0.358398,0.889404,7.012195,29.512196,13.841464
1548455288964,-0.481384,-0.360718,0.906372,7.987805,31.402439,14.268293
1548455288972,-0.487488,-0.366760,0.930176,9.573171,32.073170,14.085366
1548455288987,-0.485535,-0.358459,0.935364,11.890244,33.292683,14.756098
1548455288994,-0.494690,-0.356873,0.925110,14.268293,36.280487,15.548780
1548455289009,-0.506042,-0.355774,0.918457,15.609756,38.475609,15.792684
1548455289017,-0.518555,-0.354370,0.908447,15.731708,40.182926,15.853659
1548455289024,-0.524475,-0.349731,0.907471,15.121951,42.195122,16.402439
1548455289039,-0.534241,-0.350525,0.910034,13.902439,44.024391,16.646341
1548455289047,-0.532898,-0.341492,0.898682,12.378049,45.365856,16.890244
1548455289054,-0.537964,-0.334717,0.886292,11.951220,48.414635,16.951220
1548455289062,-0.546204,-0.332458,0.882202,11.890244,50.060978,17.012196
1548455289077,-0.545654,-0.325623,0.861511,11.646341,51.463417,16.951220
1548455289084,-0.549927,-0.319763,0.830261,10.670732,53.475613,16.646341
1548455289092,-0.559021,-0.318787,0.836914,8.475610,54.512196,16.097561
1548455289106,-0.573914,-0.314453,0.842712,6.585366,54.024391,15.548780
1548455289114,-0.571228,-0.302979,0.808655,6.463415,54.024391,15.914635
1548455289121,-0.571411,-0.297180,0.769958,7.378049,56.707317,15.792684
1548455289137,-0.585571,-0.298218,0.752014,7.682927,57.134148,14.939025
1548455289144,-0.591919,-0.294922,0.740051,7.256098,55.670734,14.390244
1548455289152,-0.600281,-0.294128,0.751892,6.463415,55.121952,14.085366
1548455289167,-0.614075,-0.292297,0.770081,6.158537,53.048782,13.658537
1548455289174,-0.618591,-0.283813,0.755249,7.560976,51.768295,13.658537
1548455289182,-0.621216,-0.277710,0.737671,10.670732,53.170734,13.658537
1548455289197,-0.635193,-0.283264,0.713989,14.024390,52.926830,13.170732
1548455289204,-0.638428,-0.282227,0.706055,16.036585,51.829269,12.865854
1548455289212,-0.653503,-0.289368,0.716858,16.280489,51.402439,12.560976
1548455289226,-0.659241,-0.279297,0.697571,15.243903,49.024391,12.621951
1548455289234,-0.657349,-0.269653,0.680115,14.085366,49.390244,12.560976
1548455289242,-0.671753,-0.279236,0.703064,11.951220,49.207317,11.707317
1548455289257,-0.686584,-0.284058,0.725891,10.121951,45.975613,11.036586
1548455289264,-0.686951,-0.268677,0.720520,10.243902,45.182926,11.524390
1548455289272,-0.693115,-0.260925,0.702515,12.439025,46.585365,12.134147
1548455289286,-0.700684,-0.263367,0.686890,15.182927,46.707317,11.951220
1548455289294,-0.712402,-0.268433,0.683350,17.012196,46.646343,11.768293
1548455289301,-0.723145,-0.272522,0.682373,16.890244,45.609756,12.012196
1548455289317,-0.724792,-0.266113,0.693237,15.365854,45.000000,12.195122
1548455289324,-0.737244,-0.264587,0.726074,13.292684,45.000000,12.012196
1548455289332,-0.746277,-0.258728,0.757019,12.804878,43.902439,12.256098
1548455289346,-0.750610,-0.251282,0.749390,15.914635,45.365856,13.048780
1548455289354,-0.751770,-0.245544,0.722961,21.097561,48.292683,14.024390
1548455289362,-0.759644,-0.243469,0.693481,24.939026,51.158539,14.329268
1548455289377,-0.761902,-0.241028,0.671509,25.182928,52.256100,14.329268
1548455289384,-0.768005,-0.240906,0.672913,22.500000,52.987804,14.207317
1548455289391,-0.774536,-0.234375,0.668579,18.414635,52.621952,13.963415
1548455289407,-0.782898,-0.228760,0.657715,14.573171,53.292683,13.475610
1548455289414,-0.786316,-0.218018,0.639648,11.219512,54.390244,13.048780
1548455289422,-0.786682,-0.207397,0.622742,8.658537,55.365856,12.500000
1548455289437,-0.790833,-0.201355,0.599243,7.378049,55.426830,11.951220
1548455289444,-0.789978,-0.192444,0.577454,7.073171,55.365856,11.402439
1548455289452,-0.799438,-0.189575,0.567932,6.158537,55.060978,10.548780
1548455289467,-0.808411,-0.182129,0.565063,4.573171,53.170734,9.695122
1548455289474,-0.810669,-0.172241,0.549194,3.841464,52.317074,8.902439
1548455289482,-0.811646,-0.176392,0.541626,4.085366,51.646343,8.170732
1548455289497,-0.818848,-0.183228,0.544983,5.853659,50.914635,7.256098
1548455289504,-0.826660,-0.175598,0.533142,8.475610,48.963417,7.012195
1548455289512,-0.826172,-0.165771,0.503174,12.134147,48.536587,7.317073
1548455289527,-0.832336,-0.162903,0.469360,15.426829,48.475613,7.073171
1548455289534,-0.833618,-0.167664,0.456665,16.768293,46.951221,6.219512
1548455289542,-0.849854,-0.176819,0.463257,15.548780,44.756100,5.060976
1548455289557,-0.855591,-0.173340,0.455688,11.768293,41.524391,4.085366
1548455289564,-0.857300,-0.166321,0.457153,7.378049,40.487804,3.170732
1548455289572,-0.860474,-0.166443,0.457886,3.963415,38.597561,1.951220
1548455289587,-0.860352,-0.165466,0.455750,3.231707,36.402439,1.097561
1548455289594,-0.867249,-0.166809,0.455261,5.792683,35.365856,0.975610
1548455289602,-0.871948,-0.168457,0.434937,10.365854,33.292683,1.158537
1548455289617,-0.866638,-0.170044,0.398743,15.487805,32.621952,1.341463
1548455289624,-0.866150,-0.182373,0.377380,17.621952,31.829269,0.975610
1548455289632,-0.873474,-0.195801,0.370728,15.548780,28.597561,-0.060976
1548455289647,-0.877014,-0.195007,0.364014,10.243902,24.939026,-0.792683
1548455289654,-0.882446,-0.191223,0.359009,3.597561,21.890244,-1.585366
1548455289661,-0.886414,-0.188354,0.357788,-2.682927,18.414635,-2.682927
1548455289677,-0.885803,-0.187134,0.358337,-7.317073,15.243903,-3.719512
1548455289684,-0.885315,-0.189758,0.363953,-10.121951,12.256098,-4.451220
1548455289692,-0.885071,-0.197754,0.375549,-10.304878,9.146341,-4.573171
1548455289706,-0.888977,-0.199524,0.396851,-8.109756,6.158537,-4.329268
1548455289714,-0.891724,-0.198059,0.406311,-4.085366,3.109756,-3.536585
1548455289722,-0.887817,-0.198975,0.407410,0.609756,1.219512,-2.926829
1548455289737,-0.887878,-0.202209,0.406433,5.060976,-0.304878,-2.317073
1548455289744,-0.889832,-0.207092,0.417664,7.682927,-2.195122,-2.012195
1548455289751,-0.898499,-0.211487,0.435120,7.560976,-4.024390,-2.073171
1548455289767,-0.899841,-0.209106,0.436401,5.609756,-6.158537,-2.012195
1548455289774,-0.896667,-0.203552,0.436646,3.048780,-6.280488,-1.646341
1548455289782,-0.899292,-0.198669,0.446045,0.000000,-6.951220,-1.768293
1548455289804,-0.900574,-0.199646,0.462646,-2.256098,-8.292683,-1.951220
1548455289805,-0.902893,-0.200989,0.476318,-3.170732,-9.085366,-1.768293
1548455289811,-0.904297,-0.200684,0.499451,-2.439024,-9.512196,-1.463415
1548455289827,-0.914795,-0.199951,0.524597,-1.219512,-9.512196,-1.036585
1548455289834,-0.914917,-0.189026,0.525757,0.609756,-9.390244,-0.487805
1548455289841,-0.905884,-0.190125,0.514832,3.414634,-7.256098,0.243902
1548455289857,-0.901001,-0.199463,0.502930,5.609756,-5.548780,0.365854
1548455289864,-0.897583,-0.202332,0.482178,5.487805,-5.000000,0.000000
1548455289871,-0.895569,-0.202637,0.479614,2.317073,-4.329268,-0.304878
1548455289894,-0.904785,-0.203979,0.495667,-2.500000,-4.939024,-1.280488
1548455289895,-0.910767,-0.197571,0.509216,-6.280488,-5.975610,-2.012195
1548455289901,-0.907288,-0.193909,0.507690,-7.134147,-5.060976,-2.134146
1548455289917,-0.900330,-0.194214,0.502991,-5.304878,-4.085366,-1.829268
1548455289924,-0.895996,-0.196899,0.493958,-2.134146,-3.292683,-1.524390
1548455289932,-0.893738,-0.200439,0.482483,0.670732,-2.926829,-1.097561
1548455289946,-0.892029,-0.203918,0.472595,2.012195,-2.987805,-0.792683
1548455289954,-0.893799,-0.205750,0.474731,1.219512,-3.231707,-0.731707
1548455289962,-0.897156,-0.205627,0.483643,-1.036585,-4.024390,-0.853659
1548455289976,-0.897400,-0.202942,0.495605,-3.048780,-4.512195,-0.792683
1548455289984,-0.895630,-0.200928,0.499634,-3.536585,-4.634146,-0.731707
1548455289992,-0.894714,-0.197571,0.497986,-2.195122,-4.451220,-0.365854
1548455290007,-0.896118,-0.199890,0.495850,0.000000,-3.841464,-0.121951
1548455290014,-0.892334,-0.201965,0.488220,1.890244,-3.780488,0.121951
1548455290021,-0.893799,-0.205688,0.484741,2.317073,-3.536585,0.182927
1548455290037,-0.895569,-0.201660,0.488586,1.219512,-3.719512,0.121951
1548455290044,-0.896667,-0.200012,0.494629,-0.914634,-4.085366,-0.121951
1548455290052,-0.897827,-0.198730,0.499268,-2.865854,-4.451220,-0.365854
1548455290067,-0.897278,-0.192383,0.497437,-3.658537,-4.390244,-0.487805
1548455290074,-0.892151,-0.193176,0.495422,-2.804878,-3.780488,-0.304878
1548455290082,-0.892395,-0.197510,0.490906,-1.158537,-3.658537,-0.304878
1548455290097,-0.894226,-0.195374,0.488281,-0.060976,-3.902439,-0.304878
1548455290104,-0.893066,-0.196655,0.486450,0.182927,-4.085366,-0.365854
1548455290112,-0.890869,-0.197449,0.485657,-0.670732,-4.451220,-0.731707
1548455290127,-0.891724,-0.198425,0.485718,-1.890244,-4.695122,-1.158537
1548455290134,-0.891724,-0.200562,0.493713,-2.804878,-5.121951,-1.524390
1548455290142,-0.891174,-0.197388,0.500061,-2.439024,-5.731708,-1.707317
1548455290156,-0.890198,-0.196106,0.491943,-0.731707,-5.731708,-1.402439
1548455290164,-0.885986,-0.200623,0.488098,0.914634,-5.365854,-1.524390
1548455290171,-0.885498,-0.203552,0.483337,1.341463,-5.548780,-1.829268
1548455290186,-0.885254,-0.206299,0.484619,0.426829,-6.097561,-2.134146
1548455290202,-0.890137,-0.208008,0.490417,-1.097561,-6.768293,-2.256098
1548455290203,-0.892700,-0.206360,0.503845,-2.500000,-7.621952,-2.378049
1548455290217,-0.896790,-0.203125,0.521118,-2.865854,-7.987805,-2.500000
1548455290224,-0.889282,-0.199036,0.516846,-1.646341,-8.109756,-2.256098
1548455290232,-0.878967,-0.203430,0.507019,0.609756,-6.951220,-1.829268
1548455290247,-0.881409,-0.207642,0.506226,2.743902,-6.158537,-1.829268
1548455290254,-0.886414,-0.210205,0.503235,3.353659,-6.951220,-2.012195
1548455290262,-0.885559,-0.208130,0.496460,2.621951,-7.012195,-1.890244
1548455290277,-0.882385,-0.204590,0.497803,0.792683,-6.646342,-2.195122
1548455290284,-0.883789,-0.207397,0.501953,-1.768293,-7.317073,-2.804878
1548455290292,-0.878235,-0.206482,0.499084,-3.780488,-7.926829,-3.109756
1548455290307,-0.875854,-0.206665,0.507812,-4.512195,-7.621952,-3.170732
1548455290314,-0.875244,-0.208008,0.508667,-4.146341,-8.353659,-3.292683
1548455290321,-0.871460,-0.208191,0.505310,-2.682927,-8.780488,-3.170732
1548455290337,-0.874451,-0.212585,0.510254,-1.402439,-8.658537,-3.048780
1548455290344,-0.878174,-0.212158,0.507996,-0.670732,-9.512196,-2.926829
1548455290351,-0.873535,-0.209778,0.500610,-0.670732,-9.695122,-2.865854
1548455290367,-0.870239,-0.214844,0.500977,-1.585366,-9.634147,-2.987805
1548455290374,-0.871765,-0.215820,0.509094,-2.987805,-10.548780,-3.170732
1548455290382,-0.870239,-0.212463,0.507141,-4.207317,-11.280488,-3.231707
1548455290397,-0.865906,-0.214417,0.509155,-4.817073,-11.341464,-3.353659
1548455290404,-0.865784,-0.218628,0.516663,-4.939024,-11.829268,-3.658537
1548455290412,-0.861084,-0.214966,0.514832,-4.451220,-12.743903,-3.658537
1548455290427,-0.857361,-0.217957,0.516296,-3.353659,-12.560976,-3.597561
1548455290434,-0.860901,-0.220276,0.527161,-2.439024,-13.170732,-3.597561
1548455290442,-0.862610,-0.221558,0.534424,-1.463415,-13.841464,-3.536585
1548455290457,-0.862793,-0.222473,0.532837,-0.548781,-13.719513,-3.292683
1548455290464,-0.859253,-0.220276,0.527527,0.060976,-13.597561,-3.292683
1548455290472,-0.859375,-0.225586,0.525879,0.121951,-13.414635,-3.475610
1548455290487,-0.859009,-0.227173,0.521606,-0.365854,-14.024390,-3.597561
1548455290494,-0.853760,-0.227539,0.523804,-1.585366,-13.963415,-3.597561
1548455290502,-0.854004,-0.227722,0.527161,-3.536585,-14.451220,-3.963415
1548455290517,-0.849304,-0.226868,0.537476,-5.487805,-15.548780,-4.268293
1548455290524,-0.850403,-0.230774,0.558533,-6.280488,-15.731708,-4.451220
1548455290532,-0.846130,-0.227844,0.558777,-5.365854,-16.524391,-4.207317
1548455290547,-0.836121,-0.223938,0.545959,-2.865854,-15.731708,-3.780488
1548455290554,-0.836426,-0.229553,0.542969,-0.609756,-14.878049,-3.658537
1548455290562,-0.838623,-0.235168,0.541809,0.914634,-15.975610,-3.719512
1548455290576,-0.840637,-0.237610,0.534607,0.670732,-16.219513,-3.475610
1548455290584,-0.842468,-0.238159,0.537781,-1.585366,-16.341463,-3.658537
1548455290592,-0.837830,-0.236206,0.544861,-5.060976,-17.743902,-4.207317
1548455290607,-0.835449,-0.237183,0.556152,-7.865854,-18.536585,-4.451220
1548455290614,-0.833496,-0.234741,0.555969,-9.024390,-19.085367,-4.512195
1548455290621,-0.827576,-0.237366,0.551697,-8.353659,-19.146341,-4.512195
1548455290637,-0.823914,-0.242737,0.565918,-7.256098,-19.268293,-4.634146
1548455290644,-0.824158,-0.241821,0.572937,-5.975610,-20.487804,-4.695122
1548455290652,-0.817993,-0.236633,0.564209,-4.634146,-21.036587,-4.146341
1548455290667,-0.815002,-0.241394,0.558105,-3.414634,-20.487804,-3.841464
1548455290674,-0.818848,-0.248047,0.557678,-3.170732,-21.158537,-4.146341
1548455290682,-0.813965,-0.246704,0.554016,-4.573171,-22.195122,-4.329268
1548455290696,-0.811340,-0.248169,0.562012,-7.073171,-22.439024,-4.512195
1548455290704,-0.813110,-0.250793,0.578247,-9.573171,-23.841463,-5.000000
1548455290712,-0.808594,-0.250061,0.588013,-11.097561,-24.878050,-5.060976
1548455290727,-0.800903,-0.246277,0.585999,-10.914635,-24.939026,-4.878049
1548455290734,-0.793640,-0.244873,0.579834,-9.451220,-24.939026,-4.695122
1548455290742,-0.791748,-0.251709,0.578918,-7.987805,-25.304878,-4.817073
1548455290757,-0.789795,-0.255920,0.571411,-7.378049,-26.158537,-5.000000
1548455290764,-0.783875,-0.254822,0.562927,-8.597561,-27.073172,-5.304878
1548455290772,-0.780579,-0.258362,0.583069,-11.280488,-28.109756,-5.853659
1548455290787,-0.785767,-0.268372,0.608948,-14.024390,-30.243902,-6.585366
1548455290794,-0.778992,-0.261536,0.622803,-15.000000,-32.195122,-6.646342
1548455290802,-0.773438,-0.265137,0.646667,-13.536586,-31.280489,-6.524390
1548455290816,-0.777771,-0.266174,0.651245,-10.121951,-31.829269,-6.402439
1548455290824,-0.765991,-0.261780,0.625366,-5.304878,-31.585367,-5.670732
1548455290832,-0.760681,-0.269836,0.604004,-0.792683,-29.207317,-5.121951
1548455290847,-0.762024,-0.281006,0.596802,-0.182927,-29.634148,-5.548780
1548455290854,-0.758423,-0.285828,0.600281,-4.512195,-31.341465,-6.097561
1548455290862,-0.750244,-0.283630,0.611328,-11.829268,-33.048782,-6.707317
1548455290877,-0.746094,-0.281860,0.641541,-18.963415,-34.695122,-7.621952
1548455290884,-0.742310,-0.276001,0.647217,-22.500000,-36.646343,-8.414635
1548455290892,-0.729797,-0.273682,0.638916,-21.341463,-36.646343,-8.475610
1548455290907,-0.727356,-0.283813,0.644836,-17.865854,-35.975609,-8.841464
1548455290914,-0.727722,-0.291138,0.657959,-14.634147,-37.195122,-9.268292
1548455290921,-0.727234,-0.299194,0.669678,-12.073171,-37.926830,-9.085366
1548455290937,-0.716492,-0.295227,0.665161,-10.487805,-38.536587,-8.719512
1548455290944,-0.705994,-0.297729,0.674316,-10.000000,-37.804878,-8.780488
1548455290952,-0.711365,-0.307678,0.699646,-10.548780,-38.475609,-9.146341
1548455290967,-0.706482,-0.307312,0.693359,-10.487805,-39.939026,-9.085366
1548455290974,-0.695618,-0.305542,0.688049,-9.817074,-38.292683,-8.719512
1548455290982,-0.696106,-0.315430,0.694458,-10.182927,-37.439026,-8.963415
1548455290997,-0.688293,-0.312073,0.682739,-11.219512,-38.597561,-9.268292
1548455291004,-0.676697,-0.310669,0.667786,-12.743903,-37.621952,-9.329268
1548455291012,-0.673096,-0.322571,0.699707,-15.609756,-37.560978,-9.695122
1548455291027,-0.677002,-0.329651,0.730286,-18.353659,-40.548782,-10.304878
1548455291034,-0.662598,-0.316956,0.735718,-18.902439,-41.585365,-9.817074
1548455291042,-0.657227,-0.322937,0.755493,-16.829269,-39.573174,-9.390244
1548455291057,-0.659363,-0.328674,0.758423,-13.658537,-40.000000,-9.512196
1548455291064,-0.645264,-0.326294,0.737671,-9.695122,-39.512196,-9.329268
1548455291072,-0.648254,-0.337341,0.732605,-6.463415,-37.560978,-8.902439
1548455291087,-0.654663,-0.347717,0.728210,-5.365854,-38.536587,-8.963415
1548455291094,-0.645325,-0.344604,0.710449,-7.439024,-38.597561,-9.207317
1548455291102,-0.636292,-0.347656,0.732117,-12.621951,-37.865856,-9.756098
1548455291117,-0.636230,-0.354126,0.764404,-18.292683,-39.878048,-10.609756
1548455291124,-0.619995,-0.347046,0.778259,-20.853659,-41.097561,-10.914635
1548455291132,-0.612366,-0.344238,0.784851,-19.146341,-39.268295,-10.670732
1548455291147,-0.605896,-0.345886,0.776245,-15.548780,-38.536587,-10.731708
1548455291154,-0.597290,-0.346191,0.749634,-11.768293,-37.439026,-10.914635
1548455291162,-0.595764,-0.356628,0.757629,-9.634147,-36.646343,-11.036586
1548455291177,-0.599915,-0.374390,0.789001,-9.817074,-37.621952,-11.280488
1548455291184,-0.593445,-0.367981,0.793945,-11.585366,-39.024391,-11.341464
1548455291192,-0.578796,-0.360596,0.782043,-12.987805,-37.621952,-10.792684
1548455291206,-0.576233,-0.367188,0.785461,-13.231708,-36.402439,-10.914635
1548455291214,-0.572021,-0.368469,0.771667,-12.317074,-36.951221,-11.219512
1548455291222,-0.564819,-0.367188,0.755920,-11.158537,-36.097561,-11.158537
1548455291237,-0.556885,-0.377563,0.772217,-11.402439,-35.792683,-11.402439
1548455291244,-0.555908,-0.391663,0.814331,-12.378049,-37.134148,-11.768293
1548455291252,-0.546875,-0.382874,0.817078,-12.743903,-38.536587,-11.524390
1548455291267,-0.533081,-0.371338,0.806091,-11.097561,-36.707317,-10.792684
1548455291274,-0.536865,-0.385986,0.808533,-8.780488,-35.000000,-10.975610
1548455291282,-0.540161,-0.396240,0.795654,-6.768293,-35.731709,-11.524390
1548455291297,-0.531860,-0.391663,0.775452,-5.975610,-35.182926,-11.036586
1548455291304,-0.520996,-0.391968,0.774536,-7.682927,-34.634148,-10.914635
1548455291312,-0.514587,-0.407104,0.818970,-11.341464,-35.975609,-11.768293
1548455291327,-0.515747,-0.420593,0.858704,-14.024390,-37.987804,-12.195122
1548455291334,-0.499146,-0.403870,0.849609,-13.231708,-37.987804,-11.280488
1548455291342,-0.489502,-0.394836,0.819885,-9.756098,-34.695122,-10.609756
1548455291357,-0.491882,-0.404419,0.800171,-6.768293,-33.170731,-10.975610
1548455291364,-0.493347,-0.413513,0.788635,-5.487805,-33.780487,-11.707317
1548455291372,-0.485107,-0.419800,0.806030,-6.951220,-34.207317,-11.890244
1548455291387,-0.478821,-0.425476,0.832764,-10.182927,-35.487804,-11.768293
1548455291394,-0.468140,-0.423035,0.849792,-13.170732,-36.402439,-11.829268
1548455291402,-0.461609,-0.420776,0.856750,-13.231708,-35.365856,-11.524390
1548455291417,-0.460327,-0.426331,0.860474,-10.548780,-34.024391,-11.158537
1548455291439,-0.458130,-0.430603,0.853271,-7.134147,-33.109756,-11.158537
1548455291440,-0.456604,-0.435120,0.843140,-4.878049,-32.134148,-10.914635
1548455291447,-0.453125,-0.431274,0.832520,-4.573171,-31.463415,-10.365854
1548455291454,-0.445251,-0.429443,0.832336,-6.036585,-31.280489,-10.243902
1548455291462,-0.438965,-0.437927,0.846680,-8.414635,-31.524391,-10.365854
1548455291477,-0.429626,-0.441528,0.871277,-10.426829,-32.134148,-10.426829
1548455291484,-0.423889,-0.449524,0.895386,-10.548780,-31.829269,-10.304878
1548455291507,-0.418640,-0.450562,0.907898,-8.963415,-31.097561,-9.878049
1548455291507,-0.417603,-0.446106,0.903931,-5.792683,-29.207317,-9.329268
1548455291514,-0.423096,-0.442017,0.891357,-1.646341,-27.256098,-8.597561
1548455291536,-0.422546,-0.443665,0.872009,2.500000,-25.426830,-7.926829
1548455291537,-0.423523,-0.454773,0.865540,4.634146,-23.902439,-7.682927
1548455291544,-0.418518,-0.463196,0.882202,3.719512,-23.719513,-7.743903
1548455291552,-0.408203,-0.461487,0.894409,0.243902,-23.780489,-7.560976
1548455291567,-0.394226,-0.456970,0.891602,-3.353659,-23.353659,-7.378049
1548455291597,-0.386841,-0.457336,0.887695,-4.329268,-21.463415,-7.317073
1548455291597,-0.386719,-0.459534,0.885559,-3.353659,-20.304878,-7.317073
1548455291598,-0.388489,-0.462036,0.892151,-1.768293,-19.573172,-7.134147
1548455291604,-0.388000,-0.462219,0.888916,-0.609756,-19.146341,-6.524390
1548455291612,-0.384033,-0.461121,0.882751,0.000000,-18.048780,-5.914634
1548455291627,-0.385071,-0.465088,0.884155,0.182927,-16.829269,-5.670732
1548455291634,-0.381104,-0.463806,0.875793,0.304878,-17.012196,-5.365854
1548455291642,-0.372070,-0.458557,0.858765,0.365854,-15.548780,-4.817073
1548455291657,-0.369751,-0.457581,0.847900,-0.792683,-14.512196,-4.695122
1548455291664,-0.368713,-0.451721,0.836060,-3.170732,-15.182927,-5.000000
1548455291672,-0.362610,-0.450623,0.841614,-5.792683,-15.609756,-5.365854
1548455291687,-0.355591,-0.452148,0.862122,-6.951220,-16.280489,-5.365854
1548455291694,-0.349731,-0.453491,0.878479,-6.768293,-17.134148,-5.426829
1548455291702,-0.345215,-0.446106,0.873352,-5.609756,-16.951220,-5.060976
1548455291717,-0.344116,-0.441040,0.856323,-3.536585,-15.853659,-4.695122
1548455291724,-0.348267,-0.442078,0.846863,-1.402439,-15.304878,-4.634146
1548455291732,-0.347900,-0.443604,0.841431,0.000000,-16.097561,-4.695122
1548455291747,-0.343567,-0.443176,0.834534,-0.182927,-17.012196,-4.695122
1548455291754,-0.337524,-0.444641,0.841125,-1.646341,-17.378050,-4.939024
1548455291762,-0.338623,-0.452393,0.862671,-3.963415,-18.231709,-5.304878
1548455291777,-0.335449,-0.447571,0.870239,-5.060976,-19.878050,-5.792683
1548455291784,-0.319031,-0.441101,0.856262,-4.390244,-19.817074,-5.670732
1548455291792,-0.319397,-0.441772,0.849792,-3.536585,-18.597561,-6.036585
1548455291807,-0.324524,-0.448059,0.854675,-2.500000,-19.573172,-6.707317
1548455291814,-0.320435,-0.446960,0.860413,-2.012195,-20.487804,-7.256098
1548455291822,-0.313416,-0.445496,0.861694,-1.463415,-20.914635,-7.134147
1548455291837,-0.307007,-0.453552,0.879395,-1.524390,-20.914635,-7.439024
1548455291844,-0.310242,-0.461426,0.907959,-1.463415,-21.219513,-8.109756
1548455291852,-0.311340,-0.461426,0.916260,-0.365854,-21.707317,-7.865854
1548455291867,-0.304626,-0.455750,0.906128,2.500000,-20.243902,-7.134147
1548455291874,-0.303711,-0.459839,0.889709,6.036585,-18.231709,-6.829268
1548455291882,-0.310974,-0.469604,0.895264,8.231708,-17.621952,-6.829268
1548455291896,-0.314087,-0.476440,0.906311,8.109756,-17.743902,-6.707317
1548455291904,-0.303955,-0.472107,0.906616,5.853659,-17.439024,-6.341464
1548455291911,-0.292725,-0.468140,0.917847,3.109756,-16.402439,-6.219512
1548455291926,-0.291260,-0.471619,0.943970,2.134146,-15.731708,-6.341464
1548455291934,-0.287048,-0.471558,0.952209,4.207317,-15.365854,-5.853659
1548455291941,-0.282288,-0.468689,0.949341,8.170732,-13.292684,-5.121951
1548455291957,-0.283508,-0.465271,0.940125,12.317074,-11.097561,-4.512195
1548455291964,-0.286804,-0.469971,0.932983,15.792684,-9.756098,-4.085366
1548455291972,-0.289978,-0.470825,0.927612,17.987804,-8.475610,-3.719512
1548455291994,-0.292053,-0.458252,0.920349,18.536585,-7.439024,-3.109756
1548455291995,-0.287964,-0.450134,0.929382,17.987804,-6.707317,-3.048780
1548455292002,-0.281616,-0.445740,0.937317,18.597561,-5.853659,-3.109756
1548455292017,-0.274536,-0.442322,0.944458,21.463415,-4.939024,-3.048780
1548455292024,-0.268982,-0.429504,0.946411,25.182928,-3.719512,-2.865854
1548455292032,-0.267822,-0.412964,0.943298,30.243902,-2.500000,-2.134146
1548455292054,-0.269348,-0.409607,0.932983,37.073170,-1.463415,-1.585366
1548455292055,-0.274841,-0.422058,0.918518,44.024391,-0.182927,-1.646341
1548455292062,-0.276611,-0.424011,0.920776,46.768295,0.426829,-1.646341
1548455292077,-0.275085,-0.412415,0.932800,43.902439,0.243902,-1.463415
1548455292084,-0.274597,-0.389343,0.942322,38.963417,0.121951,-1.463415
1548455292092,-0.275757,-0.375366,0.948120,35.670734,0.914634,-1.890244
1548455292107,-0.277649,-0.379517,0.948914,35.000000,1.829268,-2.621951
1548455292114,-0.282043,-0.376770,0.943787,36.585365,2.865854,-2.865854
1548455292122,-0.281433,-0.378418,0.943420,37.926830,3.902439,-2.439024
1548455292137,-0.275269,-0.375732,0.946289,37.317074,4.573171,-2.682927
1548455292144,-0.271545,-0.369751,0.942749,36.036587,4.634146,-2.865854
1548455292152,-0.266113,-0.379456,0.938660,34.695122,5.121951,-2.865854
1548455292167,-0.273254,-0.387268,0.936157,33.170731,5.487805,-3.414634
1548455292174,-0.280518,-0.372253,0.938354,29.512196,5.243903,-3.475610
1548455292182,-0.281067,-0.358704,0.944763,23.902439,5.304878,-3.780488
1548455292197,-0.279846,-0.359253,0.951538,20.000000,5.243903,-4.268293
1548455292204,-0.281433,-0.356689,0.950562,19.329269,5.365854,-4.268293
1548455292212,-0.285400,-0.362793,0.945618,20.365854,5.670732,-4.085366
1548455292227,-0.290283,-0.371704,0.942993,20.792683,5.792683,-3.902439
1548455292234,-0.288269,-0.361206,0.940002,18.536585,6.036585,-3.109756
1548455292242,-0.284241,-0.353577,0.942993,14.451220,6.036585,-2.743902
1548455292256,-0.279846,-0.353882,0.941528,11.707317,5.792683,-2.743902
1548455292264,-0.278442,-0.351013,0.932495,10.000000,6.036585,-1.951220
1548455292271,-0.283691,-0.342590,0.930786,7.743903,6.219512,-1.646341
1548455292287,-0.284851,-0.331238,0.936523,5.792683,5.548780,-1.585366
1548455292294,-0.284668,-0.317688,0.947876,5.609756,4.939024,-1.341463
1548455292302,-0.287292,-0.318298,0.954346,7.195122,4.695122,-1.158537
1548455292316,-0.292236,-0.331421,0.942627,10.060976,5.182927,-0.975610
1548455292324,-0.294861,-0.323608,0.939270,11.646341,5.975610,-0.060976
1548455292339,-0.295776,-0.323547,0.942200,10.243902,5.792683,-0.243902
1548455292346,-0.289795,-0.327454,0.940613,8.414635,5.426829,-0.609756
1548455292354,-0.291565,-0.322815,0.943176,6.646342,5.426829,-0.182927
1548455292362,-0.291138,-0.312744,0.943665,5.487805,5.365854,-0.182927
1548455292377,-0.285278,-0.319824,0.937744,5.731708,5.365854,0.182927
1548455292384,-0.283875,-0.324158,0.932312,6.646342,5.487805,0.243902
1548455292391,-0.291748,-0.320801,0.937561,6.707317,5.365854,0.121951
1548455292407,-0.294495,-0.318176,0.945740,6.280488,4.939024,0.487805
1548455292414,-0.295715,-0.321838,0.950073,6.463415,4.695122,0.731707
1548455292422,-0.298645,-0.326782,0.948181,7.256098,4.817073,0.853659
1548455292444,-0.299866,-0.322937,0.946228,7.317073,5.000000,0.853659
1548455292445,-0.302246,-0.320190,0.944031,6.768293,5.121951,0.548781
1548455292452,-0.303467,-0.319580,0.942993,6.219512,5.243903,0.426829
1548455292466,-0.303040,-0.319824,0.945129,6.036585,5.365854,0.487805
1548455292474,-0.302429,-0.324280,0.947205,5.792683,5.487805,0.304878
1548455292481,-0.299072,-0.325317,0.950256,5.426829,5.426829,-0.060976
1548455292497,-0.303528,-0.317322,0.945740,5.243903,5.731708,0.243902
1548455292504,-0.307922,-0.311157,0.941162,5.000000,6.036585,0.365854
1548455292511,-0.314087,-0.309753,0.941956,5.365854,5.975610,0.060976
1548455292534,-0.317627,-0.315979,0.941772,6.280488,6.036585,0.060976
1548455292534,-0.319702,-0.318237,0.930664,6.219512,6.219512,0.060976
1548455292541,-0.317322,-0.306702,0.933105,4.512195,6.219512,-0.182927
1548455292556,-0.312866,-0.298279,0.947144,2.195122,5.670732,-0.792683
1548455292564,-0.307434,-0.306580,0.938293,2.378049,5.243903,-0.792683
1548455292572,-0.311951,-0.310791,0.927307,3.780488,6.097561,-0.426829
1548455292587,-0.316711,-0.302612,0.923706,4.512195,5.853659,-0.609756
1548455292594,-0.317017,-0.298584,0.922852,5.365854,5.060976,-0.548781
1548455292648,-0.319336,-0.308044,0.923157,6.402439,4.573171,0.000000
1548455292648,-0.317688,-0.315674,0.927795,6.097561,3.902439,-0.304878
1548455292648,-0.313721,-0.310059,0.930603,3.658537,2.926829,-0.914634
1548455292649,-0.316101,-0.301331,0.934509,0.548781,2.317073,-0.426829
1548455292649,-0.316589,-0.296265,0.927979,-2.073171,1.646341,-0.182927
1548455292654,-0.319031,-0.294861,0.921082,-2.621951,1.280488,-0.792683
1548455292662,-0.325073,-0.290466,0.922180,-1.524390,1.036585,-0.365854
1548455292677,-0.326843,-0.294800,0.924683,-0.426829,0.426829,0.060976
1548455292684,-0.323975,-0.294189,0.925476,-0.548781,-0.182927,-0.060976
1548455292692,-0.319336,-0.287598,0.931519,-1.585366,-0.731707,0.243902
1548455292706,-0.317993,-0.286255,0.943542,-2.500000,-1.402439,0.548781
1548455292714,-0.317322,-0.288391,0.951233,-2.743902,-2.073171,0.670732
1548455292722,-0.314331,-0.286499,0.945007,-2.256098,-1.951220,0.914634
1548455292737,-0.317383,-0.286560,0.945374,-1.829268,-1.463415,1.219512
1548455292744,-0.319031,-0.298340,0.957825,-1.585366,-1.890244,1.280488
1548455292752,-0.316589,-0.301880,0.955078,-1.585366,-2.134146,1.646341
1548455292767,-0.316223,-0.299500,0.944519,-2.500000,-1.646341,1.951220
1548455292774,-0.320068,-0.308533,0.956360,-3.719512,-1.280488,1.646341
1548455292782,-0.323547,-0.313232,0.962280,-4.451220,-1.402439,1.280488
1548455292796,-0.322205,-0.306519,0.951599,-4.695122,-0.609756,1.707317
1548455292804,-0.324646,-0.310974,0.952026,-5.060976,0.304878,1.890244
1548455292812,-0.328613,-0.318909,0.966492,-5.182927,0.487805,1.707317
1548455292829,-0.325562,-0.324646,0.962341,-5.365854,0.792683,2.012195
1548455292835,-0.321045,-0.325623,0.945007,-7.073171,1.829268,1.951220
1548455292842,-0.322510,-0.319214,0.944092,-9.390244,2.804878,1.707317
1548455292865,-0.323425,-0.313293,0.948914,-10.487805,3.170732,1.646341
1548455292865,-0.324341,-0.324646,0.949158,-9.085366,3.536585,1.829268
1548455292872,-0.322327,-0.330261,0.946716,-6.646342,4.451220,1.768293
1548455292888,-0.322632,-0.325562,0.957581,-5.487805,4.939024,1.951220
1548455292895,-0.327026,-0.341003,0.947754,-4.329268,5.365854,2.378049
1548455292902,-0.329895,-0.326538,0.948669,-5.365854,6.097561,3.292683
1548455292918,-0.332397,-0.333618,0.951599,-6.890244,6.158537,2.987805
1548455292925,-0.334961,-0.338257,0.944031,-6.829268,6.524390,3.414634
1548455292932,-0.337219,-0.339844,0.940918,-7.256098,7.317073,4.512195
1548455292962,-0.337219,-0.345642,0.944214,-8.841464,7.804878,4.390244
1548455292962,-0.337646,-0.347717,0.943726,-10.243902,7.926829,4.756098
1548455292963,-0.340881,-0.342651,0.940430,-10.853659,8.597561,5.548780
1548455292985,-0.346436,-0.342773,0.942810,-11.219512,9.146341,5.914634
1548455292985,-0.345093,-0.345520,0.944580,-11.463415,9.634147,6.097561
1548455292992,-0.344727,-0.340149,0.946228,-11.524390,10.304878,6.768293
1548455293007,-0.348755,-0.343262,0.947266,-10.853659,11.219512,7.439024
1548455293014,-0.351624,-0.350586,0.949280,-9.451220,12.073171,7.500000
1548455293022,-0.356934,-0.357605,0.952148,-6.890244,13.048780,8.109756
1548455293037,-0.360962,-0.355896,0.941895,-3.414634,13.963415,9.085366
1548455293044,-0.366211,-0.352356,0.933533,-0.548781,15.365854,10.000000
1548455293052,-0.368713,-0.356201,0.936523,0.182927,16.219513,10.670732
1548455293075,-0.368286,-0.363647,0.938110,-0.731707,16.341463,10.853659
1548455293075,-0.370667,-0.371033,0.939697,-2.560976,17.134148,11.341464
1548455293082,-0.375305,-0.363403,0.941528,-5.609756,17.743902,12.195122
1548455293105,-0.376709,-0.355957,0.930237,-8.719512,18.231709,12.500000
1548455293105,-0.380005,-0.348145,0.928772,-10.731708,19.268293,12.743903
1548455293112,-0.390259,-0.342102,0.937073,-11.341464,20.000000,13.597561
1548455293134,-0.395386,-0.344482,0.946289,-10.000000,20.548780,14.268293
1548455293135,-0.396790,-0.340576,0.951355,-7.256098,21.585367,14.512196
1548455293142,-0.395508,-0.339233,0.948425,-3.963415,23.109756,15.060976
1548455293172,-0.401062,-0.339417,0.935913,-0.121951,24.512196,15.731708
1548455293172,-0.410278,-0.343018,0.921631,3.780488,25.670732,16.097561
1548455293173,-0.415222,-0.346680,0.930481,5.670732,26.524391,16.036585
1548455293202,-0.421448,-0.342041,0.933960,5.182927,26.768293,16.219513
1548455293202,-0.427368,-0.327881,0.931580,3.170732,27.439026,16.707317
1548455293203,-0.430847,-0.316772,0.918274,1.341463,28.292683,17.012196
1548455293217,-0.432739,-0.320496,0.919250,0.243902,29.756098,16.646341
1548455293232,-0.441956,-0.325073,0.928101,-0.426829,30.487806,16.280489
1548455293232,-0.445190,-0.318176,0.911072,-1.402439,30.670732,16.585365
1548455293247,-0.445435,-0.310852,0.897888,-1.707317,32.134148,16.890244
1548455293254,-0.453064,-0.314819,0.895569,-1.463415,33.048782,16.829269
1548455293262,-0.458557,-0.306274,0.890808,-1.036585,32.621952,16.829269
1548455293277,-0.459900,-0.305420,0.893311,-0.731707,33.109756,17.012196
1548455293284,-0.466248,-0.315613,0.887085,-0.609756,33.597561,16.707317
1548455293292,-0.471619,-0.308228,0.861633,-0.365854,33.963417,16.280489
1548455293307,-0.478271,-0.299805,0.846436,-0.792683,35.000000,15.914635
1548455293321,-0.487732,-0.303955,0.851440,-1.402439,34.695122,15.182927
1548455293322,-0.493530,-0.311218,0.862732,-1.341463,33.475609,14.573171
1548455293337,-0.500061,-0.301697,0.868347,-1.158537,33.292683,14.512196
1548455293344,-0.503174,-0.290527,0.862305,-0.975610,32.926830,14.329268
1548455293352,-0.504761,-0.277344,0.849670,0.609756,33.475609,13.780488
1548455293367,-0.515198,-0.275696,0.830566,3.780488,34.085365,13.231708
1548455293374,-0.517822,-0.291077,0.816345,7.073171,34.146343,12.256098
1548455293381,-0.524658,-0.300903,0.812744,9.085366,33.902439,11.646341
1548455293397,-0.529907,-0.298279,0.821533,8.841464,32.987804,11.829268
1548455293404,-0.535828,-0.298523,0.827148,6.280488,32.012196,11.463415
1548455293412,-0.542664,-0.276428,0.823486,3.292683,31.280489,10.792684
1548455293426,-0.545593,-0.265503,0.829956,2.195122,31.402439,10.426829
1548455293434,-0.553772,-0.284973,0.833069,3.109756,30.731709,9.512196
1548455293442,-0.557922,-0.280212,0.818909,6.158537,30.548780,9.207317
1548455293456,-0.562866,-0.276001,0.800903,9.085366,31.768293,9.817074
1548455293464,-0.567627,-0.277283,0.796570,10.060976,31.768293,9.329268
1548455293472,-0.576843,-0.276001,0.816589,9.817074,30.853659,8.475610
1548455293487,-0.586182,-0.270508,0.822083,9.695122,29.573172,8.597561
1548455293494,-0.585571,-0.264832,0.811462,10.792684,29.756098,8.719512
1548455293501,-0.591431,-0.261780,0.801758,12.682927,31.158537,8.292683
1548455293518,-0.594299,-0.267273,0.788025,14.085366,30.670732,7.804878
1548455293524,-0.590332,-0.280273,0.781067,14.939025,30.670732,7.682927
1548455293531,-0.593994,-0.286377,0.780090,15.243903,30.426830,7.865854
1548455293547,-0.598145,-0.283569,0.790466,14.085366,29.329269,7.926829
1548455293554,-0.611938,-0.268921,0.811584,12.256098,28.902439,7.804878
1548455293562,-0.618652,-0.256775,0.801331,11.219512,28.109756,7.682927
1548455293577,-0.616272,-0.257812,0.777222,11.951220,29.085367,7.073171
1548455293584,-0.623779,-0.260803,0.762207,13.841464,30.121952,6.646342
1548455293592,-0.627441,-0.265320,0.748169,14.573171,29.451220,6.585366
1548455293607,-0.629395,-0.267761,0.738770,13.658537,28.719513,5.853659
1548455293614,-0.636169,-0.264343,0.747864,12.378049,27.804878,5.487805
1548455293622,-0.641907,-0.266663,0.763306,10.731708,26.219513,5.426829
1548455293637,-0.644287,-0.263855,0.764221,9.695122,25.060976,5.121951
1548455293644,-0.643738,-0.255554,0.755066,9.878049,25.060976,5.000000
1548455293652,-0.643433,-0.254761,0.744812,10.792684,25.365854,5.000000
1548455293667,-0.648743,-0.266479,0.734802,11.768293,24.939026,4.939024
1548455293674,-0.650635,-0.263062,0.740479,11.646341,24.146341,5.121951
1548455293682,-0.656372,-0.258362,0.742432,10.731708,23.109756,5.548780
1548455293697,-0.658813,-0.259155,0.739746,9.512196,21.951220,5.914634
1548455293704,-0.666870,-0.250549,0.741211,8.780488,22.012196,6.097561
1548455293712,-0.679321,-0.242310,0.739258,7.926829,21.463415,6.402439
1548455293726,-0.675110,-0.242249,0.723816,7.012195,21.036587,6.219512
1548455293734,-0.675293,-0.240723,0.718018,6.646342,21.280489,6.219512
1548455293742,-0.681152,-0.243286,0.736511,6.036585,20.365854,6.646342
1548455293756,-0.685181,-0.240662,0.748291,4.756098,19.146341,6.768293
1548455293764,-0.682373,-0.231628,0.734680,4.146341,18.963415,7.012195
1548455293772,-0.683899,-0.228638,0.732849,4.695122,19.573172,6.951220
1548455293787,-0.694214,-0.226746,0.728394,5.487805,19.207317,6.707317
1548455293794,-0.700134,-0.219238,0.716980,5.487805,18.536585,6.829268
1548455293802,-0.702209,-0.214539,0.721924,5.000000,18.597561,6.585366
1548455293817,-0.708069,-0.208862,0.742371,3.902439,17.865854,6.097561
1548455293824,-0.711304,-0.202515,0.757263,3.353659,17.134148,5.731708
1548455293832,-0.707031,-0.207947,0.739563,4.146341,17.500000,5.426829
1548455293847,-0.707275,-0.212341,0.716553,7.073171,19.207317,5.000000
1548455293854,-0.710266,-0.212646,0.700378,9.085366,19.695122,4.817073
1548455293862,-0.711548,-0.216064,0.694275,8.353659,19.146341,4.634146
1548455293877,-0.719727,-0.211731,0.715515,5.914634,18.414635,4.268293
1548455293884,-0.722534,-0.203003,0.712402,3.963415,16.890244,4.390244
1548455293892,-0.717224,-0.206543,0.711975,3.292683,17.439024,4.268293
1548455293907,-0.720825,-0.213867,0.709656,3.963415,17.804878,3.902439
1548455293914,-0.720276,-0.200073,0.694214,5.000000,16.951220,4.207317
1548455293922,-0.723816,-0.199890,0.685608,6.341464,17.682928,4.512195
1548455293937,-0.725098,-0.213806,0.678040,7.500000,16.951220,4.390244
1548455293944,-0.726868,-0.212341,0.676086,7.743903,16.219513,4.207317
1548455293952,-0.736145,-0.205139,0.674072,6.219512,15.304878,4.390244
1548455293967,-0.735046,-0.197021,0.668457,3.292683,13.963415,3.780488
1548455293974,-0.733337,-0.196716,0.666260,1.219512,13.536586,2.865854
1548455293982,-0.737122,-0.188965,0.672363,0.548781,12.621951,2.439024
1548455293997,-0.739441,-0.187866,0.675720,0.670732,11.829268,2.256098
1548455294004,-0.739563,-0.195984,0.669250,2.073171,11.280488,1.707317
1548455294012,-0.738708,-0.198303,0.657227,4.329268,11.036586,1.463415
1548455294027,-0.737183,-0.196777,0.657227,5.304878,10.487805,1.524390
1548455294034,-0.741272,-0.194580,0.670776,4.268293,9.024390,1.280488
1548455294042,-0.744263,-0.190002,0.689270,2.682927,7.621952,1.097561
1548455294057,-0.751831,-0.187988,0.695251,2.621951,7.012195,1.158537
1548455294064,-0.757080,-0.184937,0.678223,4.268293,7.378049,0.914634
1548455294072,-0.757019,-0.183289,0.658997,6.280488,8.292683,0.670732
1548455294087,-0.751953,-0.188660,0.639648,7.256098,8.475610,0.731707
1548455294094,-0.747559,-0.206421,0.642578,6.341464,7.500000,0.243902
1548455294102,-0.752625,-0.209473,0.655151,3.719512,5.426829,-0.121951
1548455294117,-0.751648,-0.198975,0.665649,-0.243902,3.902439,-0.365854
1548455294124,-0.752136,-0.187866,0.671082,-3.353659,3.475610,-0.853659
1548455294132,-0.751465,-0.185547,0.663452,-3.292683,2.987805,-1.341463
1548455294147,-0.750488,-0.196045,0.662170,-0.426829,3.048780,-1.219512
1548455294154,-0.754272,-0.205566,0.661072,2.987805,2.682927,-1.158537
1548455294162,-0.751831,-0.210205,0.647400,4.207317,2.134146,-1.219512
1548455294177,-0.751648,-0.206116,0.655457,3.231707,1.829268,-1.402439
1548455294184,-0.759277,-0.202881,0.672485,1.097561,0.304878,-1.341463
1548455294192,-0.760254,-0.199951,0.675110,-0.853659,-0.914634,-1.585366
1548455294214,-0.757324,-0.197876,0.682617,-1.280488,-0.731707,-1.585366
1548455294215,-0.760010,-0.198792,0.689209,-0.304878,-0.853659,-1.097561
1548455294222,-0.759583,-0.204468,0.682007,1.158537,-1.036585,-0.975610
1548455294237,-0.758789,-0.208313,0.680481,2.682927,-0.487805,-0.914634
1548455294244,-0.764832,-0.205566,0.692871,3.658537,-0.548781,-0.487805
1548455294252,-0.764893,-0.201050,0.699280,3.414634,-1.036585,-0.121951
1548455294267,-0.763123,-0.212585,0.706421,3.170732,-0.304878,-0.304878
1548455294274,-0.763489,-0.208923,0.696838,3.658537,0.060976,0.000000
1548455294282,-0.760254,-0.206055,0.685120,4.085366,0.914634,0.548781
1548455294297,-0.760254,-0.212769,0.675964,3.597561,1.829268,0.426829
1548455294304,-0.761047,-0.213806,0.662537,2.317073,1.219512,0.365854
1548455294312,-0.758484,-0.206177,0.661621,-0.182927,1.097561,0.426829
1548455294327,-0.762817,-0.206238,0.678894,-2.926829,0.548781,0.182927
1548455294334,-0.766724,-0.201294,0.690308,-4.634146,-0.731707,-0.365854
1548455294342,-0.759949,-0.199341,0.699890,-4.085366,-0.670732,-0.121951
1548455294357,-0.760803,-0.198547,0.703613,-1.158537,-0.182927,0.365854
1548455294364,-0.758667,-0.193176,0.688599,2.317073,0.365854,0.853659
1548455294372,-0.759827,-0.202820,0.679626,5.121951,1.402439,0.975610
1548455294387,-0.764587,-0.210327,0.678650,5.914634,1.341463,0.914634
1548455294402,-0.765808,-0.210388,0.679626,4.756098,1.158537,0.853659
1548455294402,-0.765991,-0.210510,0.685364,1.951220,1.158537,0.975610
1548455294417,-0.765747,-0.206787,0.693359,-0.792683,0.853659,1.036585
1548455294424,-0.763855,-0.200012,0.691162,-2.500000,0.731707,1.097561
1548455294432,-0.760315,-0.196899,0.683350,-2.317073,1.402439,1.036585
1548455294447,-0.764404,-0.197937,0.684692,-0.914634,2.012195,1.097561
1548455294462,-0.766418,-0.197327,0.682617,0.243902,1.951220,1.341463
1548455294463,-0.762817,-0.202576,0.674072,0.609756,2.073171,1.219512
1548455294477,-0.764465,-0.200500,0.666443,0.548781,2.317073,1.219512
1548455294484,-0.759644,-0.196899,0.663635,-0.060976,2.012195,1.463415
1548455294492,-0.761353,-0.201904,0.668091,-0.853659,1.707317,1.219512
1548455294507,-0.766602,-0.197327,0.676270,-1.402439,0.914634,1.036585
1548455294514,-0.768127,-0.198059,0.678467,-1.707317,0.426829,1.219512
1548455294522,-0.765076,-0.198425,0.673218,-1.219512,0.731707,1.097561
1548455294537,-0.764038,-0.200684,0.670105,0.121951,1.036585,1.219512
1548455294552,-0.767700,-0.201355,0.674133,0.914634,0.975610,1.402439
1548455294552,-0.767700,-0.200684,0.671204,0.853659,0.548781,1.524390
1548455294567,-0.764160,-0.195007,0.673096,-0.060976,0.487805,1.585366
1548455294574,-0.764893,-0.194519,0.675720,-0.853659,0.365854,1.463415
1548455294582,-0.763550,-0.199463,0.671326,-1.036585,0.182927,1.341463
1548455294597,-0.762695,-0.192383,0.666504,-0.609756,0.487805,1.524390
1548455294604,-0.767212,-0.194702,0.667542,-0.060976,0.609756,1.585366
1548455294612,-0.766724,-0.198547,0.664368,-0.243902,0.304878,1.341463
1548455294634,-0.761475,-0.198181,0.660034,-0.670732,0.243902,1.402439
1548455294635,-0.760559,-0.197327,0.666443,-1.341463,0.182927,1.585366
1548455294642,-0.762939,-0.192688,0.672974,-1.951220,-0.609756,1.585366
1548455294657,-0.765503,-0.193481,0.673828,-1.829268,-0.975610,1.280488
1548455294664,-0.765137,-0.196533,0.670410,-0.670732,-0.609756,1.219512
1548455294672,-0.769592,-0.198242,0.666870,0.548781,-0.792683,1.402439
1548455294687,-0.765076,-0.198486,0.664795,0.853659,-1.097561,1.524390
1548455294694,-0.764648,-0.194153,0.662170,0.548781,-1.097561,1.524390
1548455294709,-0.768127,-0.192810,0.663757,-0.182927,-1.585366,1.585366
1548455294717,-0.767029,-0.197632,0.677124,-0.914634,-2.012195,1.463415
1548455294724,-0.771606,-0.195557,0.703125,-1.036585,-2.195122,1.097561
1548455294739,-0.773315,-0.185364,0.703979,-0.304878,-2.560976,1.158537
1548455294747,-0.765259,-0.192505,0.686829,1.341463,-1.158537,1.097561
1548455294754,-0.768982,-0.199341,0.679565,3.658537,0.182927,0.853659
1548455294762,-0.768982,-0.203247,0.676270,4.939024,0.304878,0.914634
1548455294777,-0.768066,-0.203186,0.671326,3.597561,0.365854,0.914634
1548455294784,-0.770386,-0.198608,0.677368,0.853659,0.365854,0.609756
1548455294792,-0.775452,-0.197327,0.683838,-1.707317,-0.060976,0.365854
1548455294807,-0.770630,-0.191162,0.684509,-2.987805,-0.182927,0.243902
1548455294814,-0.771545,-0.191528,0.690857,-2.256098,0.243902,0.121951
1548455294822,-0.771545,-0.193909,0.687622,-0.914634,0.365854,0.182927
1548455294837,-0.766907,-0.197083,0.672363,0.792683,0.914634,0.365854
1548455294844,-0.767578,-0.197693,0.667664,2.378049,1.463415,0.548781
1548455294852,-0.765930,-0.199707,0.664978,2.500000,1.036585,0.548781
1548455294867,-0.766724,-0.200439,0.665405,1.219512,0.731707,0.426829
1548455294874,-0.769104,-0.191284,0.669189,-0.670732,0.304878,0.243902
1548455294882,-0.768433,-0.190979,0.678772,-2.500000,-0.060976,-0.182927
1548455294897,-0.768494,-0.193909,0.675903,-3.048780,-0.121951,-0.609756
1548455294904,-0.766357,-0.193604,0.668945,-1.402439,0.182927,-0.365854
1548455294912,-0.766296,-0.198914,0.672974,0.731707,0.670732,0.000000
1548455294927,-0.770508,-0.199524,0.672180,1.524390,0.304878,0.060976
1548455294934,-0.766113,-0.192627,0.666260,1.219512,0.182927,0.121951
1548455294942,-0.766052,-0.184875,0.668457,0.548781,0.304878,0.365854
1548455294957,-0.765137,-0.189270,0.671936,0.365854,-0.121951,0.182927
1548455294964,-0.770691,-0.196411,0.685913,1.280488,-0.243902,-0.182927
1548455294972,-0.774109,-0.192871,0.686646,2.560976,-0.487805,-0.121951
1548455294987,-0.773804,-0.185242,0.680908,2.987805,0.060976,0.000000
1548455294994,-0.773987,-0.187744,0.672424,3.475610,0.731707,-0.426829
1548455295002,-0.774048,-0.192078,0.670654,4.512195,0.914634,-0.731707
1548455295017,-0.775391,-0.194885,0.669312,4.939024,0.914634,-0.731707
1548455295024,-0.776917,-0.190552,0.668091,3.841464,0.792683,-0.853659
1548455295032,-0.772522,-0.186340,0.673218,2.256098,0.548781,-1.219512
1548455295047,-0.769958,-0.188354,0.678894,1.219512,0.487805,-1.585366
1548455295054,-0.767883,-0.184753,0.673157,1.097561,0.426829,-1.646341
1548455295062,-0.767822,-0.185425,0.667969,1.951220,0.731707,-1.829268
1548455295084,-0.769592,-0.197449,0.666016,3.170732,0.914634,-2.134146
1548455295085,-0.770996,-0.202087,0.661316,3.902439,0.548781,-2.073171
1548455295092,-0.770874,-0.201477,0.660217,3.353659,0.243902,-1.890244
1548455295107,-0.767883,-0.197876,0.657715,1.829268,0.060976,-2.012195
1548455295114,-0.763489,-0.195496,0.650513,0.304878,-0.487805,-2.073171
1548455295122,-0.762329,-0.189514,0.645630,-0.182927,-0.792683,-2.012195
1548455295137,-0.763184,-0.194580,0.646851,0.121951,-1.219512,-2.012195
1548455295144,-0.764771,-0.210022,0.659851,0.182927,-1.890244,-2.439024
1548455295152,-0.766235,-0.207458,0.662476,0.121951,-2.743902,-2.317073
1548455295167,-0.766479,-0.200684,0.674377,-0.182927,-2.804878,-1.829268
1548455295174,-0.768372,-0.201782,0.679749,0.000000,-3.170732,-1.768293
1548455295182,-0.763306,-0.205322,0.667236,1.036585,-3.414634,-1.524390
1548455295197,-0.761902,-0.211182,0.661438,2.439024,-2.682927,-1.097561
1548455295204,-0.768005,-0.210083,0.666443,2.439024,-3.048780,-0.792683
1548455295212,-0.771118,-0.207703,0.668823,0.670732,-3.597561,-0.731707
1548455295227,-0.772827,-0.204407,0.664673,-1.585366,-3.597561,-0.792683
1548455295234,-0.767944,-0.206055,0.664978,-3.170732,-3.414634,-0.792683
1548455295242,-0.766357,-0.206421,0.669495,-3.536585,-3.536585,-0.853659
1548455295257,-0.764404,-0.204346,0.677063,-3.048780,-3.841464,-0.670732
1548455295264,-0.763977,-0.206238,0.680908,-2.134146,-3.841464,-0.487805
1548455295272,-0.763306,-0.206665,0.673462,-1.463415,-4.207317,-0.426829
1548455295287,-0.761292,-0.208435,0.659790,-1.158537,-3.902439,-0.365854
1548455295294,-0.763245,-0.211914,0.654663,-1.158537,-3.902439,-0.426829
1548455295302,-0.767761,-0.215393,0.657593,-1.707317,-4.817073,-0.365854
1548455295317,-0.764221,-0.213257,0.658875,-3.231707,-5.304878,-0.426829
1548455295324,-0.763794,-0.212708,0.669312,-4.634146,-5.548780,-0.365854
1548455295332,-0.762390,-0.207092,0.674683,-5.975610,-6.341464,-0.365854
1548455295347,-0.757812,-0.203552,0.672302,-6.219512,-6.585366,-0.304878
1548455295354,-0.758179,-0.208801,0.663696,-5.609756,-6.341464,-0.182927
1548455295362,-0.753113,-0.210327,0.655273,-4.634146,-6.341464,-0.060976
1548455295377,-0.750671,-0.209473,0.654297,-4.512195,-6.829268,0.121951
1548455295384,-0.746887,-0.215271,0.657227,-5.792683,-7.439024,0.243902
1548455295392,-0.747314,-0.212219,0.656250,-8.109756,-8.231708,0.000000
1548455295407,-0.746582,-0.208252,0.652100,-10.182927,-9.207317,-0.060976
1548455295414,-0.745972,-0.209717,0.652100,-11.280488,-9.695122,-0.304878
1548455295422,-0.746216,-0.210510,0.645752,-11.280488,-10.548780,-0.487805
1548455295437,-0.743835,-0.209290,0.641174,-10.792684,-11.463415,-0.426829
1548455295444,-0.745056,-0.210327,0.640991,-10.609756,-12.378049,-0.548781
1548455295452,-0.743591,-0.215576,0.645386,-10.853659,-13.963415,-0.792683
1548455295467,-0.739868,-0.214111,0.649292,-11.707317,-15.243903,-0.975610
1548455295474,-0.731628,-0.213013,0.654541,-12.743903,-16.646341,-1.158537
1548455295482,-0.731567,-0.214661,0.665100,-12.621951,-17.560976,-1.524390
1548455295497,-0.730042,-0.216675,0.664795,-11.341464,-18.780489,-1.768293
1548455295504,-0.724121,-0.221069,0.656189,-9.268292,-19.146341,-1.768293
1548455295512,-0.722107,-0.224609,0.647827,-8.170732,-19.634148,-1.768293
1548455295527,-0.718506,-0.229309,0.643372,-8.963415,-20.853659,-2.195122
1548455295534,-0.717712,-0.235535,0.657349,-11.402439,-22.317074,-2.743902
1548455295542,-0.715271,-0.231812,0.669128,-14.207317,-24.268293,-2.987805
1548455295557,-0.708069,-0.212646,0.686035,-15.975610,-25.609756,-3.109756
1548455295564,-0.714539,-0.200684,0.707092,-15.182927,-26.524391,-3.536585
1548455295572,-0.712952,-0.204529,0.723572,-12.378049,-27.560976,-4.024390
1548455295587,-0.709717,-0.225525,0.741089,-7.378049,-27.012196,-4.390244
1548455295594,-0.705383,-0.234497,0.730103,-2.195122,-26.524391,-4.207317
1548455295602,-0.695984,-0.233582,0.705200,2.256098,-25.487806,-3.292683
1548455295648,-0.697083,-0.247192,0.688782,4.390244,-24.878050,-2.926829
1548455295652,-0.699280,-0.258179,0.685852,2.439024,-25.975611,-3.231707
1548455295652,-0.695068,-0.259338,0.694275,-4.146341,-27.378050,-3.536585
1548455295652,-0.687622,-0.254028,0.705811,-12.987805,-28.780489,-4.024390
1548455295654,-0.681580,-0.249329,0.743958,-20.121952,-29.939026,-4.756098
1548455295662,-0.679749,-0.239319,0.761963,-22.012196,-31.341465,-5.000000
1548455295677,-0.664490,-0.221741,0.735596,-18.841463,-31.158537,-4.756098
1548455295684,-0.652832,-0.232605,0.704041,-12.317074,-28.963415,-5.000000
1548455295692,-0.650879,-0.258301,0.678894,-6.829268,-29.329269,-5.731708
1548455295707,-0.646851,-0.267639,0.660828,-5.914634,-31.158537,-6.097561
1548455295714,-0.643372,-0.266785,0.646851,-10.548780,-33.292683,-6.463415
1548455295722,-0.632141,-0.265503,0.678894,-19.268293,-35.975609,-7.865854
1548455295737,-0.632202,-0.265320,0.767212,-27.439026,-39.817074,-9.634147
1548455295752,-0.630859,-0.249329,0.821350,-30.060976,-44.085365,-10.121951
1548455295752,-0.617737,-0.232178,0.806335,-24.390244,-43.231709,-9.695122
1548455295767,-0.608276,-0.242249,0.773499,-12.682927,-38.963417,-9.573171
1548455295774,-0.613098,-0.273193,0.757324,-0.548781,-37.378048,-9.512196
1548455295782,-0.616272,-0.293213,0.739319,6.890244,-38.170734,-8.597561
1548455295797,-0.609253,-0.295654,0.719971,5.914634,-38.841465,-7.682927
1548455295804,-0.600769,-0.302246,0.717163,-3.048780,-39.817074,-7.987805
1548455295812,-0.591431,-0.299744,0.747070,-15.853659,-42.134148,-9.207317
1548455295827,-0.586304,-0.291931,0.802185,-26.036587,-44.878048,-10.000000
1548455295834,-0.571899,-0.277222,0.836304,-29.573172,-47.012196,-10.426829
1548455295849,-0.559753,-0.260864,0.840149,-25.975611,-46.219513,-10.792684
1548455295857,-0.554443,-0.264099,0.826660,-17.500000,-44.451221,-11.341464
1548455295864,-0.552124,-0.278809,0.813171,-7.804878,-43.170734,-11.829268
1548455295879,-0.551392,-0.302734,0.800415,-0.365854,-42.804878,-11.951220
1548455295887,-0.545654,-0.318726,0.803040,1.829268,-43.353661,-11.585366
1548455295894,-0.542847,-0.330505,0.830505,-1.341463,-43.963417,-11.707317
1548455295902,-0.540649,-0.326721,0.837097,-7.134147,-45.426830,-11.951220
1548455295917,-0.529114,-0.318054,0.845398,-12.317074,-45.000000,-12.256098
1548455295924,-0.529602,-0.322388,0.873901,-14.695123,-43.902439,-12.865854
1548455295932,-0.521606,-0.315796,0.872009,-14.390244,-44.695122,-12.987805
1548455295947,-0.504578,-0.311584,0.864929,-11.646341,-42.621952,-12.439025
1548455295954,-0.502869,-0.329041,0.863281,-7.743903,-40.914635,-12.073171
1548455295962,-0.495178,-0.337708,0.849060,-4.451220,-41.097561,-12.073171
1548455295969,-0.484985,-0.342346,0.833313,-3.414634,-40.060978,-11.463415
1548455295984,-0.477112,-0.344666,0.824097,-6.219512,-40.243904,-11.402439
1548455295992,-0.468323,-0.343445,0.838867,-11.158537,-41.463417,-12.134147
1548455295999,-0.463867,-0.345520,0.865723,-15.304878,-42.865856,-12.743903
1548455296014,-0.450989,-0.336304,0.887207,-17.317074,-43.841465,-13.231708
1548455296022,-0.440125,-0.337219,0.888000,-16.097561,-43.109756,-13.475610
1548455296037,-0.435364,-0.345947,0.867981,-12.378049,-41.951221,-13.841464
1548455296044,-0.434021,-0.352417,0.848083,-7.926829,-40.975609,-14.024390
1548455296066,-0.432129,-0.359924,0.836182,-6.097561,-40.975609,-13.963415
1548455296067,-0.423401,-0.364685,0.824768,-7.926829,-42.195122,-13.841464
1548455296074,-0.414368,-0.374390,0.834961,-12.134147,-43.353661,-14.085366
1548455296082,-0.409668,-0.373230,0.879517,-16.707317,-44.695122,-14.512196
1548455296097,-0.401367,-0.359924,0.924805,-19.451220,-46.585365,-14.695123
1548455296104,-0.378906,-0.353333,0.928345,-18.353659,-46.585365,-14.512196
1548455296112,-0.368225,-0.364929,0.929016,-13.292684,-43.719513,-14.573171
1548455296127,-0.378601,-0.383789,0.945496,-7.378049,-42.073174,-14.756098
1548455296134,-0.377014,-0.388428,0.927734,-3.353659,-41.829269,-14.390244
1548455296142,-0.375549,-0.393860,0.917725,-1.585366,-39.878048,-13.475610
1548455296149,-0.379089,-0.402527,0.928955,-2.621951,-38.841465,-12.987805
1548455296164,-0.371582,-0.395203,0.932251,-6.463415,-39.024391,-12.804878
1548455296172,-0.361877,-0.394897,0.939758,-10.853659,-37.743904,-12.439025
1548455296179,-0.355652,-0.398987,0.963562,-13.902439,-36.890244,-12.560976
1548455296194,-0.352539,-0.396240,0.984253,-14.146341,-35.975609,-12.500000
1548455296202,-0.344238,-0.388611,0.972656,-13.231708,-34.207317,-11.951220
1548455296209,-0.334717,-0.393311,0.953979,-11.890244,-31.097561,-11.829268
1548455296224,-0.330017,-0.402039,0.946960,-8.841464,-28.902439,-12.073171
1548455296232,-0.325317,-0.406677,0.955200,-7.500000,-28.109756,-11.829268
1548455296239,-0.316406,-0.406616,0.956787,-8.536586,-27.378050,-11.524390
1548455296254,-0.309753,-0.395508,0.957947,-9.817074,-26.158537,-11.341464
1548455296262,-0.312134,-0.395691,0.955872,-10.060976,-25.000000,-11.646341
1548455296269,-0.313293,-0.404419,0.954712,-9.756098,-23.780489,-12.439025
1548455296284,-0.311890,-0.405457,0.958984,-8.536586,-22.439024,-12.804878
1548455296292,-0.302856,-0.402710,0.954712,-7.012195,-20.914635,-12.560976
1548455296299,-0.296387,-0.410828,0.961426,-5.975610,-19.085367,-12.682927
1548455296314,-0.291199,-0.410828,0.957153,-5.243903,-18.231709,-12.804878
1548455296322,-0.284729,-0.414856,0.960693,-4.268293,-16.951220,-12.378049
1548455296329,-0.288147,-0.416992,0.966919,-3.536585,-15.609756,-12.012196
1548455296344,-0.287415,-0.410339,0.970032,-3.353659,-14.695123,-11.829268
1548455296352,-0.286987,-0.416077,0.974182,-2.500000,-12.682927,-11.646341
1548455296360,-0.288086,-0.426575,0.972412,-0.792683,-11.280488,-11.341464
1548455296374,-0.285217,-0.427917,0.964661,1.158537,-9.573171,-10.853659
1548455296382,-0.283325,-0.430603,0.957581,2.317073,-7.804878,-10.365854
1548455296389,-0.283081,-0.433655,0.957092,2.439024,-6.524390,-9.939025
1548455296404,-0.279236,-0.436340,0.968384,1.463415,-5.487805,-9.634147
1548455296412,-0.273865,-0.428772,0.967285,0.121951,-4.756098,-9.207317
1548455296419,-0.268555,-0.422119,0.951782,-0.365854,-3.353659,-8.902439
1548455296434,-0.269958,-0.427063,0.941833,0.731707,-1.463415,-9.024390
1548455296442,-0.271729,-0.442810,0.943909,2.865854,-0.426829,-9.207317
1548455296449,-0.266602,-0.447815,0.937317,3.719512,0.000000,-8.658537
1548455296464,-0.262939,-0.441895,0.918091,2.743902,0.731707,-8.048780
1548455296472,-0.266174,-0.442444,0.904297,1.158537,1.524390,-7.987805
1548455296479,-0.270264,-0.451050,0.895264,0.121951,1.463415,-7.926829
1548455296502,-0.266785,-0.453674,0.893005,-0.731707,1.341463,-7.378049
1548455296502,-0.257874,-0.447632,0.892029,-2.621951,1.402439,-6.646342
1548455296509,-0.251953,-0.439270,0.895142,-5.182927,0.487805,-5.975610
1548455296524,-0.250366,-0.428589,0.899170,-5.853659,-0.304878,-5.426829
1548455296532,-0.249390,-0.432373,0.906433,-3.780488,-0.731707,-4.817073
1548455296539,-0.251892,-0.447144,0.905762,0.000000,-1.036585,-4.207317
1548455296554,-0.254822,-0.451782,0.895752,3.963415,-0.792683,-3.536585
1548455296562,-0.260132,-0.453125,0.893372,5.670732,-0.609756,-2.743902
1548455296569,-0.271240,-0.451172,0.908020,4.207317,-1.524390,-2.073171
1548455296584,-0.270813,-0.445740,0.914978,1.280488,-2.439024,-1.341463
1548455296592,-0.266968,-0.437439,0.917114,-0.548781,-2.256098,-0.304878
1548455296599,-0.267273,-0.434875,0.921570,-0.060976,-1.646341,0.365854
1548455296614,-0.268188,-0.434204,0.927002,1.280488,-1.463415,0.731707
1548455296622,-0.265503,-0.435120,0.926208,2.317073,-0.914634,1.219512
1548455296629,-0.262573,-0.430420,0.922913,2.682927,-0.548781,1.707317
1548455296644,-0.263123,-0.428528,0.920837,2.012195,-0.304878,2.134146
1548455296652,-0.263550,-0.424255,0.916992,0.304878,-0.060976,2.012195
1548455296659,-0.268311,-0.422913,0.914490,-1.341463,-0.182927,1.951220
1548455296674,-0.265259,-0.417236,0.917236,-1.768293,0.060976,1.951220
1548455296682,-0.263489,-0.412781,0.917358,-1.585366,0.182927,1.890244
1548455296689,-0.262573,-0.418457,0.911255,-0.975610,0.426829,1.707317
1548455296704,-0.260315,-0.419128,0.910278,0.000000,0.670732,1.463415
1548455296712,-0.262329,-0.415344,0.906067,0.670732,0.670732,1.463415
1548455296719,-0.264771,-0.413452,0.898376,0.304878,0.731707,1.280488
1548455296734,-0.266296,-0.415161,0.902100,-0.487805,0.609756,0.975610
1548455296742,-0.267639,-0.415100,0.908020,-0.975610,0.243902,0.975610
1548455296749,-0.267456,-0.411926,0.905212,-0.853659,0.060976,0.975610
1548455296764,-0.262268,-0.414062,0.902100,-0.304878,0.365854,0.853659
1548455296772,-0.261292,-0.416870,0.903870,0.487805,0.426829,0.670732
1548455296779,-0.263977,-0.418457,0.903381,1.280488,-0.060976,0.670732
1548455296795,-0.262207,-0.422119,0.900146,1.707317,-0.243902,0.792683
1548455296802,-0.260193,-0.424438,0.904663,1.341463,-0.365854,0.670732
1548455296809,-0.268616,-0.414917,0.906799,0.487805,-0.609756,0.670732
1548455296824,-0.268066,-0.415710,0.905396,-0.121951,-0.670732,0.609756
1548455296832,-0.268005,-0.421631,0.900879,0.426829,-0.365854,0.426829
1548455296839,-0.266296,-0.422424,0.906128,1.707317,-0.304878,0.609756
1548455296862,-0.266418,-0.428406,0.910461,2.195122,-0.609756,0.792683
1548455296863,-0.262634,-0.425476,0.907104,1.646341,-1.036585,0.853659
1548455296869,-0.262085,-0.424866,0.910217,0.792683,-0.914634,0.975610
1548455296884,-0.262512,-0.422729,0.917542,0.731707,-1.219512,0.792683
1548455296892,-0.265564,-0.424072,0.909790,1.097561,-1.219512,0.731707
1548455296899,-0.268677,-0.426758,0.909790,1.097561,-0.853659,0.487805
1548455296914,-0.270081,-0.423279,0.914856,1.036585,-1.036585,0.487805
1548455296922,-0.272766,-0.420959,0.911377,0.609756,-0.792683,0.731707
1548455296929,-0.270142,-0.421936,0.913757,0.487805,-0.609756,0.731707
1548455296944,-0.268250,-0.423462,0.916077,0.731707,-0.548781,0.792683
1548455296952,-0.266785,-0.420532,0.911621,0.670732,-0.304878,0.853659
1548455296959,-0.262451,-0.419189,0.907104,0.548781,0.000000,0.853659
1548455296974,-0.263428,-0.421143,0.911316,0.304878,0.060976,0.731707
1548455296982,-0.264526,-0.416992,0.908447,0.121951,-0.182927,0.853659
1548455296989,-0.263367,-0.413696,0.905151,0.060976,-0.182927,1.097561
1548455297004,-0.265625,-0.419983,0.908081,0.365854,-0.060976,0.914634
1548455297012,-0.271240,-0.421936,0.910706,0.853659,-0.304878,0.853659
1548455297019,-0.269836,-0.416626,0.906677,1.097561,-0.365854,1.158537
1548455297035,-0.268860,-0.421814,0.908447,0.792683,-0.243902,1.219512
1548455297049,-0.266846,-0.424988,0.908936,0.548781,-0.304878,0.914634
1548455297057,-0.265442,-0.420227,0.908203,0.731707,-0.426829,0.975610
1548455297064,-0.268311,-0.418945,0.905029,0.731707,-0.243902,0.975610
1548455297072,-0.272217,-0.420898,0.907349,0.609756,-0.487805,0.548781
1548455297080,-0.268738,-0.420166,0.911133,0.487805,-0.731707,0.548781
1548455297094,-0.264343,-0.417480,0.909973,0.548781,-0.609756,0.731707
1548455297102,-0.265442,-0.419800,0.907898,0.731707,-0.609756,0.731707
1548455297109,-0.270386,-0.424011,0.908691,0.548781,-0.609756,0.426829
1548455297124,-0.271057,-0.421265,0.910461,0.304878,-0.731707,0.304878
1548455297132,-0.270813,-0.417236,0.909119,0.182927,-0.853659,0.609756
1548455297139,-0.271179,-0.415405,0.905701,0.243902,-0.670732,0.609756
1548455297154,-0.271912,-0.416077,0.908447,0.182927,-0.670732,0.365854
1548455297162,-0.272095,-0.411682,0.913208,0.182927,-0.853659,0.426829
1548455297169,-0.266296,-0.416016,0.911011,0.487805,-1.036585,0.304878
1548455297184,-0.261414,-0.420715,0.907227,0.975610,-0.853659,0.060976
1548455297192,-0.263245,-0.418701,0.908325,1.219512,-0.731707,0.000000
1548455297207,-0.268616,-0.413208,0.912598,0.731707,-1.036585,-0.060976
1548455297214,-0.269775,-0.419189,0.915100,0.121951,-1.158537,-0.365854
1548455297222,-0.269226,-0.425293,0.915283,0.304878,-0.975610,-0.548781
1548455297229,-0.266479,-0.420044,0.906677,0.792683,-0.853659,-0.121951
1548455297244,-0.269104,-0.420959,0.900818,0.914634,-0.487805,0.000000
1548455297252,-0.273560,-0.421021,0.906189,0.548781,-0.609756,-0.243902
1548455297259,-0.270630,-0.416687,0.908508,0.121951,-0.975610,0.121951
1548455297274,-0.265320,-0.421753,0.908875,-0.243902,-0.914634,0.365854
1548455297282,-0.262268,-0.423157,0.908386,0.000000,-0.914634,0.060976
1548455297289,-0.263611,-0.420349,0.906494,0.792683,-0.975610,0.243902
1548455297304,-0.266479,-0.425354,0.906860,1.097561,-1.036585,0.365854
1548455297312,-0.265442,-0.426758,0.908752,0.853659,-1.219512,0.365854
1548455297319,-0.264526,-0.421448,0.908386,0.243902,-1.219512,0.670732
1548455297334,-0.266724,-0.416626,0.907715,-0.548781,-1.158537,0.792683
1548455297349,-0.269653,-0.415771,0.910095,-0.731707,-1.158537,0.548781
1548455297350,-0.269409,-0.417603,0.911194,-0.121951,-1.219512,0.487805
1548455297364,-0.267944,-0.422607,0.910522,0.548781,-0.975610,0.670732
1548455297372,-0.269226,-0.421143,0.911011,0.731707,-0.792683,0.670732
1548455297379,-0.267700,-0.421387,0.915710,0.609756,-0.914634,0.792683
1548455297394,-0.266357,-0.420471,0.914368,0.487805,-0.853659,0.975610
1548455297402,-0.269592,-0.418640,0.908081,0.426829,-0.548781,1.036585
1548455297409,-0.272583,-0.416077,0.909058,0.365854,-0.609756,1.158537
1548455297424,-0.272644,-0.419617,0.914246,0.121951,-0.609756,1.158537
1548455297432,-0.268250,-0.419189,0.913818,-0.182927,-0.670732,0.975610
1548455297439,-0.265137,-0.411438,0.913025,-0.121951,-0.487805,1.036585
1548455297454,-0.266418,-0.416870,0.913574,0.426829,-0.365854,0.914634
1548455297469,-0.266663,-0.421265,0.911194,0.975610,-0.243902,0.670732
1548455297470,-0.263184,-0.421509,0.910400,1.036585,-0.060976,0.792683
1548455297484,-0.265259,-0.416077,0.910522,0.548781,-0.182927,0.914634
1548455297492,-0.267944,-0.415405,0.913086,0.060976,-0.182927,0.853659
1548455297499,-0.273193,-0.421143,0.915344,0.182927,-0.121951,0.853659
1548455297514,-0.274597,-0.418518,0.908508,0.365854,0.121951,0.792683
1548455297522,-0.274719,-0.413513,0.903870,0.121951,0.609756,0.731707
1548455297529,-0.270874,-0.418518,0.907532,0.304878,0.548781,0.792683
1548455297545,-0.271545,-0.422119,0.910400,0.731707,0.487805,0.731707
1548455297552,-0.267883,-0.416504,0.910522,0.548781,0.304878,0.914634
1548455297559,-0.263977,-0.420593,0.911987,0.609756,0.670732,1.036585
1548455297575,-0.264526,-0.423462,0.921631,1.036585,0.670732,0.914634
1548455297582,-0.266479,-0.419556,0.916504,1.158537,0.487805,1.097561
1548455297589,-0.270874,-0.421997,0.914001,0.975610,0.853659,1.158537
1548455297604,-0.276611,-0.424316,0.917297,1.341463,0.853659,1.036585
1548455297612,-0.280273,-0.425232,0.914429,1.646341,0.914634,1.219512
1548455297619,-0.280640,-0.427368,0.919067,1.219512,1.280488,1.097561
1548455297634,-0.277405,-0.426147,0.922485,0.670732,1.280488,1.219512
1548455297642,-0.274536,-0.425781,0.923645,0.548781,1.768293,1.707317
1548455297649,-0.274963,-0.426147,0.914795,1.036585,2.195122,1.829268
1548455297664,-0.277222,-0.427856,0.916016,1.524390,2.500000,1.951220
1548455297672,-0.276062,-0.427246,0.921570,1.524390,2.560976,2.256098
1548455297679,-0.275513,-0.420837,0.916077,1.402439,2.682927,2.682927
1548455297694,-0.276245,-0.420288,0.910034,1.158537,3.231707,3.048780
1548455297702,-0.277954,-0.419678,0.914856,0.914634,3.353659,2.987805
1548455297709,-0.278931,-0.423950,0.919250,0.731707,3.353659,2.865854
1548455297724,-0.279114,-0.420532,0.913086,0.731707,3.719512,3.109756
1548455297732,-0.280823,-0.420044,0.914429,1.036585,4.085366,3.353659
1548455297739,-0.283264,-0.421631,0.910889,1.097561,3.963415,3.475610
1548455297754,-0.283020,-0.417053,0.908875,1.097561,4.024390,3.780488
1548455297762,-0.286011,-0.418335,0.908508,1.158537,4.085366,4.146341
1548455297770,-0.286499,-0.419922,0.907043,1.158537,4.024390,4.085366
1548455297784,-0.285583,-0.415955,0.908325,0.853659,4.024390,4.146341
1548455297792,-0.286072,-0.414062,0.905212,0.670732,4.024390,4.268293
1548455297799,-0.283325,-0.408691,0.901917,0.792683,4.146341,4.146341
1548455297814,-0.284668,-0.405701,0.900757,0.731707,3.963415,3.963415
1548455297822,-0.287292,-0.406250,0.901184,0.609756,3.658537,3.780488
1548455297829,-0.286560,-0.404541,0.900330,0.243902,3.475610,3.414634
1548455297844,-0.287598,-0.399536,0.893066,0.182927,3.414634,3.170732
1548455297852,-0.289734,-0.401306,0.893433,0.304878,3.414634,2.926829
1548455297859,-0.294617,-0.405579,0.896606,0.609756,3.109756,2.560976
1548455297882,-0.292236,-0.400940,0.893005,0.487805,2.682927,2.256098
1548455297882,-0.291321,-0.399231,0.887512,0.182927,2.500000,2.195122
1548455297889,-0.293152,-0.401794,0.895386,0.487805,2.134146,2.073171
1548455297905,-0.295105,-0.405762,0.903076,0.975610,1.585366,1.890244
1548455297912,-0.288513,-0.404358,0.899414,0.609756,1.280488,1.768293
1548455297919,-0.290161,-0.399109,0.893433,0.426829,1.341463,1.524390
1548455297934,-0.296082,-0.403931,0.898743,0.670732,1.097561,1.158537
1548455297942,-0.296875,-0.410156,0.910278,0.853659,0.670732,0.853659
1548455297949,-0.295349,-0.403076,0.905273,0.487805,0.365854,0.853659
1548455297964,-0.295227,-0.404358,0.899719,-0.304878,0.792683,0.609756
1548455297972,-0.300476,-0.410461,0.898315,-0.182927,0.792683,0.121951
1548455297979,-0.299316,-0.412231,0.909058,0.731707,0.548781,0.182927
1548455297994,-0.298279,-0.412720,0.917419,1.097561,0.548781,0.548781
1548455298009,-0.294006,-0.413269,0.909668,0.609756,0.548781,0.426829
1548455298010,-0.295227,-0.411133,0.907959,0.548781,0.914634,0.487805
1548455298024,-0.298767,-0.411926,0.911133,0.670732,1.036585,0.487805
1548455298032,-0.300537,-0.411865,0.911682,0.975610,0.914634,0.426829
1548455298039,-0.300781,-0.414612,0.907227,1.402439,1.036585,0.365854
1548455298054,-0.299927,-0.414856,0.903564,1.951220,1.402439,0.670732
1548455298062,-0.303345,-0.419128,0.909546,1.585366,1.646341,0.670732
1548455298069,-0.299133,-0.417969,0.906921,0.304878,1.280488,0.609756
1548455298084,-0.295837,-0.413818,0.906006,-0.243902,1.768293,0.914634
1548455298092,-0.297913,-0.413513,0.903137,0.121951,1.951220,0.853659
1548455298099,-0.296326,-0.414246,0.898987,0.670732,1.829268,0.792683
1548455298114,-0.299438,-0.416016,0.898560,0.792683,1.951220,1.158537
1548455298122,-0.302063,-0.413757,0.900269,0.243902,1.524390,1.219512
1548455298129,-0.300476,-0.411926,0.901917,-0.121951,1.219512,1.463415
1548455298144,-0.301208,-0.413635,0.905212,-0.121951,1.341463,1.646341
1548455298152,-0.301758,-0.416382,0.907471,0.121951,1.219512,1.707317
1548455298159,-0.300598,-0.412720,0.907837,0.548781,1.097561,1.768293
1548455298174,-0.300659,-0.415161,0.908691,1.097561,1.402439,1.890244
1548455298189,-0.306458,-0.418091,0.909973,1.585366,1.585366,1.951220
1548455298190,-0.309387,-0.420837,0.913269,2.073171,1.646341,2.134146
1548455298204,-0.311340,-0.422913,0.916382,2.195122,2.012195,2.439024
1548455298212,-0.313049,-0.420532,0.918274,1.890244,2.195122,2.804878
1548455298219,-0.311646,-0.420227,0.926270,1.341463,2.682927,3.170732
1548455298234,-0.311707,-0.417236,0.929321,0.792683,3.170732,3.292683
1548455298242,-0.308472,-0.417664,0.927368,1.280488,3.597561,3.719512
1548455298249,-0.309082,-0.421814,0.938599,2.073171,4.268293,4.268293
1548455298264,-0.311951,-0.423950,0.942932,2.682927,4.756098,4.451220
1548455298272,-0.313171,-0.422241,0.943420,3.292683,5.609756,4.878049
1548455298279,-0.320190,-0.425415,0.945190,3.963415,6.951220,5.365854
1548455298294,-0.322998,-0.428284,0.939880,4.756098,7.865854,5.792683
1548455298302,-0.330383,-0.420776,0.941406,5.304878,9.146341,6.402439
1548455298309,-0.339661,-0.434753,0.946960,6.036585,9.573171,7.073171
1548455298324,-0.333374,-0.430847,0.938782,5.792683,10.792684,7.682927
1548455298332,-0.329407,-0.424072,0.945801,4.329268,12.134147,8.536586
1548455298339,-0.331421,-0.424805,0.951172,2.804878,12.378049,8.902439
1548455298354,-0.327637,-0.419250,0.940430,2.560976,13.353659,9.146341
1548455298362,-0.331909,-0.421631,0.932068,3.719512,15.182927,9.695122
1548455298369,-0.341370,-0.427063,0.923767,4.329268,15.975610,9.878049
1548455298384,-0.345337,-0.425171,0.923706,3.292683,16.463415,10.182927
1548455298392,-0.350708,-0.418457,0.928101,0.914634,16.829269,10.792684
1548455298407,-0.352295,-0.409424,0.936768,-1.463415,17.195122,11.280488
1548455298414,-0.355225,-0.404968,0.940308,-2.134146,18.170732,11.646341
1548455298422,-0.356750,-0.402527,0.935120,-0.121951,19.329269,12.317074
1548455298429,-0.359680,-0.403076,0.924683,3.658537,21.158537,13.109756
1548455298445,-0.368103,-0.407227,0.911682,6.768293,22.317074,13.719513
1548455298459,-0.372559,-0.404236,0.904358,7.500000,22.865854,14.268293
1548455298460,-0.375000,-0.407715,0.905701,5.853659,23.475611,14.878049
1548455298475,-0.378052,-0.399719,0.906189,2.560976,23.536587,15.182927
1548455298482,-0.378662,-0.387146,0.907593,-0.670732,23.963415,15.487805
1548455298504,-0.382568,-0.382507,0.910400,-2.134146,24.573172,15.670732
1548455298505,-0.385925,-0.376221,0.905151,-1.219512,25.121952,15.792684
1548455298512,-0.394165,-0.380127,0.903748,1.097561,26.158537,16.158537
1548455298519,-0.403442,-0.378601,0.893982,3.048780,26.646341,16.158537
1548455298535,-0.406433,-0.376953,0.886353,3.902439,27.012196,16.219513
1548455298542,-0.413269,-0.382385,0.892456,3.597561,27.560976,16.280489
1548455298549,-0.419250,-0.380615,0.888550,2.378049,27.073172,16.280489
1548455298565,-0.421387,-0.370422,0.883240,1.219512,27.804878,16.280489
1548455298572,-0.426453,-0.367554,0.884033,0.792683,28.475611,16.341463
1548455298579,-0.431641,-0.367310,0.877747,1.707317,28.658537,16.402439
1548455298594,-0.438660,-0.364258,0.871643,3.109756,29.573172,16.402439
1548455298602,-0.444641,-0.362244,0.863525,4.024390,29.878050,16.524391
1548455298609,-0.449097,-0.362915,0.864197,4.268293,30.060976,16.463415
1548455298624,-0.455811,-0.364258,0.859375,4.329268,30.304878,16.280489
1548455298632,-0.458008,-0.356079,0.848694,4.268293,30.182928,16.280489
1548455298640,-0.461426,-0.354431,0.852478,3.658537,30.670732,15.853659
1548455298654,-0.468750,-0.358093,0.864380,3.109756,30.121952,15.365854
1548455298662,-0.469238,-0.344788,0.856873,3.170732,29.573172,15.365854
1548455298669,-0.473206,-0.340637,0.852905,4.146341,30.731709,15.426829
1548455298684,-0.485901,-0.343079,0.852051,5.792683,30.731709,15.000000
1548455298692,-0.490601,-0.342102,0.842896,7.682927,30.243902,14.817074
1548455298699,-0.497131,-0.340271,0.834412,8.780488,30.792685,14.817074
1548455298714,-0.501160,-0.339417,0.830627,8.414635,30.731709,14.573171
1548455298722,-0.506348,-0.339233,0.833984,7.560976,30.487806,14.207317
1548455298729,-0.509583,-0.336060,0.831848,6.951220,30.121952,14.085366
1548455298744,-0.513733,-0.332947,0.829590,6.402439,30.121952,13.902439
1548455298752,-0.521423,-0.329712,0.827332,5.792683,30.426830,13.475610
1548455298759,-0.526611,-0.321350,0.823975,4.939024,30.060976,13.170732
1548455298774,-0.528992,-0.323059,0.830627,4.878049,30.182928,12.987805
1548455298782,-0.533325,-0.320129,0.839661,5.914634,29.939026,12.865854
1548455298789,-0.536682,-0.313293,0.828430,7.926829,29.817074,12.926829
1548455298804,-0.543884,-0.321045,0.816040,10.670732,31.036587,12.926829
1548455298812,-0.557251,-0.325439,0.818970,12.256098,31.219513,12.621951
1548455298819,-0.562317,-0.322021,0.810181,11.829268,30.731709,12.500000
1548455298835,-0.564392,-0.312073,0.808960,9.817074,30.792685,12.560976
1548455298842,-0.572327,-0.310059,0.813721,7.560976,30.548780,12.134147
1548455298849,-0.575134,-0.305176,0.809631,6.280488,30.243902,11.585366
1548455298864,-0.575439,-0.299500,0.804321,6.646342,30.731709,11.341464
1548455298872,-0.583496,-0.302734,0.809448,8.109756,31.158537,11.219512
1548455298879,-0.591553,-0.301208,0.795654,9.756098,30.792685,10.914635
1548455298894,-0.589233,-0.296692,0.779297,10.609756,31.463415,10.731708
1548455298902,-0.597534,-0.302002,0.790039,11.036586,32.134148,10.426829
1548455298909,-0.608032,-0.302795,0.785217,10.487805,30.731709,10.182927
1548455298924,-0.604614,-0.291748,0.779907,9.329268,30.670732,10.182927
1548455298932,-0.609985,-0.286865,0.787842,8.597561,31.219513,10.060976
1548455298939,-0.616882,-0.285156,0.772217,8.414635,30.243902,9.695122
1548455298954,-0.617859,-0.274780,0.746704,9.024390,30.975611,9.451220
1548455298962,-0.625610,-0.288025,0.745789,10.243902,31.646341,9.146341
1548455298969,-0.631592,-0.296448,0.743042,10.304878,30.000000,8.597561
1548455298985,-0.632263,-0.289307,0.753113,9.329268,29.390245,8.719512
1548455298992,-0.641663,-0.284241,0.763794,7.560976,28.780489,8.841464
1548455298999,-0.641235,-0.274780,0.745667,6.402439,27.500000,8.536586
1548455299014,-0.638428,-0.275269,0.736938,7.317073,28.414635,8.353659
1548455299022,-0.647217,-0.280151,0.736023,9.268292,28.170732,8.475610
1548455299029,-0.650574,-0.273560,0.726624,10.609756,26.829269,8.597561
1548455299044,-0.654541,-0.269226,0.724915,10.304878,26.829269,8.475610
1548455299052,-0.665100,-0.278198,0.740906,9.207317,26.097561,8.109756
1548455299059,-0.669983,-0.270569,0.735901,8.475610,24.756098,7.560976
1548455299074,-0.669067,-0.264832,0.726990,8.780488,25.182928,7.560976
1548455299082,-0.676392,-0.270386,0.723938,9.512196,25.426830,7.439024
1548455299089,-0.678833,-0.265259,0.710754,9.939025,24.451220,7.134147
1548455299104,-0.682678,-0.261780,0.713684,9.817074,24.512196,7.012195
1548455299112,-0.686890,-0.261230,0.708801,8.780488,23.475611,7.012195
1548455299119,-0.683899,-0.257019,0.704224,7.317073,22.682928,6.707317
1548455299134,-0.690918,-0.256836,0.706848,6.463415,22.621952,6.524390
1548455299142,-0.693787,-0.253418,0.705444,5.853659,21.341463,6.158537
1548455299149,-0.695557,-0.250061,0.713684,5.609756,20.914635,5.731708
1548455299164,-0.703491,-0.246948,0.712646,6.158537,20.609756,5.548780
1548455299172,-0.703430,-0.240234,0.701416,6.951220,20.182928,5.548780
1548455299179,-0.707336,-0.243164,0.700500,8.170732,20.609756,5.304878
1548455299194,-0.711548,-0.246033,0.695923,9.085366,19.817074,5.121951
1548455299202,-0.709167,-0.244141,0.684814,9.024390,19.451220,5.243903
1548455299209,-0.714355,-0.245544,0.690308,7.987805,19.451220,5.182927
1548455299225,-0.717224,-0.243713,0.689941,6.158537,18.231709,4.634146
1548455299239,-0.712891,-0.239502,0.691345,5.000000,17.804878,4.451220
1548455299240,-0.717712,-0.239014,0.695068,4.878049,17.804878,4.390244
1548455299254,-0.722900,-0.238037,0.695862,5.060976,16.951220,4.451220
1548455299262,-0.727234,-0.237671,0.701416,5.792683,16.829269,4.451220
1548455299269,-0.734131,-0.232666,0.694214,7.073171,16.524391,4.512195
1548455299284,-0.728943,-0.231079,0.676025,8.170732,16.646341,4.573171
1548455299292,-0.735718,-0.237366,0.676758,9.329268,17.073172,4.634146
1548455299307,-0.741150,-0.237732,0.669312,9.085366,15.853659,4.573171
1548455299314,-0.738159,-0.236572,0.667175,7.317073,15.609756,4.329268
1548455299322,-0.744995,-0.238464,0.680176,4.817073,15.121951,3.902439
1548455299329,-0.745911,-0.231018,0.675842,2.621951,13.841464,3.536585
1548455299344,-0.744080,-0.226379,0.677429,1.829268,14.207317,3.292683
1548455299352,-0.752625,-0.236450,0.683289,2.682927,13.841464,3.109756
1548455299359,-0.749390,-0.228333,0.676331,4.451220,13.292684,3.109756
1548455299374,-0.745605,-0.225891,0.668701,6.402439,14.085366,3.475610
1548455299382,-0.750366,-0.236023,0.666626,7.682927,13.780488,3.780488
1548455299389,-0.754578,-0.237244,0.659912,8.048780,13.109756,3.658537
1548455299404,-0.758301,-0.233276,0.657837,7.195122,13.353659,3.658537
1548455299412,-0.764099,-0.232178,0.663513,5.487805,12.743903,3.536585
1548455299419,-0.762634,-0.227478,0.662964,3.658537,11.768293,3.353659
1548455299434,-0.763367,-0.226440,0.656860,2.621951,11.951220,3.292683
1548455299442,-0.765259,-0.225708,0.655396,2.317073,11.585366,3.231707
1548455299449,-0.764404,-0.223206,0.652466,2.439024,11.219512,3.231707
1548455299464,-0.763611,-0.224243,0.650208,2.621951,10.975610,3.353659
1548455299472,-0.763672,-0.222656,0.647583,2.134146,10.792684,3.353659
1548455299479,-0.767212,-0.220032,0.645630,1.463415,10.243902,3.231707
1548455299494,-0.769470,-0.217896,0.642700,1.341463,9.756098,3.170732
1548455299502,-0.767822,-0.219238,0.634033,1.890244,9.451220,3.048780
1548455299509,-0.769531,-0.221680,0.628845,2.378049,9.207317,2.865854
1548455299524,-0.771729,-0.222717,0.628540,2.012195,8.536586,2.865854
1548455299532,-0.771851,-0.219849,0.636108,0.000000,7.682927,2.682927
1548455299539,-0.772949,-0.210388,0.639954,-2.621951,6.646342,2.317073
1548455299554,-0.770691,-0.204651,0.632690,-4.268293,5.792683,2.134146
1548455299562,-0.770813,-0.203918,0.629028,-3.475610,5.853659,1.951220
1548455299569,-0.777283,-0.206238,0.634827,-1.097561,5.365854,1.951220
1548455299584,-0.777893,-0.209351,0.632812,1.341463,4.573171,1.829268
1548455299592,-0.775818,-0.209351,0.630737,2.560976,4.329268,1.829268
1548455299599,-0.776062,-0.213318,0.635376,2.865854,3.963415,1.829268
1548455299614,-0.777893,-0.210571,0.639221,2.682927,3.109756,1.646341
1548455299622,-0.780396,-0.214661,0.645691,2.378049,2.804878,1.585366
1548455299629,-0.783508,-0.213501,0.638184,2.195122,2.439024,1.402439
1548455299644,-0.780457,-0.210754,0.630005,2.134146,2.317073,1.341463
1548455299652,-0.784973,-0.215210,0.634399,1.890244,2.439024,1.219512
1548455299659,-0.786133,-0.219055,0.635620,0.975610,1.341463,0.914634
1548455299674,-0.781250,-0.213684,0.642883,0.000000,1.036585,0.853659
1548455299682,-0.784241,-0.211121,0.665588,-0.304878,0.792683,0.853659
1548455299689,-0.785156,-0.207336,0.669678,0.548781,0.121951,0.731707
1548455299704,-0.780151,-0.211548,0.659485,2.682927,0.975610,0.792683
1548455299712,-0.783936,-0.223816,0.651367,5.548780,2.256098,0.670732
1548455299719,-0.788452,-0.225708,0.644226,7.073171,2.012195,1.097561
1548455299734,-0.790405,-0.224243,0.636169,5.792683,2.195122,1.280488
1548455299742,-0.792236,-0.225891,0.645264,2.621951,2.134146,0.914634
1548455299749,-0.791870,-0.221558,0.652771,-0.914634,1.341463,0.853659
1548455299764,-0.787170,-0.212708,0.650146,-2.926829,1.524390,1.036585
1548455299772,-0.784973,-0.207397,0.648254,-2.621951,1.829268,1.036585
1548455299779,-0.782471,-0.212830,0.649780,-0.426829,2.073171,0.914634
1548455299794,-0.783936,-0.216370,0.642761,2.134146,2.012195,1.036585
1548455299802,-0.779236,-0.218628,0.629700,3.109756,2.134146,1.402439
1548455299809,-0.783813,-0.219421,0.637268,2.439024,2.317073,1.402439
1548455299824,-0.793274,-0.218872,0.649536,1.097561,1.158537,1.036585
1548455299832,-0.791565,-0.213684,0.648071,-0.060976,0.670732,0.792683
1548455299839,-0.789856,-0.213440,0.648315,0.182927,1.524390,0.914634
1548455299854,-0.789246,-0.213745,0.647156,1.158537,1.646341,1.219512
1548455299862,-0.786743,-0.213013,0.638733,1.890244,1.768293,1.097561
1548455299869,-0.789124,-0.217712,0.635864,1.768293,2.012195,1.280488
1548455299884,-0.790222,-0.218689,0.635864,0.853659,1.524390,1.463415
1548455299892,-0.789307,-0.211975,0.634521,-0.609756,1.219512,1.341463
1548455299899,-0.790161,-0.208313,0.639465,-1.524390,1.097561,1.158537
1548455299914,-0.792419,-0.208069,0.639282,-1.402439,0.792683,0.914634
1548455299922,-0.790710,-0.203186,0.636108,-0.914634,0.670732,0.853659
1548455299929,-0.786743,-0.202698,0.630493,-0.365854,0.609756,0.853659
1548455299944,-0.786499,-0.207703,0.631226,0.487805,0.609756,0.670732
1548455299952,-0.790466,-0.207092,0.632751,0.731707,0.060976,0.548781
1548455299959,-0.784546,-0.206604,0.624939,0.365854,-0.304878,0.670732
1548455299974,-0.782776,-0.207397,0.629700,-0.304878,-0.182927,0.426829
1548455299982,-0.786438,-0.205750,0.642151,-0.731707,-0.792683,0.121951
1548455299989,-0.786743,-0.204590,0.652222,-0.792683,-1.341463,0.060976
1548455300004,-0.789734,-0.202759,0.650024,0.121951,-0.975610,0.060976
1548455300012,-0.790405,-0.204956,0.641602,1.341463,-0.670732,0.182927
1548455300019,-0.791931,-0.210571,0.635742,2.743902,-0.121951,0.182927
1548455300034,-0.796082,-0.216064,0.633057,3.414634,-0.304878,0.304878
1548455300042,-0.796631,-0.216125,0.634033,2.317073,-0.609756,0.243902
1548455300049,-0.798096,-0.214478,0.634827,0.182927,-0.731707,0.121951
1548455300072,-0.795288,-0.207458,0.638550,-1.768293,-1.158537,-0.182927
1548455300072,-0.788574,-0.208374,0.638855,-2.439024,-1.158537,-0.487805
1548455300079,-0.784424,-0.211182,0.649963,-1.341463,-1.280488,-0.853659
1548455300102,-0.789429,-0.213013,0.652405,1.036585,-1.463415,-0.792683
1548455300102,-0.790039,-0.218079,0.643555,2.926829,-1.158537,-0.609756
1548455300109,-0.791687,-0.223816,0.639343,3.597561,-0.609756,-0.975610
1548455300124,-0.793274,-0.222351,0.636597,2.865854,-0.975610,-0.853659
1548455300132,-0.794861,-0.216003,0.635193,1.097561,-1.341463,-0.609756
1548455300139,-0.797241,-0.213135,0.635437,-0.487805,-1.402439,-0.609756
1548455300154,-0.798218,-0.215271,0.640747,-1.036585,-1.402439,-0.731707
1548455300162,-0.796509,-0.215515,0.643066,-0.853659,-1.463415,-0.609756
1548455300169,-0.792297,-0.215210,0.643738,-0.609756,-1.341463,-0.304878
1548455300184,-0.787415,-0.207703,0.645386,-0.731707,-1.524390,-0.365854
1548455300192,-0.786682,-0.211670,0.649902,-0.548781,-1.524390,-0.426829
1548455300199,-0.790161,-0.215454,0.652344,0.365854,-1.829268,-0.426829
1548455300214,-0.787170,-0.211426,0.640808,1.280488,-1.646341,-0.426829
1548455300229,-0.787842,-0.211914,0.636780,1.768293,-0.914634,-0.487805
1548455300230,-0.791809,-0.216064,0.637817,1.829268,-1.158537,-0.670732
1548455300244,-0.790344,-0.215576,0.635559,0.731707,-1.402439,-0.853659
1548455300252,-0.793579,-0.210632,0.639221,-0.792683,-1.219512,-0.853659
1548455300259,-0.796814,-0.211548,0.647949,-1.646341,-1.585366,-0.914634
1548455300274,-0.790222,-0.210022,0.638062,-1.646341,-1.585366,-0.975610
1548455300282,-0.782959,-0.207825,0.631958,-1.097561,-1.036585,-0.914634
1548455300289,-0.783875,-0.208374,0.640320,-0.426829,-1.219512,-0.975610
1548455300304,-0.784241,-0.209229,0.642822,-0.426829,-2.256098,-0.975610
1548455300312,-0.784607,-0.208984,0.634583,-0.304878,-2.378049,-0.914634
1548455300319,-0.786865,-0.208984,0.631775,0.365854,-2.073171,-0.914634
1548455300334,-0.789551,-0.214294,0.631531,1.341463,-2.378049,-1.036585
1548455300342,-0.786072,-0.217957,0.626587,1.402439,-2.987805,-1.036585
1548455300350,-0.782776,-0.216736,0.618713,0.609756,-3.048780,-1.097561
1548455300364,-0.782043,-0.215271,0.622375,-1.097561,-3.475610,-1.280488
1548455300372,-0.783386,-0.220825,0.637146,-2.743902,-4.207317,-1.768293
1548455300379,-0.781433,-0.218262,0.644287,-4.329268,-5.000000,-1.951220
1548455300394,-0.775574,-0.208008,0.643433,-6.280488,-4.817073,-2.195122
1548455300402,-0.778748,-0.203064,0.641541,-6.341464,-4.756098,-2.256098
1548455300409,-0.780212,-0.209351,0.641052,-3.353659,-5.243903,-2.378049
1548455300424,-0.782959,-0.219116,0.641296,0.731707,-4.939024,-2.256098
1548455300432,-0.784363,-0.228210,0.639954,3.109756,-5.060976,-1.829268
1548455300439,-0.783081,-0.229980,0.645874,2.134146,-5.243903,-1.768293
1548455300454,-0.783081,-0.222961,0.649414,-0.792683,-5.609756,-1.951220
1548455300462,-0.780884,-0.217529,0.651001,-2.560976,-5.975610,-2.012195
1548455300469,-0.779907,-0.220947,0.646057,-2.256098,-5.792683,-2.012195
1548455300484,-0.780212,-0.228577,0.648315,-0.914634,-5.609756,-1.951220
1548455300492,-0.780762,-0.231384,0.653748,-0.365854,-5.731708,-1.890244
1548455300499,-0.778748,-0.223450,0.651428,-1.219512,-5.975610,-1.890244
1548455300514,-0.775757,-0.221680,0.652771,-1.707317,-5.914634,-1.951220
1548455300522,-0.776794,-0.229614,0.663635,-0.914634,-5.731708,-2.195122
1548455300529,-0.779114,-0.225647,0.665833,0.304878,-5.975610,-1.951220
1548455300544,-0.777527,-0.229797,0.665100,0.792683,-5.243903,-1.951220
1548455300552,-0.778931,-0.234802,0.665222,0.853659,-4.878049,-2.012195
1548455300559,-0.776672,-0.234497,0.663940,0.792683,-5.060976,-1.768293
1548455300574,-0.777222,-0.231506,0.663269,0.060976,-4.573171,-1.524390
1548455300582,-0.775879,-0.230408,0.657898,-1.036585,-4.634146,-1.524390
1548455300589,-0.771973,-0.231323,0.658081,-1.524390,-4.329268,-1.524390
1548455300604,-0.774536,-0.230225,0.665649,-1.219512,-4.329268,-1.280488
1548455300612,-0.773254,-0.232361,0.661560,-0.975610,-4.390244,-1.158537
1548455300619,-0.772400,-0.233276,0.664246,-0.548781,-3.963415,-1.158537
1548455300634,-0.771301,-0.231201,0.662476,0.060976,-4.146341,-0.853659
1548455300642,-0.769043,-0.229492,0.654358,0.121951,-3.902439,-0.731707
1548455300649,-0.771179,-0.233765,0.657471,-0.121951,-3.719512,-0.853659
1548455300664,-0.773621,-0.236633,0.668274,-0.487805,-4.146341,-0.914634
1548455300672,-0.774048,-0.229370,0.665039,-1.158537,-4.451220,-0.853659
1548455300679,-0.769775,-0.227722,0.663574,-1.524390,-3.902439,-0.914634
1548455300694,-0.772949,-0.228882,0.660156,-1.280488,-3.841464,-0.914634
1548455300702,-0.769958,-0.230469,0.659241,-0.670732,-4.085366,-1.036585
1548455300709,-0.770325,-0.231934,0.664917,-0.609756,-3.902439,-0.914634
1548455300724,-0.769409,-0.231201,0.664856,-0.975610,-4.146341,-0.731707
1548455300732,-0.765015,-0.228271,0.659729,-1.219512,-3.780488,-0.853659
1548455300739,-0.761536,-0.231934,0.659119,-1.280488,-3.597561,-0.792683
1548455300754,-0.760681,-0.230896,0.662964,-1.219512,-3.841464,-0.792683
1548455300762,-0.762939,-0.228577,0.668396,-1.402439,-3.963415,-0.670732
1548455300769,-0.763184,-0.224182,0.663818,-1.829268,-4.329268,-0.548781
1548455300784,-0.760620,-0.225403,0.656128,-1.585366,-3.963415,-0.731707
1548455300792,-0.766418,-0.229736,0.654053,-0.914634,-3.902439,-0.914634
1548455300799,-0.768005,-0.234436,0.665161,-0.731707,-4.451220,-1.097561
1548455300814,-0.766907,-0.230469,0.670593,-1.402439,-4.878049,-1.036585
1548455300822,-0.762939,-0.225708,0.663025,-2.500000,-5.304878,-1.036585
1548455300829,-0.762146,-0.228516,0.657043,-2.317073,-4.817073,-1.280488
1548455300844,-0.761719,-0.234131,0.656372,-1.158537,-4.878049,-1.463415
1548455300852,-0.758728,-0.233582,0.654724,-0.609756,-5.182927,-1.646341
1548455300859,-0.759460,-0.242554,0.656799,-1.585366,-5.304878,-1.829268
1548455300874,-0.758850,-0.241699,0.656311,-3.902439,-5.853659,-2.073171
1548455300882,-0.751221,-0.237854,0.651794,-6.768293,-6.402439,-2.378049
1548455300889,-0.750854,-0.233887,0.648560,-8.536586,-6.585366,-2.682927
1548455300904,-0.753479,-0.235657,0.645386,-8.231708,-7.256098,-2.865854
1548455300912,-0.752380,-0.241455,0.645691,-7.134147,-7.743903,-2.926829
1548455300919,-0.751343,-0.243286,0.644897,-6.280488,-8.109756,-2.804878
1548455300934,-0.747681,-0.243774,0.644226,-6.097561,-9.207317,-2.682927
1548455300942,-0.747925,-0.237549,0.642273,-6.036585,-10.060976,-2.804878
1548455300949,-0.745300,-0.241333,0.641785,-5.731708,-10.731708,-2.926829
1548455300964,-0.744385,-0.246826,0.639160,-5.731708,-11.646341,-3.414634
1548455300979,-0.741882,-0.245239,0.653748,-6.402439,-12.926829,-3.719512
1548455300980,-0.741394,-0.240601,0.663391,-7.682927,-14.085366,-3.902439
1548455300994,-0.734863,-0.238831,0.657104,-8.475610,-14.939025,-4.268293
1548455301002,-0.731567,-0.242065,0.650940,-7.378049,-14.817074,-4.573171
1548455301009,-0.730408,-0.248474,0.650818,-5.609756,-15.182927,-4.756098
1548455301024,-0.727417,-0.253418,0.660889,-4.939024,-16.158537,-4.939024
1548455301032,-0.728455,-0.254822,0.671021,-5.914634,-17.256098,-5.182927
1548455301039,-0.722839,-0.248169,0.673706,-7.256098,-18.231709,-5.304878
1548455301054,-0.722046,-0.253540,0.706177,-7.317073,-18.292683,-5.548780
1548455301062,-0.731445,-0.256897,0.721375,-5.792683,-19.451220,-5.609756
1548455301069,-0.724121,-0.247681,0.699707,-3.231707,-19.268293,-5.182927
1548455301084,-0.721741,-0.253723,0.688232,-0.304878,-17.012196,-4.817073
1548455301092,-0.724304,-0.268616,0.684998,1.585366,-17.378050,-4.756098
1548455301099,-0.719849,-0.277893,0.674561,1.097561,-17.926830,-4.634146
1548455301115,-0.713989,-0.276001,0.659912,-2.804878,-17.804878,-4.573171
1548455301122,-0.707214,-0.267151,0.647705,-8.841464,-18.841463,-5.121951
1548455301129,-0.701050,-0.269897,0.650330,-14.390244,-20.426830,-6.097561
1548455301144,-0.689026,-0.276001,0.691406,-17.560976,-21.890244,-6.951220
1548455301159,-0.688599,-0.258667,0.707825,-18.780489,-24.024391,-7.256098
1548455301160,-0.680359,-0.241638,0.693115,-17.256098,-25.060976,-7.195122
1548455301174,-0.680908,-0.254822,0.680786,-11.585366,-23.841463,-7.987805
1548455301182,-0.682983,-0.281616,0.670166,-4.756098,-24.329269,-8.475610
1548455301189,-0.678406,-0.295593,0.657166,-1.402439,-25.487806,-8.292683
1548455301204,-0.674194,-0.291443,0.664307,-3.597561,-26.890245,-7.987805
1548455301212,-0.669006,-0.292603,0.694336,-9.329268,-29.329269,-8.597561
1548455301219,-0.665649,-0.281921,0.707336,-14.329268,-32.012196,-9.329268
1548455301234,-0.658875,-0.276123,0.720642,-15.914635,-32.500000,-9.512196
1548455301242,-0.659363,-0.285156,0.733765,-13.353659,-32.317074,-9.878049
1548455301249,-0.653503,-0.282593,0.736389,-9.451220,-32.804878,-10.182927
1548455301264,-0.651550,-0.287415,0.728455,-5.975610,-32.560978,-9.939025
1548455301272,-0.644165,-0.301514,0.727600,-4.329268,-32.439026,-9.817074
1548455301279,-0.643066,-0.310852,0.736633,-4.390244,-32.865856,-10.182927
1548455301294,-0.637024,-0.309448,0.730347,-6.219512,-34.207317,-10.182927
1548455301302,-0.627930,-0.305908,0.727295,-8.841464,-34.207317,-10.304878
1548455301309,-0.624390,-0.313354,0.743652,-11.646341,-34.878048,-10.792684
1548455301324,-0.622070,-0.317688,0.763428,-13.353659,-36.280487,-11.402439
1548455301332,-0.615356,-0.311646,0.775940,-13.475610,-36.646343,-11.463415
1548455301339,-0.612671,-0.310669,0.797058,-12.317074,-36.158539,-11.585366
1548455301354,-0.613037,-0.310547,0.798950,-10.060976,-36.280487,-11.890244
1548455301362,-0.603027,-0.316162,0.775269,-7.012195,-35.365856,-11.890244
1548455301369,-0.593323,-0.335815,0.763855,-3.841464,-33.780487,-11.829268
1548455301384,-0.588867,-0.352234,0.767334,-2.560976,-34.085365,-11.951220
1548455301392,-0.584961,-0.352173,0.762512,-5.121951,-35.060978,-11.890244
1548455301399,-0.575684,-0.342468,0.775940,-10.182927,-35.731709,-12.012196
1548455301414,-0.579407,-0.345215,0.825500,-14.146341,-36.585365,-12.500000
1548455301422,-0.578308,-0.339539,0.844727,-14.817074,-38.048782,-12.621951
1548455301429,-0.563477,-0.332458,0.838013,-12.195122,-36.524391,-12.195122
1548455301444,-0.561279,-0.348267,0.839417,-7.987805,-33.902439,-11.890244
1548455301452,-0.560486,-0.355286,0.822083,-4.146341,-33.475609,-11.768293
1548455301459,-0.551453,-0.366699,0.794250,-2.012195,-32.012196,-11.219512
1548455301474,-0.546753,-0.380493,0.797058,-2.865854,-30.914635,-10.487805
1548455301482,-0.543274,-0.384399,0.815247,-7.012195,-32.195122,-10.487805
1548455301489,-0.529419,-0.370483,0.836609,-12.682927,-33.414635,-10.182927
1548455301504,-0.526550,-0.360168,0.865784,-15.853659,-33.170731,-10.060976
1548455301512,-0.524841,-0.354431,0.860535,-14.939025,-33.048782,-9.939025
1548455301519,-0.520325,-0.362061,0.851318,-10.426829,-30.914635,-9.817074
1548455301534,-0.524414,-0.380188,0.850586,-5.121951,-29.085367,-9.512196
1548455301542,-0.521484,-0.383362,0.829956,-2.804878,-29.085367,-8.963415
1548455301549,-0.511902,-0.378967,0.819031,-4.085366,-28.109756,-8.292683
1548455301564,-0.509094,-0.387146,0.822083,-7.317073,-28.292683,-8.170732
1548455301572,-0.502686,-0.389465,0.837891,-10.792684,-29.146341,-8.658537
1548455301579,-0.492981,-0.381958,0.851440,-13.231708,-29.390245,-8.536586
1548455301594,-0.483826,-0.371765,0.846619,-13.841464,-29.268293,-8.414635
1548455301602,-0.479004,-0.375549,0.837036,-12.439025,-28.109756,-8.841464
1548455301609,-0.480530,-0.386841,0.846741,-9.878049,-27.560976,-9.268292
1548455301624,-0.477783,-0.389221,0.838928,-8.292683,-27.865854,-9.207317
1548455301632,-0.470642,-0.390930,0.827271,-8.414635,-27.621952,-8.841464
1548455301639,-0.463257,-0.399170,0.836182,-9.695122,-26.890245,-8.963415
1548455301655,-0.468262,-0.402466,0.857910,-11.829268,-28.048780,-9.207317
1548455301662,-0.456665,-0.396606,0.867554,-14.024390,-28.841465,-8.902439
1548455301669,-0.450439,-0.395081,0.876038,-14.268293,-27.560976,-8.780488
1548455301684,-0.452576,-0.394348,0.875061,-12.439025,-27.195122,-9.024390
1548455301692,-0.451111,-0.396606,0.863708,-9.512196,-26.158537,-8.902439
1548455301699,-0.453796,-0.410095,0.857300,-7.195122,-24.817074,-8.780488
1548455301714,-0.445923,-0.420715,0.859131,-7.256098,-24.512196,-8.719512
1548455301722,-0.438660,-0.423950,0.860107,-10.731708,-24.207317,-8.597561
1548455301737,-0.431580,-0.417847,0.855713,-16.402439,-24.085367,-8.719512
1548455301744,-0.425537,-0.425659,0.862366,-22.560976,-23.231709,-9.390244
1548455301752,-0.425171,-0.427368,0.869507,-27.500000,-23.109756,-10.121951
1548455301774,-0.417358,-0.422546,0.869446,-30.914635,-23.048780,-10.243902
1548455301775,-0.412354,-0.423828,0.890564,-32.865856,-21.768293,-10.365854
1548455301782,-0.411743,-0.413330,0.893127,-32.256100,-21.951220,-10.731708
1548455301804,-0.405945,-0.406677,0.867981,-27.743902,-21.036587,-10.426829
1548455301805,-0.406799,-0.425476,0.855286,-19.817074,-18.536585,-10.304878
1548455301812,-0.409485,-0.451294,0.849121,-11.890244,-18.231709,-10.487805
1548455301834,-0.401062,-0.455933,0.852051,-7.500000,-18.475611,-9.817074
1548455301835,-0.393738,-0.457214,0.857361,-7.378049,-18.475611,-8.963415
1548455301842,-0.384766,-0.455078,0.852661,-10.304878,-19.024391,-9.024390
1548455301849,-0.379761,-0.464294,0.863586,-12.621951,-18.353659,-9.390244
1548455301865,-0.383301,-0.462585,0.868652,-13.597561,-18.658537,-9.390244
1548455301872,-0.379333,-0.450806,0.848938,-13.536586,-18.597561,-9.024390
1548455301879,-0.379272,-0.460571,0.834900,-12.743903,-17.134148,-9.146341
1548455301894,-0.378784,-0.472473,0.836914,-11.890244,-17.256098,-9.390244
1548455301909,-0.375305,-0.478882,0.846802,-11.829268,-17.926830,-8.963415
1548455301910,-0.369019,-0.475098,0.849060,-13.475610,-18.597561,-8.475610
1548455301924,-0.362366,-0.470215,0.845398,-15.304878,-18.597561,-8.475610
1548455301932,-0.359436,-0.463867,0.838013,-15.670732,-18.292683,-8.841464
1548455301939,-0.355042,-0.468689,0.829102,-13.963415,-18.414635,-9.085366
1548455301954,-0.348267,-0.478577,0.831116,-12.621951,-18.536585,-9.390244
1548455301962,-0.344849,-0.479919,0.838562,-12.012196,-19.207317,-9.329268
1548455301969,-0.336975,-0.482056,0.854797,-11.768293,-19.939024,-9.207317
1548455301984,-0.338440,-0.478333,0.860840,-10.792684,-20.426830,-9.390244
1548455301992,-0.334717,-0.475525,0.855530,-8.414635,-20.487804,-9.207317
1548455301999,-0.339539,-0.494873,0.867615,-4.756098,-19.329269,-9.146341
1548455302014,-0.344482,-0.503723,0.875732,-1.585366,-19.573172,-8.963415
1548455302022,-0.335266,-0.495056,0.859802,-0.548781,-19.207317,-8.231708
1548455302029,-0.334473,-0.494568,0.848511,-0.975610,-17.743902,-7.560976
1548455302044,-0.336243,-0.502014,0.848328,-2.012195,-17.804878,-7.743903
1548455302052,-0.326233,-0.508850,0.866394,-3.475610,-18.353659,-7.560976
1548455302059,-0.316345,-0.501465,0.879761,-5.548780,-18.658537,-6.890244
1548455302082,-0.307495,-0.488159,0.872864,-7.256098,-18.475611,-6.646342
1548455302082,-0.302124,-0.487793,0.863586,-6.890244,-17.256098,-6.951220
1548455302089,-0.307739,-0.489258,0.860413,-4.512195,-16.768293,-7.317073
1548455302104,-0.310303,-0.500000,0.874329,-2.256098,-16.646341,-7.317073
1548455302112,-0.309509,-0.509399,0.884033,-2.012195,-16.890244,-7.256098
1548455302119,-0.298767,-0.494751,0.873718,-3.170732,-16.768293,-7.073171
1548455302134,-0.292603,-0.494446,0.872192,-3.536585,-15.243903,-6.829268
1548455302142,-0.300842,-0.513672,0.892395,-2.439024,-14.939025,-7.317073
1548455302149,-0.297852,-0.512573,0.897705,-1.646341,-15.243903,-7.439024
1548455302164,-0.290466,-0.504028,0.888489,-1.829268,-13.963415,-6.524390
1548455302172,-0.294434,-0.505371,0.889893,-1.951220,-12.560976,-6.158537
1548455302179,-0.298645,-0.513977,0.899902,-1.219512,-12.256098,-6.463415
1548455302194,-0.291870,-0.510193,0.897339,-0.426829,-11.829268,-6.097561
1548455302202,-0.285706,-0.506104,0.888367,0.060976,-10.243902,-5.182927
1548455302209,-0.289124,-0.510071,0.896851,0.182927,-9.085366,-4.939024
1548455302224,-0.289368,-0.513306,0.899475,0.304878,-8.841464,-5.000000
1548455302232,-0.284973,-0.514038,0.899536,0.609756,-7.743903,-4.695122
1548455302239,-0.285034,-0.513611,0.904053,0.487805,-6.524390,-4.085366
1548455302262,-0.279724,-0.510193,0.900635,0.182927,-5.792683,-3.902439
1548455302262,-0.277466,-0.503479,0.887451,0.121951,-4.512195,-3.719512
1548455302269,-0.278748,-0.510193,0.884583,0.365854,-3.292683,-3.658537
1548455302284,-0.278381,-0.518311,0.896057,0.670732,-2.926829,-3.597561
1548455302292,-0.273499,-0.510010,0.897278,0.609756,-2.682927,-3.170732
1548455302299,-0.271179,-0.506653,0.892517,0.243902,-1.646341,-2.621951
1548455302314,-0.277283,-0.512512,0.892395,0.548781,-0.731707,-2.743902
1548455302322,-0.282532,-0.516663,0.890991,1.585366,-0.243902,-2.621951
1548455302330,-0.282043,-0.511719,0.892883,2.256098,0.487805,-2.134146
1548455302344,-0.281006,-0.505798,0.886230,2.195122,1.158537,-1.829268
1548455302352,-0.279663,-0.507874,0.879028,1.768293,1.951220,-1.829268
1548455302359,-0.275757,-0.510376,0.876892,2.134146,2.621951,-1.768293
1548455302374,-0.276062,-0.514038,0.880005,2.865854,2.987805,-1.524390
1548455302389,-0.276184,-0.512512,0.878906,2.682927,3.292683,-1.402439
1548455302390,-0.275818,-0.506042,0.874695,1.707317,3.475610,-1.341463
1548455302404,-0.276062,-0.503906,0.875793,1.341463,4.024390,-1.280488
1548455302412,-0.279785,-0.501648,0.875732,1.707317,4.268293,-1.341463
1548455302419,-0.281921,-0.497742,0.862915,2.560976,4.512195,-1.158537
1548455302434,-0.281189,-0.498352,0.857971,3.414634,5.365854,-1.036585
1548455302442,-0.282959,-0.508423,0.861023,4.329268,5.365854,-0.975610
1548455302449,-0.279785,-0.503357,0.868164,4.451220,4.634146,-0.853659
1548455302464,-0.279663,-0.502075,0.871704,4.329268,4.329268,-0.609756
1548455302472,-0.277100,-0.499817,0.862244,4.329268,4.512195,-0.670732
1548455302479,-0.276367,-0.499451,0.852905,4.756098,5.060976,-0.914634
1548455302494,-0.280518,-0.503052,0.851013,4.878049,4.817073,-0.914634
1548455302502,-0.279907,-0.500488,0.853149,4.451220,4.146341,-0.853659
1548455302509,-0.279297,-0.499695,0.855713,3.353659,3.780488,-0.792683
1548455302524,-0.278503,-0.496826,0.851379,2.256098,3.536585,-0.792683
1548455302532,-0.279419,-0.493713,0.850281,2.317073,3.353659,-0.670732
1548455302539,-0.283081,-0.496643,0.853699,3.109756,3.109756,-0.731707
1548455302554,-0.284485,-0.496887,0.855896,3.841464,2.987805,-0.792683
1548455302562,-0.284668,-0.496887,0.859009,4.024390,2.804878,-0.548781
1548455302569,-0.287231,-0.497742,0.856628,3.963415,2.500000,-0.426829
1548455302584,-0.285889,-0.492615,0.853516,4.146341,2.378049,-0.304878
1548455302599,-0.285095,-0.495544,0.862183,4.329268,2.195122,-0.365854
1548455302600,-0.286865,-0.499329,0.868469,4.512195,1.646341,-0.365854
1548455302614,-0.283936,-0.494507,0.862122,4.451220,1.585366,-0.182927
1548455302622,-0.287292,-0.492981,0.861450,4.573171,2.134146,-0.060976
1548455302629,-0.291260,-0.496765,0.862122,4.695122,1.951220,-0.365854
1548455302644,-0.288086,-0.498657,0.864807,4.634146,1.890244,-0.243902
1548455302652,-0.289673,-0.501587,0.868530,3.902439,1.829268,0.000000
1548455302659,-0.286682,-0.497681,0.865295,2.439024,1.402439,0.060976
1548455302674,-0.287231,-0.492126,0.864380,0.792683,1.402439,0.060976
1548455302682,-0.291260,-0.488831,0.862427,0.243902,1.463415,0.000000
1548455302697,-0.289673,-0.489685,0.859192,0.487805,1.341463,0.060976
1548455302704,-0.289734,-0.495728,0.860352,1.219512,1.524390,0.121951
1548455302712,-0.290100,-0.493103,0.862549,1.646341,1.463415,0.304878
1548455302719,-0.291565,-0.493042,0.858826,1.280488,1.158537,0.487805
1548455302734,-0.290710,-0.494690,0.862610,0.731707,1.158537,0.487805
1548455302742,-0.291138,-0.493347,0.866272,0.426829,1.036585,0.487805
1548455302749,-0.290771,-0.490784,0.862366,0.548781,0.914634,0.487805
1548455302764,-0.291565,-0.491760,0.860901,0.731707,0.975610,0.365854
1548455302772,-0.291626,-0.493347,0.864624,0.853659,0.853659,0.243902
1548455302779,-0.291199,-0.486511,0.859985,0.792683,0.609756,0.365854
1548455302794,-0.293152,-0.492493,0.857117,1.036585,0.670732,0.487805
1548455302802,-0.293762,-0.495789,0.863708,1.280488,0.609756,0.548781
1548455302809,-0.291809,-0.489990,0.865967,1.646341,0.304878,0.792683
1548455302824,-0.289368,-0.484131,0.861267,1.646341,0.304878,1.097561
1548455302832,-0.292358,-0.489258,0.856750,1.646341,0.487805,0.914634
1548455302839,-0.294678,-0.491638,0.864014,1.585366,0.243902,0.609756
1548455302854,-0.295044,-0.487305,0.869690,1.219512,-0.060976,0.792683
1548455302862,-0.294983,-0.482666,0.860291,0.426829,-0.182927,0.853659
1548455302869,-0.294678,-0.483459,0.859680,0.243902,0.121951,0.670732
1548455302884,-0.296631,-0.487610,0.868835,0.914634,0.060976,0.548781
1548455302892,-0.293518,-0.485291,0.864563,1.768293,-0.121951,0.670732
1548455302899,-0.290771,-0.484985,0.863037,2.439024,0.060976,0.792683
1548455302914,-0.293579,-0.488647,0.863831,2.378049,0.060976,0.670732
1548455302922,-0.293701,-0.487305,0.870483,2.134146,-0.365854,0.548781
1548455302929,-0.293579,-0.484192,0.867371,2.012195,-0.487805,0.792683
1548455302944,-0.295471,-0.487000,0.863220,2.134146,-0.365854,0.853659
1548455302959,-0.299866,-0.488159,0.866821,2.073171,-0.243902,0.365854
1548455302960,-0.299438,-0.484070,0.867432,1.585366,-0.548781,0.426829
1548455302974,-0.295715,-0.483459,0.862000,1.036585,-0.548781,0.487805
1548455302982,-0.294434,-0.484497,0.866211,0.975610,-0.304878,0.304878
1548455302989,-0.296143,-0.485962,0.871399,1.585366,-0.426829,0.426829
1548455303004,-0.295044,-0.482300,0.868652,2.256098,-0.548781,0.731707
1548455303012,-0.292664,-0.485352,0.865784,2.560976,-0.426829,0.731707
1548455303019,-0.292542,-0.487122,0.865906,2.926829,-0.365854,0.792683
1548455303034,-0.293396,-0.482910,0.861877,3.170732,-0.426829,1.158537
1548455303042,-0.293701,-0.482361,0.858887,2.195122,-0.365854,1.097561
1548455303049,-0.296021,-0.483276,0.867004,0.792683,-0.487805,0.914634
1548455303064,-0.295776,-0.480042,0.871338,0.365854,-0.731707,0.914634
1548455303072,-0.297302,-0.477600,0.874451,0.365854,-0.670732,0.914634
1548455303079,-0.297241,-0.480774,0.876953,0.670732,-0.609756,0.670732
1548455303094,-0.297119,-0.481750,0.875549,1.463415,-0.609756,0.609756
1548455303102,-0.296753,-0.479187,0.874512,2.317073,-0.304878,0.731707
1548455303109,-0.295898,-0.480042,0.875244,2.865854,-0.243902,0.731707
1548455303124,-0.298096,-0.483398,0.874023,3.231707,-0.121951,0.609756
1548455303132,-0.297241,-0.486206,0.877197,3.597561,0.121951,0.487805
1548455303140,-0.298889,-0.486267,0.879089,3.597561,0.182927,0.609756
1548455303154,-0.302185,-0.486450,0.879761,2.743902,0.365854,0.670732
1548455303162,-0.301758,-0.486877,0.880066,1.341463,0.548781,0.548781
1548455303169,-0.300659,-0.481201,0.876038,0.731707,0.670732,0.670732
1548455303184,-0.302124,-0.479858,0.870422,0.853659,1.280488,0.853659
1548455303192,-0.305786,-0.485168,0.870361,1.341463,1.585366,0.731707
1548455303199,-0.303955,-0.485718,0.868958,1.707317,1.463415,0.792683
1548455303214,-0.298706,-0.484131,0.863403,1.463415,1.707317,1.097561
1548455303222,-0.297424,-0.482788,0.865479,1.158537,1.829268,1.158537
1548455303229,-0.298889,-0.483032,0.873596,0.914634,1.402439,1.158537
1548455303244,-0.295593,-0.480347,0.870239,0.670732,1.158537,1.341463
1548455303252,-0.295471,-0.480469,0.865417,0.426829,1.341463,1.341463
1548455303259,-0.300171,-0.480103,0.865662,0.426829,1.280488,1.097561
1548455303274,-0.300659,-0.477966,0.865295,0.670732,1.097561,1.036585
1548455303282,-0.302917,-0.478149,0.863464,0.914634,1.158537,1.158537
1548455303289,-0.301880,-0.478821,0.862976,0.975610,1.097561,1.097561
1548455303304,-0.300049,-0.477539,0.863831,0.975610,1.158537,1.219512
1548455303312,-0.301270,-0.477844,0.872498,0.609756,1.036585,1.341463
1548455303319,-0.304199,-0.481750,0.883789,0.426829,0.670732,1.402439
1548455303334,-0.304443,-0.479370,0.883484,0.548781,0.853659,1.402439
1548455303342,-0.304260,-0.474487,0.878479,0.670732,1.463415,1.646341
1548455303349,-0.307495,-0.472534,0.879700,0.914634,1.890244,1.524390
1548455303364,-0.306580,-0.474243,0.878784,1.524390,1.951220,1.585366
1548455303372,-0.308899,-0.475952,0.875244,2.317073,2.378049,1.646341
1548455303379,-0.308777,-0.482178,0.880798,2.865854,2.743902,1.707317
1548455303394,-0.310303,-0.482727,0.883606,2.560976,2.804878,1.768293
1548455303402,-0.311279,-0.478943,0.878723,1.768293,3.231707,1.890244
1548455303409,-0.316528,-0.478333,0.885315,1.280488,3.658537,1.768293
1548455303424,-0.315674,-0.480347,0.887695,1.646341,3.841464,1.585366
1548455303432,-0.312012,-0.481018,0.880981,2.439024,4.329268,1.890244
1548455303439,-0.310608,-0.482727,0.879272,3.048780,5.000000,2.134146
1548455303454,-0.313477,-0.488892,0.882812,3.353659,5.243903,2.134146
1548455303462,-0.316895,-0.476074,0.882935,2.987805,5.182927,2.378049
1548455303469,-0.318726,-0.479065,0.879761,3.353659,5.609756,2.743902
1548455303484,-0.319824,-0.482727,0.875793,4.512195,6.097561,2.743902
1548455303492,-0.321045,-0.482483,0.868286,5.365854,6.585366,2.987805
1548455303499,-0.321655,-0.486389,0.868103,5.060976,6.707317,3.414634
1548455303515,-0.323303,-0.481873,0.869629,4.085366,6.829268,3.597561
1548455303522,-0.319336,-0.478271,0.868713,2.317073,6.646342,3.719512
1548455303529,-0.318726,-0.474976,0.870361,1.280488,6.829268,3.841464
1548455303544,-0.324585,-0.473694,0.874878,1.524390,6.829268,3.841464
1548455303552,-0.325806,-0.472168,0.871826,2.073171,6.890244,4.024390
1548455303559,-0.327332,-0.472168,0.871704,2.378049,7.256098,4.024390
1548455303574,-0.330322,-0.477112,0.868958,2.560976,7.317073,4.207317
1548455303582,-0.330627,-0.473755,0.863281,2.743902,7.560976,4.329268
1548455303589,-0.333557,-0.467651,0.863831,2.987805,7.743903,4.695122
1548455303604,-0.335632,-0.477478,0.865417,3.475610,7.621952,5.000000
1548455303612,-0.337524,-0.474670,0.867615,3.475610,7.500000,5.304878
