timestamp, accel_x, accel_y, accel_z, gyro_x, gyro_y, gyro_z
1548456285568,-0.215820,-0.995728,-0.028564,-1.768293,0.000000,2.500000
1548456285583,-0.208984,-1.010132,-0.029785,-2.500000,-0.182927,2.682927
1548456285584,-0.209473,-1.011047,-0.029968,-3.353659,-0.670732,3.292683
1548456285598,-0.216919,-1.007080,-0.037781,-4.573171,-1.524390,4.573171
1548456285605,-0.222595,-1.000916,-0.045959,-5.670732,-2.134146,5.914634
1548456285613,-0.232422,-0.994385,-0.049133,-5.914634,-2.560976,7.012195
1548456285636,-0.242981,-0.990051,-0.052551,-5.914634,-3.170732,7.682927
1548456285636,-0.254089,-0.983093,-0.053894,-5.487805,-3.414634,8.109756
1548456285643,-0.261475,-0.981140,-0.050781,-4.695122,-3.353659,8.048780
1548456285658,-0.267761,-0.982117,-0.050354,-3.353659,-2.926829,7.560976
1548456285665,-0.262756,-0.984985,-0.042603,-2.439024,-2.378049,6.829268
1548456285673,-0.251099,-0.988159,-0.041077,-1.768293,-1.890244,5.609756
1548456285688,-0.245544,-0.988647,-0.042969,-1.585366,-1.951220,4.146341
1548456285695,-0.243347,-0.987488,-0.047119,-2.012195,-2.378049,3.353659
1548456285703,-0.247559,-0.986633,-0.049438,-2.682927,-2.378049,3.597561
1548456285718,-0.252258,-0.986816,-0.052917,-3.231707,-2.195122,4.146341
1548456285725,-0.262512,-0.978760,-0.056702,-3.170732,-2.621951,4.024390
1548456285741,-0.267822,-0.975586,-0.057251,-2.500000,-2.926829,3.475610
1548456285748,-0.271729,-0.973633,-0.054871,-1.646341,-2.743902,2.743902
1548456285755,-0.277405,-0.972229,-0.052490,-0.914634,-2.256098,1.951220
1548456285763,-0.280212,-0.971741,-0.049133,-0.304878,-1.402439,1.097561
1548456285778,-0.276978,-0.972046,-0.049316,0.487805,-0.548781,-0.365854
1548456285793,-0.275391,-0.972229,-0.053528,1.341463,-0.060976,-2.012195
1548456285793,-0.272522,-0.975708,-0.054199,2.012195,0.548781,-3.414634
1548456285808,-0.268982,-0.977905,-0.048645,2.621951,1.524390,-4.390244
1548456285815,-0.262390,-0.983337,-0.043518,3.170732,2.317073,-5.304878
1548456285823,-0.248352,-0.985962,-0.042603,3.414634,2.865854,-6.341464
1548456285838,-0.236633,-0.995178,-0.037048,3.658537,3.170732,-7.621952
1548456285845,-0.231018,-1.000549,-0.036682,3.475610,3.048780,-8.414635
1548456285860,-0.230225,-0.998962,-0.043091,2.500000,2.865854,-8.292683
1548456285868,-0.235779,-0.995972,-0.042847,1.402439,2.926829,-7.560976
1548456285875,-0.240417,-0.999023,-0.038391,0.792683,2.804878,-6.890244
1548456285883,-0.233704,-1.001587,-0.038208,0.487805,2.500000,-6.951220
1548456285898,-0.225708,-1.001587,-0.039673,0.243902,2.256098,-7.560976
1548456285913,-0.216125,-1.003540,-0.040161,0.060976,2.256098,-7.926829
1548456285913,-0.205200,-1.010193,-0.042236,-0.304878,2.256098,-7.560976
1548456285928,-0.196289,-1.011414,-0.047058,-0.670732,2.073171,-6.524390
1548456285943,-0.192505,-1.012573,-0.047424,-1.036585,1.524390,-5.060976
1548456285943,-0.196045,-1.009583,-0.047729,-1.097561,0.304878,-3.536585
1548456285965,-0.202698,-1.008606,-0.045410,-1.219512,-1.097561,-1.585366
1548456285966,-0.216492,-1.004883,-0.044800,-1.585366,-1.951220,0.487805
1548456285973,-0.228271,-1.001709,-0.046936,-2.134146,-2.256098,2.195122
1548456285988,-0.242188,-0.991333,-0.047974,-2.682927,-2.195122,3.231707
1548456285995,-0.252563,-0.984680,-0.046692,-2.865854,-2.195122,3.231707
1548456286003,-0.256775,-0.982117,-0.047607,-2.682927,-1.829268,2.865854
1548456286018,-0.256592,-0.984985,-0.045532,-1.829268,-1.158537,2.134146
1548456286026,-0.251953,-0.990234,-0.046204,-0.914634,-0.487805,1.158537
1548456286033,-0.245300,-0.994446,-0.044556,-0.426829,0.060976,-0.121951
1548456286048,-0.236816,-0.993164,-0.047913,-0.487805,0.365854,-1.158537
1548456286055,-0.229736,-0.993408,-0.049561,-1.097561,0.792683,-1.585366
1548456286063,-0.227295,-0.995544,-0.047119,-1.585366,1.158537,-1.402439
1548456286078,-0.228821,-0.995239,-0.047668,-1.646341,1.097561,-1.036585
1548456286086,-0.225769,-0.996765,-0.048889,-1.463415,1.097561,-0.792683
1548456286094,-0.223511,-0.998840,-0.051147,-1.402439,0.975610,-0.731707
1548456286115,-0.221985,-1.000977,-0.055115,-1.585366,0.792683,-0.548781
1548456286116,-0.223450,-1.000427,-0.058533,-1.768293,0.609756,0.000000
1548456286123,-0.227112,-0.995911,-0.057068,-1.707317,0.426829,0.670732
1548456286138,-0.229858,-0.993042,-0.059143,-1.524390,0.304878,1.280488
1548456286146,-0.234497,-0.991760,-0.063110,-0.914634,0.365854,1.829268
1548456286153,-0.235413,-0.992432,-0.060608,-0.243902,0.243902,2.317073
1548456286168,-0.235474,-0.993896,-0.057861,0.426829,0.121951,2.500000
1548456286175,-0.236389,-0.992737,-0.056091,0.975610,0.060976,2.439024
1548456286191,-0.236572,-0.989197,-0.055603,1.219512,0.182927,2.378049
1548456286198,-0.236877,-0.988220,-0.056580,1.463415,0.426829,2.439024
1548456286205,-0.236816,-0.992737,-0.055115,1.768293,0.548781,2.500000
1548456286213,-0.234009,-0.992371,-0.054016,2.256098,0.426829,2.317073
1548456286228,-0.231567,-0.993225,-0.055176,2.682927,0.121951,2.073171
1548456286243,-0.228210,-0.995544,-0.050293,2.865854,-0.060976,2.012195
1548456286244,-0.228638,-0.995300,-0.048828,2.743902,-0.304878,2.073171
1548456286258,-0.229309,-0.994324,-0.050354,2.560976,-0.670732,2.134146
1548456286266,-0.230225,-0.993591,-0.046143,2.439024,-0.975610,2.073171
1548456286273,-0.232910,-0.994690,-0.046265,2.317073,-1.280488,2.012195
1548456286295,-0.233459,-0.993958,-0.047791,2.195122,-1.585366,2.073171
1548456286296,-0.235168,-0.994080,-0.046692,1.951220,-1.768293,2.134146
1548456286310,-0.239197,-0.993835,-0.046936,1.768293,-1.951220,2.134146
1548456286318,-0.237732,-0.991516,-0.048523,1.585366,-2.134146,1.951220
1548456286325,-0.236755,-0.992554,-0.049438,1.280488,-2.195122,1.585366
1548456286348,-0.237732,-0.992798,-0.047913,0.975610,-2.134146,1.341463
1548456286348,-0.241272,-0.990540,-0.045715,0.853659,-2.134146,1.341463
1548456286363,-0.240356,-0.992737,-0.043640,0.853659,-2.134146,1.280488
1548456286364,-0.241211,-0.992493,-0.043945,0.670732,-1.951220,1.280488
1548456286378,-0.237915,-0.992920,-0.045959,0.609756,-1.829268,0.975610
1548456286386,-0.237061,-0.996094,-0.048279,0.548781,-1.829268,0.853659
1548456286393,-0.237854,-0.994934,-0.046936,0.365854,-1.829268,0.853659
1548456286415,-0.238586,-0.992676,-0.046936,0.121951,-1.768293,1.036585
1548456286416,-0.241089,-0.991455,-0.049072,0.182927,-1.646341,1.402439
1548456286423,-0.239929,-0.992920,-0.048767,0.182927,-1.463415,1.463415
1548456286438,-0.240723,-0.993042,-0.046875,0.182927,-1.402439,1.402439
1548456286445,-0.240295,-0.993896,-0.044495,0.487805,-1.280488,1.402439
1548456286453,-0.240601,-0.992615,-0.045471,0.609756,-1.280488,1.402439
1548456286468,-0.239990,-0.991638,-0.047852,0.487805,-1.158537,1.524390
1548456286475,-0.238342,-0.993164,-0.049072,0.365854,-1.097561,1.280488
1548456286483,-0.243591,-0.992432,-0.047729,0.121951,-1.219512,1.341463
1548456286498,-0.243042,-0.990967,-0.048767,0.000000,-1.219512,1.402439
1548456286520,-0.244873,-0.989319,-0.051025,0.060976,-0.914634,1.463415
1548456286521,-0.244629,-0.990051,-0.050476,0.182927,-0.914634,1.219512
1548456286528,-0.242859,-0.991455,-0.046143,0.487805,-0.914634,0.914634
1548456286535,-0.242981,-0.991272,-0.045288,0.792683,-0.914634,0.670732
1548456286543,-0.240845,-0.991089,-0.049988,0.670732,-0.731707,0.548781
1548456286558,-0.242981,-0.988892,-0.052490,0.548781,-0.487805,0.670732
1548456286573,-0.244629,-0.991211,-0.048950,0.609756,-0.609756,0.853659
1548456286573,-0.244629,-0.990417,-0.047241,0.853659,-0.731707,0.792683
1548456286588,-0.239868,-0.990723,-0.046997,1.097561,-0.609756,0.609756
1548456286595,-0.243774,-0.992249,-0.046509,1.219512,-0.487805,0.426829
1548456286603,-0.244690,-0.991821,-0.047913,1.341463,-0.365854,0.487805
1548456286625,-0.245178,-0.992859,-0.047119,1.341463,-0.304878,0.487805
1548456286626,-0.247131,-0.990173,-0.048035,1.707317,-0.304878,0.365854
1548456286640,-0.242737,-0.989502,-0.049316,1.890244,-0.243902,0.304878
1548456286648,-0.239563,-0.992676,-0.047119,1.890244,0.060976,0.304878
1548456286655,-0.239746,-0.992981,-0.039246,2.256098,0.000000,0.121951
1548456286663,-0.237549,-0.996277,-0.040283,2.378049,-0.243902,0.060976
1548456286678,-0.235229,-0.996399,-0.042908,2.073171,-0.121951,0.060976
1548456286693,-0.238037,-0.995544,-0.042053,1.646341,-0.121951,0.304878
1548456286693,-0.238037,-0.993835,-0.040649,1.158537,-0.426829,0.548781
1548456286708,-0.237122,-0.994629,-0.042969,1.097561,-0.609756,0.731707
1548456286715,-0.239807,-0.993835,-0.042419,1.158537,-0.487805,0.853659
1548456286723,-0.239075,-0.993469,-0.040405,1.158537,-0.670732,0.792683
1548456286745,-0.239136,-0.994324,-0.039307,1.097561,-0.853659,0.853659
1548456286746,-0.239319,-0.997437,-0.041992,0.975610,-0.731707,1.036585
1548456286760,-0.242004,-0.994324,-0.042419,0.792683,-0.731707,0.975610
1548456286768,-0.243408,-0.992493,-0.042786,0.365854,-0.914634,1.036585
1548456286776,-0.242676,-0.991821,-0.044617,0.000000,-0.914634,1.280488
1548456286783,-0.243408,-0.990051,-0.043213,0.060976,-0.792683,1.219512
1548456286798,-0.245911,-0.991394,-0.041382,0.000000,-0.731707,1.158537
1548456286806,-0.245972,-0.992126,-0.042175,-0.060976,-0.609756,1.158537
1548456286813,-0.243652,-0.989990,-0.043518,0.060976,-0.548781,1.036585
1548456286828,-0.245056,-0.991272,-0.041992,0.182927,-0.548781,0.975610
1548456286850,-0.245972,-0.990906,-0.043640,0.121951,-0.365854,0.914634
1548456286851,-0.243713,-0.993408,-0.042786,0.182927,-0.304878,0.975610
1548456286865,-0.242981,-0.992981,-0.042419,0.060976,-0.243902,0.792683
1548456286866,-0.241394,-0.992126,-0.038757,0.060976,-0.243902,0.548781
1548456286873,-0.240234,-0.994873,-0.037720,0.000000,-0.365854,0.243902
1548456286888,-0.239014,-0.993347,-0.042664,-0.365854,-0.243902,0.182927
1548456286903,-0.239868,-0.994812,-0.043091,-0.914634,-0.243902,0.426829
1548456286903,-0.241150,-0.992432,-0.042480,-1.402439,-0.182927,0.731707
1548456286918,-0.242310,-0.989929,-0.043274,-1.463415,-0.304878,0.914634
1548456286925,-0.243591,-0.994263,-0.041443,-1.341463,-0.609756,0.914634
1548456286933,-0.247192,-0.992188,-0.039917,-1.219512,-0.792683,0.853659
1548456286948,-0.245972,-0.990234,-0.040649,-1.463415,-0.792683,0.914634
1548456286955,-0.243347,-0.990906,-0.044556,-1.646341,-0.731707,0.853659
1548456286970,-0.246155,-0.989563,-0.046021,-1.829268,-0.853659,0.731707
1548456286978,-0.245422,-0.990051,-0.048523,-1.768293,-0.792683,0.609756
1548456286985,-0.244385,-0.993652,-0.047913,-1.951220,-0.548781,0.609756
1548456286993,-0.242493,-0.991272,-0.046875,-2.073171,-0.487805,0.487805
1548456287023,-0.242798,-0.992493,-0.047058,-1.890244,-0.731707,0.426829
1548456287031,-0.240662,-0.994507,-0.042603,-1.890244,-0.853659,0.487805
1548456287031,-0.241760,-0.995361,-0.041870,-2.073171,-0.975610,0.609756
1548456287038,-0.243835,-0.991882,-0.044739,-2.439024,-1.219512,0.731707
1548456287046,-0.244568,-0.992981,-0.048828,-2.926829,-1.219512,0.731707
1548456287053,-0.242004,-0.991760,-0.050110,-3.292683,-1.280488,0.853659
1548456287075,-0.244263,-0.992920,-0.053162,-3.231707,-1.280488,0.792683
1548456287076,-0.244019,-0.990112,-0.054138,-3.170732,-1.402439,0.914634
1548456287083,-0.245300,-0.990112,-0.052124,-2.987805,-1.524390,1.036585
1548456287098,-0.247375,-0.989075,-0.051819,-2.926829,-1.524390,1.219512
1548456287105,-0.246338,-0.991882,-0.049500,-2.865854,-1.463415,1.463415
1548456287113,-0.244202,-0.995361,-0.047363,-2.560976,-1.463415,1.524390
1548456287136,-0.243958,-0.996887,-0.048035,-2.560976,-1.768293,1.463415
1548456287143,-0.240295,-0.996643,-0.049866,-2.804878,-2.134146,1.280488
1548456287143,-0.246338,-0.992493,-0.053406,-3.536585,-2.439024,1.585366
1548456287158,-0.253113,-0.986145,-0.064331,-4.268293,-2.439024,2.134146
1548456287180,-0.258911,-0.980103,-0.072021,-4.634146,-1.768293,3.048780
1548456287181,-0.264771,-0.974304,-0.070679,-4.024390,-1.280488,3.597561
1548456287188,-0.265320,-0.977844,-0.064087,-2.560976,-1.219512,3.170732
1548456287195,-0.261963,-0.984009,-0.062500,-0.975610,-0.975610,2.560976
1548456287203,-0.257690,-0.986450,-0.059082,0.243902,-0.487805,1.768293
1548456287218,-0.253479,-0.988220,-0.057495,0.670732,-0.060976,1.280488
1548456287225,-0.252502,-0.986938,-0.057983,0.243902,0.609756,1.402439
1548456287233,-0.251465,-0.982666,-0.061218,-0.365854,1.158537,1.707317
1548456287248,-0.253906,-0.981506,-0.060120,-0.670732,1.402439,1.829268
1548456287255,-0.255432,-0.981995,-0.058594,-0.121951,1.341463,1.585366
1548456287263,-0.254211,-0.991028,-0.055969,0.609756,1.280488,1.097561
1548456287278,-0.253662,-0.992676,-0.050232,0.670732,1.463415,0.792683
1548456287286,-0.251953,-0.990906,-0.047241,0.243902,1.158537,0.304878
1548456287308,-0.247009,-0.992798,-0.051514,-0.365854,0.853659,-0.243902
1548456287308,-0.240723,-0.993103,-0.054260,-1.158537,0.914634,-0.609756
1548456287315,-0.237305,-0.993530,-0.059143,-1.890244,0.975610,-0.426829
1548456287323,-0.239563,-0.992432,-0.061035,-2.317073,0.670732,0.182927
1548456287338,-0.242981,-0.988831,-0.059143,-2.317073,0.243902,0.609756
1548456287353,-0.245789,-0.991943,-0.054871,-2.256098,-0.365854,0.792683
1548456287354,-0.250610,-0.994995,-0.054749,-2.012195,-0.853659,0.914634
1548456287368,-0.256287,-0.994873,-0.055481,-2.134146,-1.280488,0.914634
1548456287375,-0.261169,-0.990601,-0.056335,-3.048780,-1.219512,0.853659
1548456287383,-0.261353,-0.980591,-0.059937,-4.329268,-0.914634,0.853659
1548456287405,-0.258911,-0.982056,-0.060303,-5.182927,-0.182927,0.670732
1548456287406,-0.257141,-0.986389,-0.054688,-4.817073,0.121951,0.182927
1548456287413,-0.257874,-0.987793,-0.056885,-3.841464,0.000000,-0.426829
1548456287443,-0.255432,-0.989319,-0.057068,-3.719512,0.182927,-0.792683
1548456287443,-0.250671,-0.995178,-0.056396,-4.268293,0.548781,-0.975610
1548456287444,-0.252075,-0.990295,-0.060913,-5.182927,0.792683,-1.219512
1548456287458,-0.251221,-0.985596,-0.071472,-6.219512,0.975610,-1.036585
1548456287466,-0.251099,-0.978577,-0.078613,-6.768293,0.914634,-1.158537
1548456287473,-0.251465,-0.974243,-0.083008,-6.524390,1.158537,-1.524390
1548456287488,-0.252136,-0.983215,-0.084106,-5.853659,1.646341,-1.585366
1548456287495,-0.250061,-0.990051,-0.078003,-4.695122,1.951220,-1.463415
1548456287503,-0.251953,-0.991333,-0.070129,-3.353659,1.829268,-1.951220
1548456287518,-0.248901,-0.994263,-0.065430,-2.926829,1.341463,-2.621951
1548456287525,-0.246277,-0.991028,-0.062073,-2.682927,1.646341,-3.109756
1548456287533,-0.250549,-0.989990,-0.068237,-2.804878,1.646341,-3.231707
1548456287548,-0.249634,-0.984497,-0.074585,-4.268293,2.073171,-2.804878
1548456287555,-0.248413,-0.983459,-0.087158,-5.487805,3.170732,-2.073171
1548456287563,-0.249023,-0.990051,-0.088806,-6.158537,3.780488,-1.341463
1548456287578,-0.244568,-0.995789,-0.070129,-5.670732,3.292683,-1.280488
1548456287585,-0.244507,-1.004822,-0.061035,-4.573171,1.890244,-2.256098
1548456287593,-0.245117,-1.002319,-0.060730,-4.024390,0.609756,-3.048780
1548456287608,-0.240051,-0.996826,-0.072510,-4.573171,0.487805,-2.865854
1548456287615,-0.236633,-0.996399,-0.081177,-5.853659,1.585366,-2.073171
1548456287630,-0.235596,-0.989563,-0.096313,-7.317073,2.134146,-1.158537
1548456287638,-0.228699,-0.991638,-0.093750,-7.500000,2.317073,-0.365854
1548456287645,-0.225464,-0.993103,-0.074402,-7.317073,1.890244,-0.121951
1548456287660,-0.230042,-0.995178,-0.074951,-6.585366,0.487805,0.000000
1548456287668,-0.237305,-0.997864,-0.081360,-6.219512,-0.243902,0.487805
1548456287683,-0.238831,-0.994690,-0.089172,-6.341464,-0.243902,1.585366
1548456287683,-0.238220,-0.996094,-0.106567,-6.585366,0.060976,2.743902
1548456287698,-0.237000,-1.000854,-0.101562,-6.585366,0.304878,3.170732
1548456287713,-0.238281,-0.992065,-0.088135,-7.195122,-0.426829,3.109756
1548456287713,-0.241882,-0.988586,-0.088501,-7.012195,-1.402439,2.987805
1548456287728,-0.245728,-0.982056,-0.097290,-6.158537,-1.402439,2.865854
1548456287735,-0.245972,-0.973511,-0.100159,-6.097561,-1.097561,3.475610
1548456287743,-0.253296,-0.975830,-0.107300,-6.463415,-0.548781,4.207317
1548456287758,-0.259460,-0.982849,-0.121948,-7.195122,0.243902,4.390244
1548456287765,-0.263245,-0.982910,-0.124573,-6.829268,1.036585,4.573171
1548456287773,-0.269470,-0.973389,-0.115234,-6.463415,1.646341,3.841464
1548456287788,-0.265991,-0.970398,-0.113525,-5.243903,2.256098,2.926829
1548456287803,-0.263916,-0.975891,-0.109741,-3.719512,3.170732,1.768293
1548456287803,-0.261841,-0.980469,-0.110535,-2.682927,4.024390,1.158537
1548456287818,-0.258728,-0.975464,-0.113586,-3.231707,4.634146,0.731707
1548456287825,-0.254395,-0.975342,-0.120056,-4.512195,4.939024,0.304878
1548456287833,-0.244934,-0.973450,-0.115906,-5.792683,5.670732,-0.060976
1548456287855,-0.234863,-0.984131,-0.114136,-5.121951,5.609756,-0.365854
1548456287856,-0.230225,-0.995422,-0.110291,-3.536585,4.451220,-0.487805
1548456287863,-0.236572,-0.988770,-0.102234,-2.865854,3.109756,-0.670732
1548456287878,-0.242371,-0.979370,-0.111328,-3.109756,1.646341,-0.548781
1548456287885,-0.246094,-0.973083,-0.125427,-3.841464,1.463415,0.426829
1548456287893,-0.257202,-0.974548,-0.138306,-4.878049,1.829268,0.853659
1548456287908,-0.257690,-0.981812,-0.136047,-4.695122,2.012195,1.036585
1548456287923,-0.257996,-0.978333,-0.127625,-3.292683,1.341463,0.365854
1548456287923,-0.269592,-0.966553,-0.126587,-1.951220,0.304878,-1.219512
1548456287938,-0.271423,-0.959167,-0.129272,-1.585366,0.304878,-2.134146
1548456287945,-0.267456,-0.962585,-0.137634,-1.341463,2.195122,-2.317073
1548456287961,-0.264221,-0.964233,-0.135376,-0.914634,4.146341,-2.560976
1548456287968,-0.261536,-0.969116,-0.134216,0.000000,5.121951,-2.926829
1548456287975,-0.259888,-0.972717,-0.130920,1.463415,5.548780,-4.085366
1548456287991,-0.252075,-0.984375,-0.119812,2.926829,5.792683,-5.487805
1548456287998,-0.242798,-0.993896,-0.114258,4.146341,6.097561,-6.280488
1548456288006,-0.244812,-0.995422,-0.114197,4.024390,6.707317,-6.890244
1548456288013,-0.242371,-0.985718,-0.118713,2.560976,7.195122,-6.829268
1548456288028,-0.232300,-0.980286,-0.125854,0.975610,7.987805,-6.707317
1548456288036,-0.222290,-0.984497,-0.120850,0.853659,8.658537,-6.646342
1548456288043,-0.216675,-0.991211,-0.112976,1.768293,8.109756,-6.951220
1548456288058,-0.212830,-0.993530,-0.109924,2.256098,6.890244,-7.256098
1548456288065,-0.222107,-0.991028,-0.115845,1.951220,5.853659,-6.951220
1548456288080,-0.223206,-0.979004,-0.122314,0.914634,5.304878,-6.158537
1548456288088,-0.219482,-0.972107,-0.130981,0.000000,5.731708,-4.878049
1548456288095,-0.219116,-0.979431,-0.129822,-0.060976,6.219512,-3.780488
1548456288103,-0.224976,-0.988037,-0.123657,1.646341,5.670732,-3.475610
1548456288118,-0.233032,-0.984924,-0.126648,3.536585,4.817073,-3.719512
1548456288133,-0.233032,-0.981262,-0.129883,4.390244,4.634146,-3.719512
1548456288133,-0.229126,-0.978210,-0.128845,4.878049,5.426829,-3.475610
1548456288148,-0.222778,-0.992249,-0.118713,5.487805,5.914634,-3.292683
1548456288155,-0.219238,-1.006958,-0.103638,6.707317,5.670732,-3.414634
1548456288163,-0.225586,-1.004089,-0.094727,7.560976,4.512195,-4.329268
1548456288185,-0.234436,-0.987183,-0.101379,6.097561,3.109756,-5.000000
1548456288186,-0.227722,-0.983398,-0.109863,3.597561,3.902439,-4.939024
1548456288200,-0.214966,-0.997681,-0.109070,2.378049,5.609756,-4.512195
1548456288208,-0.212463,-1.002380,-0.102295,2.378049,5.609756,-4.817073
1548456288215,-0.217224,-0.994690,-0.103638,2.804878,3.719512,-5.914634
1548456288223,-0.209595,-0.990417,-0.100464,2.682927,2.500000,-6.768293
1548456288238,-0.203003,-0.994873,-0.098511,2.560976,2.195122,-6.890244
1548456288253,-0.197144,-1.005371,-0.106262,1.951220,1.951220,-6.707317
1548456288253,-0.197937,-0.998108,-0.115112,1.158537,1.402439,-6.463415
1548456288268,-0.212708,-0.986206,-0.128967,-0.365854,0.121951,-5.731708
1548456288275,-0.213806,-0.972717,-0.134216,-1.280488,0.243902,-4.756098
1548456288283,-0.200745,-0.978638,-0.142090,-0.182927,1.707317,-3.109756
1548456288305,-0.193481,-0.999939,-0.123230,2.682927,2.317073,-2.195122
1548456288306,-0.194946,-1.014954,-0.102234,6.097561,1.097561,-2.256098
1548456288313,-0.198425,-1.002075,-0.101196,7.500000,-0.365854,-2.378049
1548456288328,-0.205750,-0.989258,-0.112549,6.158537,-0.853659,-1.646341
1548456288335,-0.203552,-0.991028,-0.115845,4.146341,-0.731707,-0.426829
1548456288343,-0.200928,-1.001160,-0.106934,3.963415,0.365854,0.975610
1548456288358,-0.206360,-0.998901,-0.093811,4.756098,0.121951,1.768293
1548456288365,-0.212280,-0.994141,-0.098816,4.268293,-0.914634,1.646341
1548456288373,-0.210510,-0.989990,-0.111511,2.926829,-0.792683,1.524390
1548456288388,-0.197021,-0.989319,-0.114075,2.317073,0.121951,1.768293
1548456288395,-0.198303,-0.974487,-0.097839,2.439024,0.121951,1.707317
1548456288410,-0.223816,-0.973083,-0.096069,2.987805,-2.682927,1.219512
1548456288418,-0.237854,-0.997986,-0.097229,3.841464,-5.060976,-0.426829
1548456288425,-0.228088,-1.008179,-0.086426,4.268293,-4.268293,-2.682927
1548456288433,-0.225281,-0.989624,-0.094421,1.890244,-2.378049,-4.207317
1548456288448,-0.203308,-1.004272,-0.096985,-2.256098,-0.060976,-3.780488
1548456288463,-0.190491,-1.020752,-0.090637,-5.365854,2.987805,-2.804878
1548456288464,-0.214233,-1.006958,-0.088623,-5.426829,2.560976,-1.707317
1548456288478,-0.225708,-1.008179,-0.095642,-3.170732,1.036585,0.365854
1548456288485,-0.211975,-0.999878,-0.103516,-0.914634,2.012195,0.975610
1548456288493,-0.192322,-0.992493,-0.127747,-1.036585,3.170732,0.548781
1548456288508,-0.194336,-0.995911,-0.129883,-2.256098,3.048780,0.731707
1548456288515,-0.204163,-1.000916,-0.123596,-2.500000,1.341463,1.585366
1548456288523,-0.213867,-0.982300,-0.131348,-3.170732,1.036585,2.804878
1548456288538,-0.213074,-0.973755,-0.122131,-2.560976,2.195122,5.182927
1548456288545,-0.214966,-0.982422,-0.104919,0.121951,4.085366,7.256098
1548456288553,-0.216797,-0.996704,-0.084656,3.597561,4.939024,7.926829
1548456288568,-0.211792,-1.002563,-0.079041,6.036585,4.451220,7.073171
1548456288583,-0.210632,-1.000061,-0.094421,6.097561,4.146341,5.670732
1548456288583,-0.209229,-0.994995,-0.106323,3.109756,3.841464,4.756098
1548456288598,-0.212646,-0.990356,-0.107361,-0.548781,3.414634,4.451220
1548456288606,-0.225464,-0.983032,-0.110962,-2.743902,2.195122,4.146341
1548456288613,-0.231934,-0.974609,-0.112793,-3.963415,1.219512,3.231707
1548456288635,-0.222412,-0.981445,-0.110413,-3.475610,1.951220,2.621951
1548456288636,-0.221313,-0.987000,-0.104553,-0.975610,3.231707,2.560976
1548456288643,-0.232910,-0.986206,-0.106445,1.768293,2.926829,1.890244
1548456288658,-0.228516,-0.987366,-0.118774,2.560976,2.743902,0.792683
1548456288666,-0.215454,-0.984863,-0.128113,1.646341,3.841464,0.426829
1548456288673,-0.212158,-0.989075,-0.122620,1.219512,4.512195,0.731707
1548456288688,-0.212708,-1.002869,-0.108948,1.829268,4.085366,1.036585
1548456288696,-0.214966,-1.005798,-0.088745,3.231707,2.865854,0.853659
1548456288703,-0.212708,-1.002808,-0.082031,4.146341,1.585366,0.609756
1548456288718,-0.208496,-1.000183,-0.089600,3.841464,1.036585,0.000000
1548456288725,-0.207458,-0.992432,-0.104553,2.256098,0.731707,-0.243902
1548456288740,-0.215027,-0.985046,-0.124451,0.060976,0.792683,0.731707
1548456288748,-0.220093,-0.982727,-0.132141,-1.219512,1.097561,1.707317
1548456288755,-0.212402,-0.991150,-0.124573,-0.914634,1.341463,2.865854
1548456288763,-0.206238,-0.984802,-0.115967,1.280488,2.012195,3.414634
1548456288778,-0.195862,-1.017456,-0.074524,4.817073,0.853659,3.048780
1548456288793,-0.184326,-1.001465,-0.094177,7.073171,1.097561,3.536585
1548456288793,-0.230896,-0.987183,-0.075195,4.695122,-1.158537,5.243903
1548456288808,-0.262085,-0.993286,-0.094360,-1.524390,-5.731708,2.439024
1548456288815,-0.220764,-0.968872,-0.132507,-3.902439,-1.036585,3.902439
1548456288823,-0.211853,-0.986328,-0.124878,-2.134146,4.329268,6.890244
1548456288838,-0.231140,-1.002991,-0.114624,-0.670732,0.060976,4.817073
1548456288846,-0.225830,-1.013000,-0.132874,0.853659,-1.524390,3.414634
1548456288860,-0.234253,-0.958313,-0.062256,1.829268,-1.402439,4.268293
1548456288868,-0.262878,-0.987793,-0.120667,2.195122,-1.890244,4.207317
1548456288875,-0.232422,-1.007996,-0.097412,4.146341,1.890244,5.182927
1548456288890,-0.216125,-0.968567,-0.096680,4.329268,4.085366,6.158537
1548456288898,-0.209900,-0.997253,-0.115723,3.353659,4.024390,5.853659
1548456288913,-0.201843,-0.995605,-0.101990,2.865854,3.292683,4.329268
1548456288913,-0.200623,-0.986206,-0.098572,3.414634,1.036585,4.756098
1548456288928,-0.230774,-0.992676,-0.091003,2.926829,-2.073171,4.024390
1548456288935,-0.247864,-0.990540,-0.093994,2.500000,-4.390244,3.353659
1548456288943,-0.247498,-0.974548,-0.110046,1.402439,-3.109756,3.536585
1548456288965,-0.226074,-0.970093,-0.131104,0.060976,-0.304878,4.512195
1548456288966,-0.217651,-0.975708,-0.133057,-0.060976,2.134146,4.939024
1548456288973,-0.229614,-0.974243,-0.125549,1.463415,1.280488,4.512195
1548456288988,-0.236389,-0.975708,-0.119690,3.536585,-0.304878,4.146341
1548456288995,-0.227356,-0.984497,-0.110535,5.548780,-0.243902,4.451220
1548456289003,-0.220703,-0.988770,-0.105530,7.134147,0.792683,4.939024
1548456289018,-0.223694,-0.985046,-0.105774,7.560976,0.731707,5.548780
1548456289025,-0.230286,-0.980103,-0.105896,7.256098,-0.060976,6.402439
1548456289033,-0.228271,-0.990173,-0.108093,7.682927,-0.548781,7.195122
1548456289048,-0.232056,-0.997742,-0.098999,9.085366,-0.670732,7.865854
1548456289056,-0.238464,-0.998230,-0.095032,10.182927,-1.341463,8.475610
1548456289070,-0.240967,-0.990356,-0.094177,10.060976,-1.890244,9.390244
1548456289078,-0.239014,-0.985474,-0.094849,9.817074,-1.646341,10.426829
1548456289085,-0.238708,-0.994568,-0.091064,10.121951,-1.524390,11.341464
1548456289093,-0.242676,-0.999084,-0.082336,11.036586,-1.768293,11.951220
1548456289108,-0.250183,-0.987305,-0.078918,11.829268,-2.560976,12.317074
1548456289123,-0.251160,-0.980164,-0.084778,11.585366,-3.292683,12.439025
1548456289123,-0.251282,-0.984253,-0.090759,11.524390,-3.048780,12.804878
1548456289145,-0.257385,-0.985596,-0.087097,11.890244,-2.256098,13.658537
1548456289146,-0.263062,-0.982056,-0.082642,12.134147,-2.256098,14.207317
1548456289153,-0.267700,-0.978821,-0.076782,11.951220,-2.378049,14.512196
1548456289168,-0.266357,-0.987976,-0.061157,12.621951,-1.890244,14.573171
1548456289190,-0.267273,-0.992432,-0.050415,14.146341,-1.646341,14.573171
1548456289191,-0.275818,-0.981323,-0.057190,14.573171,-2.378049,14.024390
1548456289198,-0.269958,-0.971558,-0.071960,12.865854,-2.987805,13.292684
1548456289206,-0.265198,-0.966248,-0.080383,10.304878,-2.743902,12.256098
1548456289221,-0.273132,-0.964722,-0.081482,8.902439,-3.658537,11.219512
1548456289228,-0.282410,-0.966125,-0.078369,8.719512,-5.548780,9.939025
1548456289243,-0.284302,-0.974915,-0.074280,9.512196,-6.402439,8.719512
1548456289244,-0.280701,-0.977844,-0.059265,11.646341,-6.036585,8.109756
1548456289258,-0.283325,-0.976257,-0.049438,14.207317,-5.853659,8.170732
1548456289266,-0.286499,-0.977417,-0.036499,16.219513,-6.219512,8.109756
1548456289273,-0.285889,-0.989380,-0.029419,17.560976,-5.975610,7.926829
1548456289295,-0.285156,-0.994934,-0.029541,17.865854,-5.609756,7.682927
1548456289296,-0.284973,-0.991333,-0.029846,16.646341,-5.426829,7.621952
1548456289311,-0.289307,-0.991028,-0.036682,14.451220,-5.243903,7.987805
1548456289318,-0.293518,-0.993652,-0.030029,12.500000,-4.817073,8.780488
1548456289326,-0.304993,-0.986633,-0.015442,10.975610,-4.573171,9.634147
1548456289333,-0.306763,-0.978760,-0.018982,10.487805,-4.695122,10.000000
1548456289348,-0.300232,-0.975952,-0.017822,10.853659,-3.780488,9.939025
1548456289363,-0.302795,-0.979858,-0.016174,11.341464,-3.170732,10.182927
1548456289363,-0.296875,-0.997253,-0.018555,11.524390,-2.500000,10.731708
1548456289378,-0.299072,-0.998657,-0.015381,10.914635,-1.402439,11.097561
1548456289385,-0.303162,-0.990295,-0.018250,9.268292,-1.463415,11.524390
1548456289393,-0.301758,-0.977966,-0.019348,7.378049,-1.219512,12.073171
1548456289415,-0.302002,-0.974915,-0.025635,6.524390,-0.548781,12.865854
1548456289416,-0.306335,-0.974243,-0.026367,6.707317,0.304878,13.963415
1548456289430,-0.314575,-0.980530,-0.021484,7.621952,0.426829,14.878049
1548456289438,-0.317749,-0.983765,-0.009338,8.414635,0.487805,15.487805
1548456289445,-0.319275,-0.978088,-0.005066,8.902439,0.792683,15.853659
1548456289453,-0.321228,-0.972900,0.001831,8.719512,0.975610,16.219513
1548456289468,-0.325500,-0.975952,0.001709,8.414635,1.341463,16.463415
1548456289483,-0.333618,-0.981995,-0.006104,7.804878,2.012195,16.951220
1548456289483,-0.334778,-0.981873,-0.008301,6.341464,3.048780,17.317074
1548456289498,-0.338562,-0.972351,-0.010132,4.268293,3.719512,17.378050
1548456289505,-0.340271,-0.960938,-0.014709,2.743902,4.146341,17.256098
1548456289521,-0.342224,-0.962158,-0.015381,2.439024,4.573171,17.195122
1548456289536,-0.341492,-0.969238,-0.008240,3.231707,5.304878,17.195122
1548456289536,-0.343323,-0.975586,-0.000305,4.329268,5.914634,17.439024
1548456289550,-0.348267,-0.961365,0.000183,4.390244,5.914634,17.560976
1548456289558,-0.352356,-0.964355,-0.003235,4.512195,5.731708,17.804878
1548456289573,-0.350952,-0.970764,-0.005432,4.146341,5.792683,17.439024
1548456289573,-0.349365,-0.969238,-0.009644,2.743902,6.524390,17.256098
1548456289588,-0.352173,-0.962219,-0.015198,1.097561,6.890244,17.195122
1548456289603,-0.360413,-0.954712,-0.021179,-0.609756,6.158537,16.890244
1548456289603,-0.365662,-0.952820,-0.022461,-1.219512,5.609756,16.646341
1548456289618,-0.372559,-0.949951,-0.018738,-0.670732,5.609756,16.585365
1548456289625,-0.374390,-0.948792,-0.013733,0.243902,5.426829,16.402439
1548456289640,-0.376038,-0.950989,-0.008606,1.402439,5.304878,16.036585
1548456289656,-0.375061,-0.952148,-0.007446,3.109756,4.939024,15.304878
1548456289656,-0.372070,-0.958618,-0.005920,4.085366,4.695122,15.000000
1548456289670,-0.369629,-0.961914,-0.006104,4.512195,5.060976,15.121951
1548456289678,-0.371033,-0.959473,-0.005249,4.451220,5.182927,15.548780
1548456289693,-0.374756,-0.957458,-0.004700,3.475610,4.878049,15.914635
1548456289693,-0.379395,-0.953430,-0.013367,2.256098,4.512195,16.158537
1548456289708,-0.381042,-0.947815,-0.021790,1.341463,4.512195,16.463415
1548456289723,-0.385315,-0.950378,-0.025146,0.304878,4.390244,16.341463
1548456289723,-0.395264,-0.945740,-0.024170,-0.609756,4.024390,15.975610
1548456289745,-0.402100,-0.941956,-0.020874,-0.914634,3.475610,15.670732
1548456289746,-0.404541,-0.941711,-0.013000,-0.365854,3.231707,15.548780
1548456289760,-0.404053,-0.940063,-0.006409,1.280488,3.414634,15.487805
1548456289776,-0.403015,-0.941895,-0.004089,2.804878,3.597561,15.182927
1548456289776,-0.403503,-0.944092,-0.007629,3.719512,3.780488,15.304878
1548456289790,-0.406555,-0.945862,-0.014771,3.719512,4.146341,15.548780
1548456289798,-0.407715,-0.942139,-0.019348,2.926829,4.695122,15.853659
1548456289813,-0.413208,-0.941589,-0.023621,1.524390,4.939024,15.853659
1548456289813,-0.419922,-0.938477,-0.018860,0.487805,4.573171,15.609756
1548456289829,-0.421265,-0.935364,-0.013550,0.548781,3.902439,15.304878
1548456289843,-0.422241,-0.933105,-0.013794,1.219512,3.475610,14.878049
1548456289844,-0.422241,-0.932861,-0.008789,2.317073,3.658537,14.512196
1548456289866,-0.424500,-0.931702,-0.003174,2.987805,3.780488,14.451220
1548456289866,-0.429993,-0.934509,-0.008972,3.231707,3.902439,14.817074
1548456289880,-0.436401,-0.940674,-0.014709,3.231707,4.390244,15.182927
1548456289895,-0.438110,-0.940979,-0.015808,2.865854,5.243903,15.731708
1548456289896,-0.438660,-0.937866,-0.016846,1.768293,5.670732,15.975610
1548456289903,-0.438599,-0.932434,-0.017639,0.548781,5.792683,16.097561
1548456289918,-0.437256,-0.924683,-0.012207,0.060976,5.914634,16.280489
1548456289933,-0.441467,-0.925903,-0.012207,0.426829,5.609756,16.707317
1548456289933,-0.445190,-0.928589,-0.011230,1.036585,5.487805,16.951220
1548456289948,-0.451965,-0.926819,-0.011841,1.829268,5.304878,17.621952
1548456289956,-0.450195,-0.933411,-0.021606,1.951220,5.426829,18.048780
1548456289963,-0.447327,-0.933105,-0.023560,1.341463,6.280488,18.231709
1548456289985,-0.454407,-0.919800,-0.023315,0.731707,6.524390,19.085367
1548456289986,-0.459778,-0.917480,-0.026733,0.243902,6.219512,20.243902
1548456290000,-0.462402,-0.920349,-0.024231,0.487805,6.219512,20.731709
1548456290015,-0.462891,-0.919678,-0.017029,1.158537,6.036585,21.097561
1548456290016,-0.464172,-0.920410,-0.007019,1.829268,5.792683,21.341463
1548456290023,-0.470154,-0.916626,-0.009460,2.560976,5.731708,21.524391
1548456290038,-0.474182,-0.921204,-0.018250,3.048780,5.731708,21.768293
1548456290046,-0.477661,-0.918457,-0.019653,2.378049,6.463415,21.829269
1548456290053,-0.480286,-0.911621,-0.022949,1.158537,6.890244,22.743902
1548456290068,-0.490479,-0.908997,-0.024231,-0.182927,7.134147,23.536587
1548456290075,-0.497437,-0.901672,-0.026855,-0.853659,6.829268,23.536587
1548456290083,-0.502258,-0.895996,-0.027710,-0.548781,6.768293,23.719513
1548456290098,-0.501892,-0.896423,-0.028015,0.000000,7.195122,23.902439
1548456290105,-0.506226,-0.896545,-0.025391,0.914634,7.621952,23.963415
1548456290120,-0.510437,-0.896057,-0.024597,1.707317,7.621952,24.329269
1548456290135,-0.514221,-0.900757,-0.026794,1.890244,8.109756,24.512196
1548456290136,-0.516602,-0.896729,-0.018005,1.646341,8.719512,24.695122
1548456290151,-0.518738,-0.895142,-0.013367,1.097561,8.902439,25.121952
1548456290158,-0.519958,-0.890503,-0.015015,0.670732,9.146341,25.121952
1548456290165,-0.520386,-0.887268,-0.017029,0.792683,9.268292,24.939026
1548456290173,-0.525330,-0.888000,-0.018188,0.792683,9.207317,25.000000
1548456290195,-0.532288,-0.890259,-0.022400,0.243902,9.756098,24.878050
1548456290203,-0.537964,-0.886841,-0.026367,-0.914634,10.365854,24.878050
1548456290204,-0.545532,-0.882202,-0.031738,-2.378049,10.792684,25.304878
1548456290218,-0.548157,-0.877136,-0.034119,-3.353659,11.219512,25.182928
1548456290225,-0.550720,-0.868530,-0.033569,-3.170732,11.463415,25.121952
1548456290233,-0.553467,-0.861023,-0.036621,-2.865854,11.524390,25.182928
1548456290256,-0.557800,-0.861572,-0.036072,-2.378049,12.012196,25.000000
1548456290256,-0.560669,-0.866516,-0.033325,-1.341463,12.743903,24.573172
1548456290270,-0.568115,-0.866028,-0.033936,-0.731707,12.926829,24.390244
1548456290285,-0.571472,-0.863770,-0.036926,-0.975610,13.414635,24.634148
1548456290293,-0.571472,-0.862305,-0.043823,-1.890244,14.207317,24.573172
1548456290293,-0.572998,-0.861633,-0.047058,-3.048780,14.634147,24.207317
1548456290308,-0.575256,-0.854675,-0.050659,-4.451220,14.634147,23.780489
1548456290323,-0.576904,-0.851624,-0.051941,-5.670732,14.512196,23.597561
1548456290323,-0.582092,-0.849487,-0.054932,-6.219512,14.207317,23.231709
1548456290338,-0.586304,-0.843262,-0.059265,-6.158537,13.841464,22.621952
1548456290360,-0.587769,-0.837769,-0.067261,-6.036585,13.475610,22.195122
1548456290361,-0.590881,-0.840881,-0.063843,-5.792683,13.414635,21.463415
1548456290375,-0.596130,-0.839478,-0.061523,-5.182927,13.414635,20.914635
1548456290376,-0.600098,-0.836365,-0.062805,-4.451220,13.353659,20.792683
1548456290390,-0.600403,-0.835999,-0.074402,-4.207317,13.414635,20.670732
1548456290398,-0.598999,-0.835205,-0.078674,-4.451220,13.536586,20.243902
1548456290406,-0.600342,-0.832764,-0.076416,-4.817073,13.170732,19.756098
1548456290413,-0.607910,-0.828430,-0.077637,-5.304878,12.621951,19.207317
1548456290428,-0.604187,-0.832214,-0.084900,-5.121951,12.195122,18.902439
1548456290443,-0.609009,-0.820068,-0.079956,-4.817073,12.073171,18.170732
1548456290443,-0.611694,-0.815308,-0.081360,-4.756098,11.097561,18.414635
1548456290458,-0.614929,-0.820923,-0.091309,-4.756098,10.853659,17.804878
1548456290465,-0.618042,-0.817810,-0.093140,-4.878049,10.365854,16.829269
1548456290473,-0.619690,-0.815247,-0.096680,-4.634146,9.634147,16.280489
1548456290495,-0.623352,-0.811401,-0.096436,-4.390244,9.207317,15.487805
1548456290496,-0.624634,-0.812927,-0.099548,-3.597561,8.780488,15.182927
1548456290503,-0.625061,-0.814026,-0.100891,-2.621951,8.536586,14.939025
1548456290518,-0.629089,-0.809937,-0.098206,-2.073171,8.109756,14.634147
1548456290526,-0.627319,-0.805847,-0.096741,-1.707317,7.500000,14.329268
1548456290541,-0.630310,-0.805237,-0.100403,-1.097561,7.256098,13.963415
1548456290548,-0.632507,-0.803711,-0.101624,-0.487805,7.073171,13.658537
1548456290563,-0.632935,-0.798218,-0.106812,-0.548781,6.768293,13.170732
1548456290564,-0.636597,-0.794312,-0.110229,-1.158537,6.463415,12.621951
1548456290578,-0.640381,-0.796265,-0.106995,-0.975610,5.670732,12.012196
1548456290586,-0.642700,-0.798523,-0.103088,-0.243902,4.695122,11.463415
1548456290593,-0.641357,-0.801575,-0.105042,0.426829,3.841464,10.670732
1548456290615,-0.641174,-0.798523,-0.102600,0.731707,3.414634,9.878049
1548456290616,-0.640259,-0.797852,-0.106934,0.670732,3.048780,9.451220
1548456290623,-0.641113,-0.800232,-0.107178,0.426829,2.987805,8.841464
1548456290638,-0.644226,-0.799316,-0.106628,0.670732,2.804878,8.536586
1548456290645,-0.645935,-0.796326,-0.102722,0.853659,2.134146,8.353659
1548456290653,-0.645752,-0.793335,-0.107117,0.609756,1.646341,7.804878
1548456290668,-0.647034,-0.794312,-0.107544,0.670732,1.158537,7.073171
1548456290675,-0.647522,-0.799316,-0.102844,1.280488,0.426829,6.463415
1548456290683,-0.644409,-0.801331,-0.105164,1.829268,-0.060976,6.097561
1548456290698,-0.645325,-0.799805,-0.106873,1.951220,-0.426829,5.792683
1548456290705,-0.644836,-0.798462,-0.102051,1.524390,-0.914634,5.853659
1548456290713,-0.648865,-0.796265,-0.098022,1.219512,-1.280488,6.158537
1548456290735,-0.652527,-0.797180,-0.096619,1.524390,-1.402439,6.707317
1548456290736,-0.655396,-0.793579,-0.097595,1.707317,-1.707317,6.829268
1548456290750,-0.658813,-0.793884,-0.098816,1.646341,-2.134146,6.768293
1548456290765,-0.660095,-0.794006,-0.096802,1.463415,-2.439024,6.402439
1548456290766,-0.661194,-0.793579,-0.096924,1.158537,-2.378049,6.036585
1548456290773,-0.663147,-0.788574,-0.100098,0.548781,-2.073171,6.097561
1548456290788,-0.665161,-0.784546,-0.101074,0.121951,-1.585366,6.158537
1548456290795,-0.665588,-0.782776,-0.096558,0.731707,-0.731707,6.341464
1548456290803,-0.663086,-0.786194,-0.093689,2.378049,0.000000,6.951220
1548456290825,-0.664062,-0.793823,-0.089905,4.329268,0.731707,7.743903
1548456290826,-0.664734,-0.799866,-0.089722,5.304878,1.646341,8.475610
1548456290840,-0.662720,-0.800293,-0.088074,5.060976,2.134146,9.024390
1548456290848,-0.662415,-0.796570,-0.093689,3.780488,2.682927,9.451220
1548456290855,-0.666748,-0.797119,-0.095398,2.195122,3.109756,9.756098
1548456290863,-0.667725,-0.795105,-0.091003,0.731707,3.475610,9.878049
1548456290878,-0.672241,-0.788147,-0.091797,-0.548781,3.475610,10.000000
1548456290885,-0.673950,-0.785645,-0.094604,-1.341463,3.536585,10.182927
1548456290893,-0.674316,-0.780518,-0.099121,-1.890244,4.085366,10.487805
1548456290909,-0.673584,-0.776123,-0.101318,-1.890244,4.939024,10.670732
1548456290915,-0.674561,-0.774963,-0.099670,-1.463415,5.487805,10.670732
1548456290923,-0.677307,-0.773193,-0.099548,-1.280488,5.731708,10.792684
1548456290938,-0.682312,-0.770569,-0.096252,-1.280488,5.853659,10.426829
1548456290945,-0.683533,-0.772827,-0.098145,-0.792683,5.731708,9.878049
1548456290953,-0.683777,-0.772888,-0.100098,-0.609756,6.036585,9.390244
1548456290968,-0.682495,-0.774109,-0.107727,-1.219512,6.402439,8.902439
1548456290975,-0.683899,-0.769104,-0.110718,-2.378049,6.707317,8.231708
1548456290983,-0.685974,-0.763062,-0.112732,-3.353659,6.768293,7.743903
1548456290998,-0.684875,-0.761108,-0.118652,-3.719512,6.829268,7.500000
1548456291005,-0.686035,-0.757141,-0.117065,-3.658537,6.768293,7.195122
1548456291013,-0.687134,-0.759338,-0.113037,-2.987805,6.219512,6.524390
1548456291028,-0.685486,-0.763672,-0.109192,-1.707317,5.670732,6.158537
1548456291035,-0.683411,-0.766602,-0.115417,-1.036585,5.548780,5.548780
1548456291043,-0.680115,-0.765808,-0.120483,-1.585366,5.731708,5.000000
1548456291058,-0.681946,-0.762878,-0.124084,-2.743902,5.487805,4.390244
1548456291065,-0.684692,-0.759766,-0.126221,-3.353659,4.939024,3.963415
1548456291073,-0.684082,-0.759155,-0.125793,-3.414634,4.390244,3.658537
1548456291088,-0.685242,-0.759460,-0.127136,-2.926829,3.597561,3.292683
1548456291095,-0.681824,-0.759949,-0.131714,-2.256098,2.804878,2.865854
1548456291103,-0.680603,-0.758362,-0.131592,-1.890244,2.195122,2.195122
1548456291118,-0.680969,-0.757507,-0.128784,-1.585366,1.585366,1.768293
1548456291125,-0.682739,-0.755005,-0.132629,-1.219512,1.280488,1.463415
1548456291133,-0.684509,-0.756348,-0.133667,-0.792683,0.487805,1.219512
1548456291148,-0.681580,-0.756287,-0.133362,-0.426829,-0.426829,0.670732
1548456291156,-0.680481,-0.756897,-0.130188,-0.060976,-1.219512,-0.121951
1548456291163,-0.680481,-0.757996,-0.130371,0.487805,-2.073171,-0.853659
1548456291178,-0.682556,-0.760986,-0.125977,0.731707,-3.048780,-1.463415
1548456291186,-0.685974,-0.759521,-0.123169,0.609756,-3.963415,-1.951220
1548456291193,-0.686279,-0.756042,-0.125610,0.243902,-4.878049,-2.560976
1548456291208,-0.686584,-0.755066,-0.127930,0.000000,-5.548780,-3.536585
1548456291216,-0.682678,-0.752625,-0.127075,0.243902,-5.975610,-4.390244
1548456291223,-0.683472,-0.751465,-0.125549,0.914634,-6.402439,-5.060976
1548456291238,-0.682373,-0.754883,-0.128723,1.524390,-6.951220,-5.914634
1548456291245,-0.680908,-0.759399,-0.128418,2.317073,-7.195122,-6.707317
1548456291253,-0.680908,-0.764587,-0.122864,2.926829,-7.926829,-7.256098
1548456291269,-0.679565,-0.767029,-0.117676,3.109756,-8.658537,-7.926829
1548456291275,-0.680115,-0.768555,-0.112305,3.109756,-9.390244,-8.780488
1548456291284,-0.678284,-0.769714,-0.114441,2.743902,-10.000000,-9.695122
1548456291298,-0.671753,-0.767883,-0.115906,2.134146,-10.365854,-10.426829
1548456291305,-0.669800,-0.770691,-0.111145,1.829268,-10.731708,-10.914635
1548456291313,-0.673340,-0.772705,-0.107544,1.707317,-11.585366,-11.341464
1548456291328,-0.672668,-0.775024,-0.109253,1.890244,-12.317074,-11.707317
1548456291335,-0.669800,-0.773621,-0.107788,1.768293,-12.439025,-12.439025
1548456291343,-0.668884,-0.778992,-0.107422,1.951220,-12.743903,-13.048780
1548456291358,-0.667236,-0.779602,-0.105042,2.256098,-13.231708,-13.719513
1548456291365,-0.663940,-0.780823,-0.102966,2.439024,-13.475610,-14.085366
1548456291373,-0.660400,-0.783325,-0.101929,2.560976,-13.658537,-14.512196
1548456291395,-0.660583,-0.783936,-0.096191,2.500000,-14.146341,-14.817074
1548456291396,-0.659912,-0.789490,-0.093689,2.804878,-14.573171,-15.243903
1548456291403,-0.656982,-0.790710,-0.096619,2.682927,-15.121951,-15.670732
1548456291418,-0.654907,-0.788208,-0.095154,2.195122,-15.304878,-15.975610
1548456291425,-0.652710,-0.790344,-0.086853,2.256098,-15.487805,-16.219513
1548456291433,-0.652405,-0.795349,-0.085388,2.865854,-16.219513,-16.524391
1548456291448,-0.649658,-0.798340,-0.085022,3.536585,-16.646341,-16.951220
1548456291455,-0.645813,-0.797974,-0.081909,3.841464,-16.768293,-17.195122
1548456291463,-0.645630,-0.801453,-0.077881,4.146341,-16.768293,-17.195122
1548456291485,-0.641846,-0.804199,-0.078247,4.390244,-16.585365,-17.439024
1548456291486,-0.640198,-0.806274,-0.074036,4.695122,-16.463415,-17.073172
1548456291500,-0.639099,-0.810486,-0.072205,4.939024,-16.402439,-16.768293
1548456291508,-0.636353,-0.808838,-0.067993,4.878049,-16.829269,-16.890244
1548456291516,-0.633179,-0.812927,-0.067749,4.451220,-17.134148,-17.073172
1548456291523,-0.633179,-0.819519,-0.064514,4.207317,-17.073172,-17.317074
1548456291538,-0.630737,-0.820740,-0.065613,4.085366,-17.073172,-17.195122
1548456291560,-0.628967,-0.823242,-0.058777,3.658537,-17.256098,-17.012196
1548456291561,-0.630615,-0.820984,-0.050171,3.170732,-17.378050,-16.890244
1548456291568,-0.626038,-0.822083,-0.047668,3.231707,-17.195122,-16.890244
1548456291590,-0.621887,-0.823120,-0.045593,3.536585,-16.646341,-16.890244
1548456291591,-0.620667,-0.825134,-0.040894,4.146341,-16.219513,-16.646341
1548456291605,-0.618774,-0.828430,-0.040894,4.573171,-15.670732,-16.280489
1548456291606,-0.616577,-0.832825,-0.041748,4.573171,-14.878049,-16.158537
1548456291613,-0.614624,-0.836121,-0.042603,4.024390,-13.963415,-16.036585
1548456291628,-0.611816,-0.835022,-0.037231,3.353659,-13.353659,-15.914635
1548456291643,-0.612610,-0.833740,-0.036621,2.621951,-13.231708,-15.975610
1548456291643,-0.611023,-0.833862,-0.037170,2.073171,-13.048780,-16.402439
1548456291658,-0.605896,-0.834656,-0.033813,1.646341,-12.804878,-16.829269
1548456291673,-0.607361,-0.838989,-0.030212,1.463415,-12.682927,-17.195122
1548456291673,-0.603455,-0.842041,-0.030457,1.158537,-12.378049,-17.500000
1548456291695,-0.597839,-0.844238,-0.032898,0.609756,-11.768293,-17.743902
1548456291696,-0.594604,-0.846313,-0.033875,-0.060976,-11.097561,-17.865854
1548456291710,-0.597656,-0.843689,-0.031616,-0.670732,-11.036586,-17.865854
1548456291725,-0.596924,-0.843201,-0.028198,-1.341463,-10.914635,-18.048780
1548456291726,-0.597351,-0.846130,-0.023987,-1.585366,-10.426829,-18.048780
1548456291733,-0.594177,-0.842651,-0.025635,-1.341463,-9.634147,-17.926830
1548456291748,-0.584412,-0.847290,-0.029602,-0.670732,-8.841464,-18.048780
1548456291763,-0.575867,-0.853210,-0.031006,0.243902,-8.048780,-17.987804
1548456291763,-0.569275,-0.859680,-0.028442,1.036585,-7.256098,-17.621952
1548456291778,-0.566895,-0.866333,-0.026917,1.219512,-7.134147,-17.195122
1548456291786,-0.566406,-0.869751,-0.028564,0.609756,-7.256098,-16.829269
1548456291801,-0.567200,-0.868469,-0.025818,-0.792683,-7.378049,-16.768293
1548456291815,-0.563293,-0.868408,-0.023193,-2.134146,-7.560976,-16.829269
1548456291816,-0.562988,-0.864197,-0.022278,-3.231707,-7.743903,-16.890244
1548456291831,-0.561707,-0.862976,-0.024048,-3.841464,-7.926829,-16.890244
1548456291838,-0.558960,-0.864258,-0.028564,-3.536585,-7.804878,-17.073172
1548456291853,-0.552856,-0.865234,-0.028259,-2.743902,-7.317073,-16.890244
1548456291854,-0.550049,-0.867126,-0.031250,-1.829268,-6.890244,-16.585365
1548456291875,-0.547180,-0.869690,-0.028748,-0.914634,-6.524390,-16.280489
1548456291876,-0.542969,-0.873657,-0.025085,0.121951,-6.341464,-15.914635
1548456291891,-0.540833,-0.879395,-0.026733,0.792683,-6.341464,-15.609756
1548456291898,-0.537598,-0.881653,-0.023804,0.853659,-6.463415,-15.304878
1548456291906,-0.536926,-0.881836,-0.020752,0.426829,-7.012195,-15.182927
1548456291913,-0.537476,-0.882996,-0.020569,-0.365854,-7.682927,-15.365854
1548456291928,-0.537048,-0.881165,-0.023621,-1.036585,-8.048780,-15.487805
1548456291935,-0.535278,-0.879333,-0.023376,-1.646341,-8.048780,-15.487805
1548456291943,-0.533203,-0.881165,-0.023499,-1.951220,-7.987805,-15.426829
1548456291966,-0.529175,-0.880798,-0.020935,-1.768293,-7.378049,-15.243903
1548456291973,-0.526428,-0.881775,-0.024963,-1.219512,-7.073171,-15.000000
1548456291973,-0.524963,-0.883728,-0.023865,-0.487805,-6.951220,-14.817074
1548456291988,-0.519165,-0.887268,-0.021851,0.426829,-7.012195,-14.756098
1548456291995,-0.516174,-0.891052,-0.021362,1.158537,-7.378049,-14.817074
1548456292010,-0.512634,-0.894043,-0.022644,1.219512,-7.865854,-15.060976
1548456292018,-0.509277,-0.895935,-0.021790,0.731707,-7.865854,-15.060976
1548456292033,-0.510559,-0.895264,-0.017761,0.121951,-7.987805,-14.878049
1548456292048,-0.509399,-0.896729,-0.016846,-0.121951,-8.109756,-14.817074
1548456292048,-0.509094,-0.894531,-0.011719,-0.365854,-8.231708,-14.512196
1548456292063,-0.509399,-0.895508,-0.013062,-0.548781,-8.292683,-14.451220
1548456292063,-0.504822,-0.897217,-0.010742,-0.121951,-7.926829,-14.451220
1548456292085,-0.502686,-0.897339,-0.010010,0.609756,-7.439024,-14.390244
1548456292086,-0.499878,-0.900024,-0.011169,0.975610,-7.134147,-14.146341
1548456292093,-0.497009,-0.906128,-0.011658,0.975610,-7.073171,-14.146341
1548456292115,-0.494141,-0.908325,-0.011475,0.487805,-7.195122,-14.085366
1548456292116,-0.494568,-0.905823,-0.011719,-0.304878,-7.256098,-14.207317
1548456292138,-0.491089,-0.906128,-0.010254,-0.792683,-7.317073,-14.146341
1548456292138,-0.490173,-0.906738,-0.010254,-1.036585,-7.256098,-14.024390
1548456292145,-0.488403,-0.907043,-0.005737,-1.036585,-7.134147,-14.146341
1548456292153,-0.484009,-0.905884,-0.006104,-1.036585,-7.012195,-14.207317
1548456292168,-0.484192,-0.907043,-0.010986,-1.158537,-6.890244,-14.207317
1548456292176,-0.483154,-0.908813,-0.010620,-1.341463,-6.402439,-14.329268
1548456292183,-0.479553,-0.911011,-0.010803,-1.524390,-5.914634,-14.329268
1548456292205,-0.476501,-0.912476,-0.011108,-1.585366,-5.731708,-14.512196
1548456292206,-0.473633,-0.912720,-0.010010,-1.585366,-5.548780,-14.695123
1548456292221,-0.471680,-0.913879,-0.008667,-1.707317,-5.731708,-14.756098
1548456292243,-0.468628,-0.916931,-0.006470,-1.829268,-5.731708,-14.756098
1548456292243,-0.465332,-0.920349,-0.005981,-1.829268,-5.609756,-14.878049
1548456292244,-0.465332,-0.921753,-0.006104,-1.951220,-5.487805,-15.060976
1548456292258,-0.464600,-0.920227,-0.006775,-2.439024,-5.304878,-15.060976
1548456292273,-0.459839,-0.920593,-0.007996,-2.926829,-4.817073,-15.060976
1548456292274,-0.456116,-0.920837,-0.008911,-3.597561,-4.390244,-15.243903
1548456292288,-0.455872,-0.920227,-0.013245,-4.085366,-4.085366,-15.243903
1548456292311,-0.454834,-0.920715,-0.012451,-4.573171,-3.841464,-15.426829
1548456292311,-0.452698,-0.921265,-0.008301,-4.817073,-3.841464,-15.670732
1548456292312,-0.449646,-0.921265,-0.010986,-4.573171,-3.719512,-15.975610
1548456292326,-0.444397,-0.926270,-0.010864,-4.207317,-3.414634,-16.463415
1548456292348,-0.439758,-0.929932,-0.008423,-4.146341,-2.865854,-16.829269
1548456292348,-0.439087,-0.933716,-0.008850,-4.024390,-2.439024,-16.890244
1548456292363,-0.437561,-0.936218,-0.013977,-4.085366,-2.256098,-16.524391
1548456292363,-0.433960,-0.934998,-0.015076,-4.695122,-2.012195,-16.158537
1548456292378,-0.430054,-0.934143,-0.014038,-5.548780,-1.951220,-15.914635
1548456292393,-0.427063,-0.933716,-0.016113,-6.280488,-1.829268,-15.731708
1548456292393,-0.422852,-0.934509,-0.017944,-6.524390,-1.951220,-15.609756
1548456292415,-0.418579,-0.935303,-0.022034,-6.158537,-1.951220,-15.609756
1548456292416,-0.416138,-0.940125,-0.024475,-5.792683,-2.134146,-15.548780
1548456292430,-0.410950,-0.942810,-0.023804,-5.731708,-2.317073,-15.670732
1548456292446,-0.408386,-0.938721,-0.022522,-5.487805,-2.500000,-15.670732
1548456292446,-0.407837,-0.939026,-0.025146,-5.426829,-2.621951,-15.365854
1548456292453,-0.404785,-0.941772,-0.025330,-5.243903,-2.378049,-15.060976
1548456292483,-0.401855,-0.943542,-0.027039,-4.817073,-2.439024,-14.817074
1548456292483,-0.399902,-0.942810,-0.029114,-4.512195,-2.743902,-14.634147
1548456292484,-0.397278,-0.943176,-0.026184,-4.512195,-2.926829,-14.573171
1548456292505,-0.393311,-0.945801,-0.028259,-4.512195,-3.109756,-14.573171
1548456292506,-0.393616,-0.947021,-0.025940,-4.390244,-3.414634,-14.695123
1548456292521,-0.393921,-0.947021,-0.025269,-4.390244,-3.902439,-14.878049
1548456292535,-0.392029,-0.948303,-0.031921,-4.695122,-3.963415,-15.000000
1548456292536,-0.388855,-0.942993,-0.031067,-4.817073,-3.719512,-14.939025
1548456292551,-0.388123,-0.944763,-0.031433,-4.756098,-3.536585,-14.756098
1548456292558,-0.387268,-0.947937,-0.034607,-4.207317,-3.414634,-14.573171
1548456292573,-0.384277,-0.949829,-0.034119,-3.353659,-3.353659,-14.512196
1548456292573,-0.379700,-0.956543,-0.032410,-2.682927,-3.719512,-14.634147
1548456292589,-0.374084,-0.959106,-0.028137,-2.317073,-3.963415,-14.878049
1548456292603,-0.368530,-0.960144,-0.030273,-2.560976,-3.902439,-14.939025
1548456292603,-0.364197,-0.963318,-0.030029,-3.048780,-3.719512,-14.451220
1548456292618,-0.361694,-0.963196,-0.034790,-3.353659,-3.719512,-13.841464
1548456292625,-0.362793,-0.960632,-0.035645,-3.475610,-4.146341,-13.109756
1548456292641,-0.361267,-0.960693,-0.037170,-3.353659,-4.268293,-12.378049
1548456292655,-0.359131,-0.959656,-0.036438,-2.743902,-4.207317,-11.646341
1548456292656,-0.357117,-0.963684,-0.037354,-1.951220,-4.024390,-10.975610
1548456292663,-0.358826,-0.966309,-0.038757,-1.280488,-3.902439,-10.182927
1548456292678,-0.356445,-0.964417,-0.038452,-0.914634,-4.146341,-9.390244
1548456292693,-0.355896,-0.966797,-0.033081,-0.975610,-4.085366,-8.780488
1548456292693,-0.354431,-0.968750,-0.031311,-0.914634,-4.085366,-8.231708
1548456292708,-0.354431,-0.966919,-0.032288,-0.914634,-3.963415,-7.926829
1548456292723,-0.352600,-0.963074,-0.026672,-1.646341,-3.963415,-7.560976
1548456292745,-0.353088,-0.961365,-0.030701,-1.707317,-3.963415,-7.134147
1548456292746,-0.354858,-0.964661,-0.033142,-1.585366,-3.719512,-6.951220
1548456292746,-0.351562,-0.965088,-0.030823,-1.768293,-3.353659,-6.585366
1548456292760,-0.349182,-0.962708,-0.030090,-1.829268,-2.804878,-6.219512
1548456292775,-0.350647,-0.962524,-0.033081,-2.073171,-2.500000,-6.097561
1548456292776,-0.352844,-0.960266,-0.029114,-2.439024,-2.378049,-6.158537
1548456292783,-0.350464,-0.960876,-0.031189,-2.682927,-2.621951,-6.402439
1548456292798,-0.349609,-0.963440,-0.030579,-2.560976,-2.439024,-6.768293
1548456292813,-0.348389,-0.964294,-0.028198,-2.500000,-2.256098,-7.073171
1548456292814,-0.344604,-0.963257,-0.032043,-2.560976,-2.256098,-7.378049
1548456292828,-0.343140,-0.962036,-0.034851,-3.048780,-2.134146,-7.621952
1548456292835,-0.340271,-0.962585,-0.037476,-3.475610,-2.073171,-7.743903
1548456292850,-0.338745,-0.965820,-0.038879,-3.475610,-1.829268,-7.865854
1548456292865,-0.340942,-0.965027,-0.040405,-3.414634,-1.768293,-8.109756
1548456292866,-0.338501,-0.964172,-0.042664,-3.475610,-1.890244,-8.170732
1548456292880,-0.335815,-0.964539,-0.047241,-3.353659,-2.012195,-8.292683
1548456292888,-0.330933,-0.968262,-0.043762,-2.926829,-1.951220,-8.536586
1548456292903,-0.327698,-0.967773,-0.040771,-2.500000,-2.012195,-8.414635
1548456292903,-0.328125,-0.968994,-0.044495,-2.073171,-2.256098,-8.292683
1548456292918,-0.323608,-0.970886,-0.042480,-1.707317,-2.378049,-8.170732
1548456292926,-0.323181,-0.972961,-0.038330,-1.463415,-2.621951,-8.048780
1548456292933,-0.319580,-0.973022,-0.046692,-1.341463,-2.804878,-7.865854
1548456292948,-0.317749,-0.973328,-0.045959,-1.402439,-3.048780,-7.500000
1548456292955,-0.318848,-0.973511,-0.043213,-1.463415,-3.048780,-7.073171
1548456292970,-0.321106,-0.974121,-0.041748,-1.524390,-3.414634,-6.707317
1548456292978,-0.324036,-0.974365,-0.041565,-1.341463,-3.658537,-6.280488
1548456292985,-0.323120,-0.970642,-0.044983,-1.280488,-3.658537,-6.036585
1548456292993,-0.318909,-0.971375,-0.044556,-1.463415,-3.414634,-6.036585
1548456293008,-0.318604,-0.972473,-0.044495,-1.524390,-3.292683,-6.097561
1548456293023,-0.317688,-0.972778,-0.041809,-1.219512,-3.475610,-6.280488
1548456293023,-0.318604,-0.972839,-0.041443,-1.158537,-3.536585,-6.463415
1548456293038,-0.315491,-0.975952,-0.036560,-1.280488,-3.292683,-6.768293
1548456293046,-0.311462,-0.977051,-0.036072,-1.341463,-3.048780,-6.890244
1548456293053,-0.311890,-0.974609,-0.034973,-1.707317,-2.987805,-7.134147
1548456293075,-0.311646,-0.976624,-0.037231,-2.439024,-2.804878,-7.378049
1548456293076,-0.315430,-0.975708,-0.039368,-3.353659,-2.378049,-7.682927
1548456293083,-0.313416,-0.973572,-0.037354,-4.451220,-1.585366,-8.109756
1548456293098,-0.311096,-0.969971,-0.037598,-5.548780,-1.036585,-8.353659
1548456293106,-0.310547,-0.970215,-0.037781,-6.219512,-0.731707,-8.841464
1548456293113,-0.312744,-0.966125,-0.038513,-6.646342,-0.670732,-9.573171
1548456293128,-0.308533,-0.964722,-0.041687,-7.012195,-0.731707,-10.182927
1548456293143,-0.304932,-0.971497,-0.045471,-6.707317,-0.365854,-10.670732
1548456293143,-0.300232,-0.982239,-0.053467,-6.341464,-0.365854,-11.036586
1548456293158,-0.297302,-0.981262,-0.052063,-6.646342,-0.304878,-11.402439
1548456293166,-0.296082,-0.973389,-0.055420,-6.951220,-0.731707,-11.524390
1548456293181,-0.289368,-0.975769,-0.057495,-7.439024,-1.158537,-11.585366
1548456293188,-0.281555,-0.981873,-0.060242,-6.646342,-1.646341,-11.768293
1548456293195,-0.280701,-0.981995,-0.063049,-5.731708,-2.195122,-11.890244
1548456293203,-0.275513,-0.980774,-0.067444,-5.609756,-2.560976,-11.890244
1548456293218,-0.272644,-0.979370,-0.065918,-5.670732,-2.926829,-11.463415
1548456293233,-0.273499,-0.981201,-0.068970,-5.426829,-3.597561,-10.853659
1548456293234,-0.273987,-0.977783,-0.071533,-5.000000,-4.146341,-10.426829
1548456293248,-0.274536,-0.975281,-0.071899,-4.634146,-4.878049,-10.182927
1548456293255,-0.272705,-0.978516,-0.068970,-3.963415,-5.487805,-10.000000
1548456293263,-0.271545,-0.982361,-0.066650,-2.987805,-6.158537,-10.243902
1548456293278,-0.268494,-0.979309,-0.066345,-2.621951,-7.134147,-10.670732
1548456293286,-0.265747,-0.979614,-0.067627,-2.317073,-8.048780,-11.097561
1548456293300,-0.263000,-0.980347,-0.064026,-2.012195,-8.780488,-11.890244
1548456293315,-0.260803,-0.983215,-0.064209,-1.829268,-9.756098,-12.317074
1548456293316,-0.258911,-0.985535,-0.064697,-1.707317,-10.731708,-12.804878
1548456293330,-0.256348,-0.978333,-0.065491,-1.890244,-11.402439,-12.926829
1548456293338,-0.258972,-0.976562,-0.069458,-2.073171,-12.073171,-13.231708
1548456293353,-0.256348,-0.978271,-0.066589,-1.890244,-12.926829,-13.658537
1548456293354,-0.256104,-0.980225,-0.067627,-1.402439,-13.475610,-14.268293
1548456293368,-0.254517,-0.976013,-0.069519,-0.975610,-13.841464,-15.060976
1548456293376,-0.249756,-0.981567,-0.067444,-0.243902,-14.085366,-15.670732
1548456293383,-0.249084,-0.984070,-0.060669,0.243902,-14.573171,-16.463415
1548456293405,-0.250366,-0.981934,-0.051697,0.609756,-15.426829,-17.317074
1548456293406,-0.242432,-0.972839,-0.046753,0.182927,-15.975610,-18.048780
1548456293413,-0.238586,-0.981018,-0.053101,0.121951,-15.792684,-18.292683
1548456293428,-0.239014,-0.999939,-0.054565,0.731707,-15.609756,-18.719513
1548456293435,-0.236328,-1.008484,-0.058655,0.853659,-15.121951,-19.146341
1548456293443,-0.236816,-0.988098,-0.046936,0.792683,-14.756098,-19.451220
1548456293458,-0.228210,-0.989197,-0.053223,0.243902,-14.695123,-19.390244
1548456293473,-0.224304,-1.003540,-0.051514,-0.365854,-14.329268,-19.573172
1548456293473,-0.223267,-1.003296,-0.045471,0.060976,-14.512196,-20.000000
1548456293488,-0.218384,-1.006897,-0.055359,-0.426829,-14.390244,-19.817074
1548456293496,-0.210815,-1.005615,-0.058777,-0.548781,-13.475610,-19.695122
1548456293510,-0.208130,-1.001221,-0.052185,-0.243902,-13.048780,-19.207317
1548456293526,-0.205566,-0.998413,-0.051086,-0.304878,-12.987805,-18.475611
1548456293526,-0.203979,-1.008118,-0.054993,0.121951,-12.073171,-17.743902
1548456293533,-0.203735,-1.007935,-0.048279,0.792683,-11.341464,-16.768293
1548456293548,-0.193787,-1.017883,-0.046997,0.975610,-10.853659,-15.731708
1548456293563,-0.194946,-1.012573,-0.048706,0.853659,-9.634147,-14.512196
1548456293563,-0.194153,-1.006042,-0.050049,0.975610,-8.841464,-12.865854
1548456293578,-0.192017,-1.004883,-0.045654,1.036585,-8.048780,-11.768293
1548456293585,-0.185608,-1.012329,-0.042480,1.280488,-7.012195,-10.731708
1548456293593,-0.188110,-1.014404,-0.040100,1.036585,-5.914634,-9.085366
1548456293608,-0.186096,-1.009644,-0.043335,0.487805,-5.426829,-7.926829
1548456293623,-0.186584,-1.012451,-0.038330,-0.243902,-5.121951,-7.439024
1548456293630,-0.189270,-1.017090,-0.038208,-1.219512,-5.243903,-7.560976
1548456293638,-0.189575,-1.008850,-0.041199,-2.804878,-5.000000,-7.317073
1548456293645,-0.188965,-0.997009,-0.048096,-4.207317,-3.658537,-6.768293
1548456293653,-0.185608,-0.998230,-0.056274,-5.182927,-2.134146,-6.097561
1548456293668,-0.188477,-0.994019,-0.052185,-5.548780,-1.585366,-6.097561
1548456293675,-0.189453,-1.001282,-0.054077,-5.304878,-1.829268,-6.707317
1548456293683,-0.183411,-0.996521,-0.053955,-5.487805,-1.402439,-7.439024
1548456293698,-0.177673,-0.999817,-0.055298,-5.487805,-0.426829,-7.743903
1548456293706,-0.175720,-1.006836,-0.058533,-5.487805,-0.243902,-7.926829
1548456293713,-0.174316,-1.005432,-0.058350,-5.060976,-0.304878,-7.987805
1548456293728,-0.173523,-0.997986,-0.064026,-5.304878,-0.304878,-7.804878
1548456293736,-0.169617,-0.996521,-0.061707,-5.182927,0.182927,-7.621952
1548456293743,-0.166687,-1.004272,-0.062195,-4.817073,0.365854,-7.439024
1548456293758,-0.167175,-1.005676,-0.063232,-4.390244,0.060976,-7.317073
1548456293766,-0.166016,-1.007568,-0.061401,-4.085366,-0.243902,-7.195122
1548456293773,-0.168274,-0.999878,-0.064209,-4.512195,-0.182927,-7.012195
1548456293788,-0.166748,-0.993164,-0.073181,-4.329268,0.426829,-6.707317
1548456293795,-0.160767,-1.002319,-0.065796,-4.146341,1.036585,-6.646342
1548456293803,-0.160400,-1.009033,-0.058289,-3.414634,0.487805,-7.073171
1548456293818,-0.162659,-1.008911,-0.063599,-3.353659,-0.548781,-7.439024
1548456293825,-0.158447,-0.997803,-0.068359,-4.085366,-0.548781,-7.560976
1548456293833,-0.153870,-1.000061,-0.074768,-4.939024,-0.121951,-7.865854
1548456293848,-0.155640,-0.998108,-0.071594,-5.609756,-0.182927,-8.170732
1548456293856,-0.157593,-1.001221,-0.071228,-5.304878,-0.975610,-8.536586
1548456293863,-0.157104,-0.997803,-0.074036,-5.243903,-1.585366,-9.207317
1548456293878,-0.150818,-1.000305,-0.077026,-4.878049,-1.768293,-10.182927
1548456293895,-0.149719,-1.001831,-0.071289,-4.451220,-2.134146,-10.914635
1548456293896,-0.151672,-1.007141,-0.069519,-3.841464,-3.231707,-11.707317
1548456293914,-0.147705,-1.002380,-0.076904,-3.902439,-3.780488,-12.256098
1548456293916,-0.141785,-0.991699,-0.085632,-4.146341,-3.597561,-12.743903
1548456293923,-0.137390,-0.994568,-0.082642,-3.597561,-3.902439,-13.292684
1548456293939,-0.136414,-1.004333,-0.079102,-2.195122,-4.329268,-13.658537
1548456293946,-0.137024,-1.009460,-0.074036,-1.280488,-4.878049,-13.719513
1548456293953,-0.129578,-1.010681,-0.075745,-0.792683,-5.000000,-13.597561
1548456293969,-0.127930,-1.008850,-0.074646,-1.097561,-5.000000,-13.780488
1548456293976,-0.129028,-1.009399,-0.081970,-1.646341,-5.670732,-13.841464
1548456293983,-0.128357,-0.999084,-0.089417,-2.134146,-5.914634,-13.841464
1548456293998,-0.124573,-0.995544,-0.091614,-1.158537,-5.853659,-14.207317
1548456294005,-0.119873,-0.999451,-0.089783,0.609756,-5.792683,-14.451220
1548456294013,-0.113647,-1.006958,-0.083374,2.865854,-5.609756,-14.390244
1548456294028,-0.106567,-1.014160,-0.072083,5.304878,-5.670732,-14.207317
1548456294036,-0.110779,-1.015259,-0.068909,6.219512,-5.853659,-13.536586
1548456294043,-0.104675,-1.007202,-0.071777,6.036585,-6.036585,-12.317074
1548456294058,-0.102417,-1.004272,-0.077148,5.365854,-5.853659,-11.524390
1548456294065,-0.101990,-1.003845,-0.079163,5.609756,-6.219512,-11.036586
1548456294073,-0.100037,-1.009094,-0.072815,7.012195,-6.585366,-10.487805
1548456294088,-0.096619,-1.013794,-0.064392,8.292683,-6.524390,-10.000000
1548456294095,-0.095154,-1.020813,-0.054504,8.902439,-6.768293,-9.268292
1548456294103,-0.101501,-1.023071,-0.046204,8.597561,-6.890244,-8.231708
1548456294118,-0.103149,-1.021606,-0.047241,7.439024,-6.829268,-7.317073
1548456294125,-0.102234,-1.011719,-0.061279,4.817073,-6.280488,-6.768293
1548456294133,-0.103699,-1.004272,-0.067993,2.560976,-6.158537,-6.829268
1548456294148,-0.102722,-1.006287,-0.065491,2.560976,-6.219512,-7.195122
1548456294156,-0.097473,-1.011292,-0.063538,3.841464,-5.548780,-7.682927
1548456294163,-0.089539,-1.012878,-0.056396,5.121951,-4.329268,-7.743903
1548456294178,-0.091370,-1.009888,-0.052917,5.792683,-3.597561,-6.890244
1548456294185,-0.089050,-1.012207,-0.055298,5.731708,-2.804878,-5.426829
1548456294193,-0.086792,-1.013733,-0.054321,5.365854,-1.951220,-3.841464
1548456294208,-0.088501,-1.017090,-0.050415,5.365854,-1.463415,-2.378049
1548456294215,-0.088562,-1.023560,-0.048157,5.243903,-0.914634,-1.280488
1548456294223,-0.087280,-1.025085,-0.044006,4.451220,-0.365854,-0.243902
1548456294238,-0.089905,-1.022522,-0.042419,3.231707,-0.243902,0.792683
1548456294245,-0.092834,-1.013550,-0.045410,1.524390,-0.182927,1.585366
1548456294253,-0.092590,-1.012451,-0.052979,-0.060976,-0.060976,2.195122
1548456294268,-0.091431,-1.011230,-0.055603,-1.341463,0.182927,2.560976
1548456294275,-0.094055,-1.014587,-0.048279,-1.524390,0.243902,2.865854
1548456294283,-0.093933,-1.013489,-0.049255,-1.585366,0.182927,3.231707
1548456294298,-0.094727,-1.012756,-0.054199,-2.439024,0.548781,3.353659
1548456294305,-0.097229,-1.017090,-0.050171,-3.292683,0.548781,3.414634
1548456294313,-0.101440,-1.013000,-0.042664,-3.658537,0.121951,3.414634
1548456294328,-0.103271,-1.010681,-0.053528,-4.817073,-0.182927,2.743902
1548456294335,-0.097168,-0.998230,-0.068604,-6.951220,-0.182927,1.768293
1548456294343,-0.097229,-0.995483,-0.073730,-7.439024,-0.365854,0.792683
1548456294358,-0.100769,-1.000305,-0.072571,-6.280488,-0.731707,0.121951
1548456294366,-0.099426,-1.003601,-0.068176,-4.085366,-0.609756,-0.182927
1548456294373,-0.097656,-1.005066,-0.067810,-2.256098,-0.243902,-0.670732
1548456294388,-0.097473,-1.008667,-0.064575,-1.280488,-0.365854,-1.280488
1548456294396,-0.094055,-1.013550,-0.062622,-0.792683,-0.609756,-1.707317
1548456294403,-0.091553,-1.011963,-0.062439,-0.365854,-0.609756,-1.829268
1548456294418,-0.091003,-1.005981,-0.066833,-0.792683,-0.670732,-1.585366
1548456294426,-0.091980,-1.002563,-0.072266,-1.219512,-0.914634,-1.036585
1548456294433,-0.092224,-1.007935,-0.067871,-0.121951,-1.036585,-0.365854
1548456294448,-0.091431,-1.010559,-0.063354,1.402439,-0.914634,0.304878
1548456294455,-0.091003,-1.010986,-0.065002,2.378049,-0.731707,0.975610
1548456294463,-0.092224,-1.009155,-0.064026,2.682927,-0.792683,1.646341
1548456294478,-0.093323,-1.010193,-0.063965,3.048780,-0.853659,2.134146
1548456294485,-0.091431,-1.009827,-0.062622,3.475610,-0.731707,2.621951
1548456294493,-0.092957,-1.007812,-0.063904,4.207317,-0.670732,3.231707
1548456294508,-0.096802,-1.007629,-0.063416,4.817073,-0.487805,3.902439
1548456294515,-0.100037,-1.007507,-0.061218,5.243903,-0.426829,4.512195
1548456294523,-0.100220,-1.005066,-0.061157,6.036585,-0.304878,5.060976
1548456294538,-0.097473,-1.002502,-0.064697,6.890244,-0.060976,5.365854
1548456294545,-0.097717,-1.005920,-0.066467,7.926829,0.182927,5.609756
1548456294553,-0.098083,-1.009827,-0.057922,9.634147,0.365854,5.975610
1548456294568,-0.098633,-1.008850,-0.052979,11.646341,0.243902,6.707317
1548456294575,-0.100952,-1.008240,-0.057739,12.621951,0.182927,7.682927
1548456294583,-0.101379,-1.007874,-0.053406,13.292684,0.487805,8.414635
1548456294598,-0.104126,-1.006470,-0.046631,14.756098,0.670732,9.329268
1548456294613,-0.108093,-1.006958,-0.042786,15.914635,0.487805,10.060976
1548456294614,-0.108337,-1.003967,-0.047485,16.768293,0.487805,10.731708
1548456294628,-0.113281,-1.004761,-0.040283,18.170732,0.609756,11.219512
1548456294635,-0.113098,-1.006226,-0.035461,19.329269,0.731707,11.463415
1548456294643,-0.115906,-1.007507,-0.035034,20.121952,0.853659,11.646341
1548456294658,-0.120605,-1.004395,-0.028870,20.792683,1.036585,11.890244
1548456294665,-0.119446,-1.005432,-0.024231,21.890244,1.158537,12.256098
1548456294673,-0.120850,-1.010132,-0.019165,22.743902,1.341463,12.621951
1548456294688,-0.120728,-1.012634,-0.014343,23.658537,1.585366,13.109756
1548456294695,-0.123718,-1.009399,-0.006104,24.268293,1.585366,13.597561
1548456294703,-0.124878,-1.011108,-0.001282,24.573172,1.646341,14.268293
1548456294718,-0.129395,-1.011169,0.000916,24.390244,1.768293,15.121951
1548456294725,-0.132996,-1.015320,0.008362,23.902439,1.951220,16.097561
1548456294733,-0.138428,-1.018372,0.013672,23.902439,2.256098,16.890244
1548456294748,-0.142334,-1.022766,0.016235,23.658537,2.804878,17.560976
1548456294755,-0.147888,-1.019775,0.020081,23.170732,2.926829,17.865854
1548456294763,-0.151062,-1.010803,0.018555,22.500000,3.048780,18.048780
1548456294778,-0.153809,-1.005554,0.022522,22.073172,3.719512,18.231709
1548456294786,-0.155640,-1.003296,0.025513,22.439024,4.390244,18.780489
1548456294793,-0.155823,-1.008423,0.032410,23.292683,4.939024,19.390244
1548456294815,-0.160034,-1.015686,0.048279,23.841463,5.121951,19.939024
1548456294816,-0.167969,-1.018982,0.058044,22.926830,5.000000,20.304878
1548456294823,-0.174561,-1.022278,0.056885,20.243902,5.304878,20.609756
1548456294845,-0.179138,-1.016663,0.059387,16.951220,5.609756,20.792683
1548456294846,-0.184875,-1.008423,0.049316,14.390244,5.853659,20.426830
1548456294853,-0.183838,-1.005371,0.037109,12.560976,6.341464,19.939024
1548456294868,-0.183777,-0.999390,0.035034,12.500000,7.378049,20.060976
1548456294875,-0.182129,-0.996460,0.039734,14.024390,8.109756,20.426830
1548456294883,-0.188416,-1.000671,0.046997,16.158537,8.658537,21.280489
1548456294898,-0.191528,-1.006592,0.048706,17.682928,8.902439,22.317074
1548456294906,-0.192566,-1.007568,0.054688,18.780489,9.207317,23.292683
1548456294913,-0.198242,-1.006104,0.062012,19.268293,8.780488,24.085367
1548456294928,-0.204041,-1.006042,0.067200,18.841463,8.231708,24.573172
1548456294936,-0.211426,-1.006042,0.069092,17.926830,7.926829,24.878050
1548456294951,-0.217712,-1.000122,0.071838,16.951220,7.621952,24.939026
1548456294958,-0.220947,-0.995789,0.073364,15.670732,7.439024,24.634148
1548456294965,-0.223633,-0.994385,0.079834,14.451220,7.134147,23.963415
1548456294973,-0.226013,-0.993164,0.086304,14.024390,6.341464,23.170732
1548456294988,-0.231628,-0.994080,0.086853,13.597561,5.853659,22.439024
1548456294995,-0.232727,-0.993225,0.087097,12.439025,5.853659,21.890244
1548456295003,-0.233643,-0.992981,0.085205,11.463415,5.670732,21.585367
1548456295019,-0.237854,-0.989014,0.084717,10.670732,5.365854,21.219513
1548456295026,-0.243408,-0.987854,0.082825,9.878049,4.878049,20.914635
1548456295033,-0.249390,-0.989014,0.081909,9.634147,4.573171,20.853659
1548456295048,-0.257080,-0.983337,0.078918,10.060976,4.512195,20.731709
1548456295056,-0.262817,-0.980408,0.084717,10.670732,4.268293,20.609756
1548456295070,-0.265442,-0.977783,0.089539,11.036586,4.451220,20.365854
1548456295078,-0.270569,-0.978210,0.098206,12.012196,4.451220,20.000000
1548456295085,-0.275146,-0.981750,0.106384,12.743903,4.451220,19.634148
1548456295093,-0.274170,-0.982300,0.109253,12.682927,4.817073,19.268293
1548456295108,-0.278015,-0.984619,0.105774,11.951220,5.365854,19.085367
1548456295123,-0.282471,-0.985352,0.107971,10.792684,5.853659,18.963415
1548456295124,-0.288086,-0.987427,0.105164,9.451220,5.975610,18.963415
1548456295138,-0.293579,-0.985718,0.103516,8.414635,6.280488,18.963415
1548456295145,-0.296570,-0.979004,0.099243,6.951220,6.707317,19.024391
1548456295153,-0.295715,-0.973694,0.096069,6.097561,7.256098,19.146341
1548456295175,-0.298828,-0.970276,0.104614,6.707317,8.109756,19.390244
1548456295176,-0.304932,-0.972900,0.112366,7.926829,8.597561,19.939024
1548456295183,-0.311096,-0.975281,0.107422,9.695122,9.329268,20.304878
1548456295198,-0.310181,-0.978149,0.109436,10.609756,10.609756,21.097561
1548456295206,-0.308350,-0.978027,0.113342,10.548780,11.707317,21.707317
1548456295213,-0.307495,-0.982117,0.114807,10.182927,12.378049,22.195122
1548456295243,-0.311890,-0.982117,0.110657,9.451220,12.439025,22.743902
1548456295244,-0.319031,-0.976685,0.113586,8.353659,12.195122,23.170732
1548456295244,-0.322083,-0.975769,0.116333,6.646342,12.134147,23.902439
1548456295258,-0.325500,-0.968994,0.113953,5.548780,12.378049,24.512196
1548456295266,-0.332825,-0.961792,0.114746,5.060976,12.439025,25.000000
1548456295273,-0.338196,-0.962036,0.113770,5.060976,12.500000,25.548780
1548456295295,-0.344788,-0.958618,0.109314,5.426829,13.109756,25.792683
1548456295296,-0.349976,-0.956421,0.109131,5.670732,13.353659,26.097561
1548456295310,-0.354065,-0.952576,0.106873,5.853659,13.658537,26.280489
1548456295325,-0.359436,-0.952637,0.104370,6.036585,13.597561,26.219513
1548456295326,-0.365784,-0.950134,0.110107,6.219512,13.353659,25.731709
1548456295333,-0.368835,-0.955383,0.115723,6.097561,13.170732,25.243902
1548456295348,-0.371338,-0.955139,0.116699,5.914634,13.109756,24.939026
1548456295363,-0.373901,-0.947388,0.113159,5.304878,12.926829,24.634148
1548456295363,-0.378357,-0.944641,0.112244,3.841464,13.048780,24.329269
1548456295378,-0.383057,-0.943115,0.108398,2.926829,12.926829,23.719513
1548456295385,-0.386902,-0.940918,0.104980,2.682927,12.500000,23.231709
1548456295393,-0.392944,-0.936768,0.110840,2.317073,12.317074,22.987806
1548456295400,-0.397461,-0.937073,0.109863,2.134146,12.012196,22.500000
1548456295416,-0.399902,-0.935120,0.109558,2.560976,11.890244,21.829269
1548456295430,-0.403931,-0.933044,0.105408,3.109756,11.524390,20.975611
1548456295431,-0.404724,-0.932373,0.107300,3.109756,11.158537,20.304878
1548456295445,-0.407593,-0.931702,0.104736,2.865854,11.219512,19.695122
1548456295453,-0.413757,-0.932495,0.105591,2.743902,11.036586,19.268293
1548456295468,-0.419312,-0.930664,0.101746,2.378049,10.548780,18.963415
1548456295483,-0.422791,-0.929443,0.101379,1.768293,10.365854,18.231709
1548456295484,-0.426270,-0.928162,0.100464,1.280488,10.060976,17.317074
1548456295498,-0.428406,-0.924377,0.099548,0.975610,9.878049,16.463415
1548456295505,-0.426086,-0.923340,0.103821,0.975610,9.939025,15.670732
1548456295521,-0.425659,-0.920227,0.106201,1.280488,9.817074,15.060976
1548456295521,-0.428467,-0.922424,0.105957,1.768293,9.512196,14.573171
1548456295536,-0.431152,-0.923828,0.105286,2.256098,9.329268,13.963415
1548456295550,-0.435730,-0.925476,0.102539,2.012195,8.841464,13.536586
1548456295551,-0.440735,-0.923706,0.098816,1.463415,8.536586,12.865854
1548456295573,-0.443176,-0.919495,0.098572,0.975610,8.292683,12.256098
1548456295574,-0.444397,-0.919434,0.092163,0.731707,8.353659,11.524390
1548456295588,-0.445068,-0.921082,0.091003,0.487805,8.414635,10.853659
1548456295603,-0.447083,-0.919250,0.089966,0.060976,8.109756,10.609756
1548456295604,-0.447876,-0.917358,0.092957,-0.365854,7.743903,10.182927
1548456295611,-0.449036,-0.916016,0.098206,-0.426829,7.256098,9.756098
1548456295625,-0.450256,-0.913757,0.098389,-0.304878,6.768293,9.329268
1548456295640,-0.451294,-0.916992,0.094360,-0.304878,6.463415,8.719512
1548456295641,-0.452271,-0.919617,0.090942,-0.121951,6.341464,8.353659
1548456295656,-0.449951,-0.917603,0.090515,0.000000,6.280488,8.170732
1548456295678,-0.448608,-0.917969,0.092224,-0.060976,6.036585,7.865854
1548456295679,-0.451050,-0.918762,0.094116,0.000000,5.609756,7.743903
1548456295693,-0.453308,-0.918823,0.092041,0.121951,5.365854,7.743903
1548456295694,-0.454163,-0.919128,0.090393,0.304878,5.304878,7.865854
1548456295708,-0.456238,-0.916870,0.088440,0.243902,5.121951,7.987805
1548456295723,-0.459473,-0.914490,0.088806,-0.060976,4.878049,8.109756
1548456295731,-0.463379,-0.913147,0.087463,-0.121951,4.573171,7.987805
1548456295731,-0.466614,-0.911987,0.088074,0.060976,4.451220,8.048780
1548456295746,-0.466675,-0.910767,0.089600,0.487805,4.512195,8.353659
1548456295760,-0.467041,-0.913391,0.089355,0.792683,4.573171,8.170732
1548456295761,-0.469238,-0.913330,0.086914,1.158537,4.512195,8.231708
1548456295776,-0.469727,-0.910217,0.086975,1.463415,4.756098,8.475610
1548456295783,-0.470581,-0.909363,0.088989,1.646341,4.817073,8.963415
1548456295798,-0.473572,-0.911194,0.088074,2.073171,4.756098,9.207317
1548456295813,-0.477112,-0.913208,0.089783,2.195122,4.634146,9.268292
1548456295814,-0.477539,-0.912720,0.088135,1.951220,4.634146,9.390244
1548456295828,-0.477417,-0.908813,0.086670,1.585366,4.939024,9.634147
1548456295835,-0.481079,-0.904663,0.084778,1.402439,5.121951,9.939025
1548456295850,-0.482361,-0.904358,0.082458,1.463415,5.365854,10.243902
1548456295851,-0.483826,-0.901917,0.079773,2.195122,5.548780,10.487805
1548456295866,-0.485474,-0.903625,0.086975,2.987805,5.670732,10.731708
1548456295880,-0.487549,-0.904114,0.090027,3.292683,5.975610,10.975610
1548456295881,-0.487976,-0.903992,0.094116,3.658537,5.853659,11.402439
1548456295895,-0.489380,-0.907288,0.095886,3.597561,6.097561,11.463415
1548456295903,-0.489807,-0.907471,0.091675,2.987805,6.646342,11.158537
1548456295918,-0.490967,-0.903320,0.091858,2.134146,6.707317,11.036586
1548456295933,-0.490173,-0.902771,0.088867,1.402439,6.768293,11.097561
1548456295934,-0.492737,-0.900452,0.086609,0.548781,6.646342,11.097561
1548456295948,-0.494385,-0.896973,0.082581,0.121951,6.646342,10.975610
1548456295955,-0.499512,-0.894897,0.087158,0.000000,6.463415,10.975610
1548456295971,-0.503235,-0.892212,0.087341,0.304878,6.097561,10.792684
1548456295971,-0.503967,-0.891296,0.081726,0.792683,6.219512,10.792684
1548456295985,-0.505310,-0.891846,0.078247,0.914634,6.524390,10.609756
1548456296000,-0.509155,-0.889954,0.081482,1.036585,6.463415,10.487805
1548456296001,-0.512756,-0.890869,0.079468,0.731707,6.402439,10.304878
1548456296023,-0.515625,-0.887146,0.078552,0.243902,6.585366,9.878049
1548456296024,-0.515747,-0.886658,0.074524,0.000000,6.829268,9.451220
1548456296038,-0.517883,-0.885498,0.077393,-0.304878,6.951220,9.146341
1548456296053,-0.517578,-0.885376,0.077148,-0.426829,6.768293,8.963415
1548456296054,-0.520874,-0.882629,0.076050,-0.365854,6.768293,8.353659
1548456296061,-0.523254,-0.879700,0.077942,-0.182927,7.134147,7.743903
1548456296075,-0.518188,-0.883301,0.076233,0.182927,7.317073,7.378049
1548456296105,-0.514465,-0.889343,0.078186,0.731707,7.378049,6.951220
1548456296106,-0.517517,-0.887146,0.077515,0.975610,6.951220,7.012195
1548456296107,-0.519287,-0.888916,0.076477,0.670732,6.463415,6.829268
1548456296120,-0.518250,-0.889221,0.077026,0.060976,6.402439,6.585366
1548456296121,-0.522156,-0.887451,0.075439,-0.548781,6.280488,6.524390
1548456296143,-0.524353,-0.885376,0.076660,-0.975610,6.280488,6.219512
1548456296144,-0.522949,-0.882324,0.073792,-1.097561,6.219512,6.036585
1548456296150,-0.524292,-0.882812,0.073059,-1.036585,6.280488,5.975610
1548456296173,-0.527100,-0.883423,0.069458,-0.853659,6.341464,5.792683
1548456296180,-0.530396,-0.881104,0.069336,-0.792683,6.585366,5.670732
1548456296181,-0.531250,-0.883179,0.066406,-0.853659,6.890244,5.975610
1548456296195,-0.532349,-0.884155,0.061584,-1.097561,7.073171,6.158537
1548456296203,-0.535339,-0.879517,0.063049,-1.402439,6.890244,6.158537
1548456296210,-0.534424,-0.873657,0.065552,-1.829268,6.463415,5.792683
1548456296225,-0.535950,-0.874573,0.062561,-2.073171,5.914634,5.365854
1548456296233,-0.534180,-0.877869,0.061401,-2.012195,5.792683,4.939024
1548456296248,-0.533691,-0.877502,0.058960,-1.951220,5.731708,4.451220
1548456296256,-0.535583,-0.878723,0.053589,-2.012195,5.731708,4.207317
1548456296263,-0.537109,-0.874634,0.055786,-1.951220,5.853659,4.024390
1548456296270,-0.536438,-0.867432,0.055786,-2.073171,5.792683,3.780488
1548456296286,-0.537537,-0.870483,0.052917,-1.829268,5.853659,3.414634
1548456296293,-0.533447,-0.872314,0.050110,-1.463415,5.792683,3.170732
1548456296300,-0.535217,-0.872253,0.052307,-1.219512,5.182927,2.378049
1548456296316,-0.536621,-0.872437,0.055908,-1.463415,4.329268,1.524390
1548456296323,-0.536194,-0.872131,0.054565,-1.890244,3.414634,0.487805
1548456296331,-0.536621,-0.870789,0.051086,-2.134146,2.743902,-0.304878
1548456296346,-0.535889,-0.871338,0.050110,-2.439024,2.195122,-1.219512
1548456296353,-0.534607,-0.870972,0.047058,-2.682927,1.646341,-2.073171
1548456296361,-0.534607,-0.867493,0.050171,-3.109756,1.158537,-2.987805
1548456296376,-0.535095,-0.869385,0.049561,-2.926829,0.182927,-3.841464
1548456296383,-0.534851,-0.873657,0.044250,-2.195122,-0.548781,-4.634146
1548456296398,-0.529846,-0.881775,0.043091,-1.524390,-0.853659,-5.304878
1548456296406,-0.529846,-0.877991,0.044983,-1.585366,-1.341463,-5.853659
1548456296413,-0.529968,-0.878296,0.049072,-1.829268,-2.134146,-6.280488
1548456296420,-0.528259,-0.880127,0.048889,-1.890244,-2.682927,-6.585366
1548456296435,-0.524719,-0.879944,0.048584,-1.585366,-2.865854,-6.829268
1548456296443,-0.524841,-0.883484,0.049072,-1.097561,-2.987805,-6.768293
1548456296451,-0.525085,-0.885010,0.049377,-0.914634,-2.987805,-6.585366
1548456296473,-0.527527,-0.887146,0.048950,-0.853659,-3.292683,-6.341464
1548456296473,-0.528503,-0.888489,0.044495,-0.975610,-3.597561,-6.280488
1548456296480,-0.523621,-0.889526,0.048584,-1.219512,-3.841464,-6.341464
1548456296503,-0.522034,-0.885986,0.050537,-1.219512,-3.780488,-6.219512
1548456296504,-0.519958,-0.887329,0.050537,-0.914634,-3.658537,-5.914634
1548456296511,-0.519592,-0.888611,0.054138,-0.426829,-3.414634,-5.487805
1548456296525,-0.516541,-0.892273,0.053589,0.243902,-3.109756,-4.878049
1548456296533,-0.513550,-0.895813,0.053955,0.670732,-2.865854,-4.451220
1548456296540,-0.513428,-0.894714,0.055664,0.914634,-2.743902,-3.963415
1548456296563,-0.510681,-0.895203,0.056763,0.914634,-2.743902,-3.536585
1548456296563,-0.512451,-0.895081,0.056213,0.670732,-3.048780,-2.926829
1548456296570,-0.515747,-0.894958,0.054626,0.426829,-3.292683,-2.378049
1548456296593,-0.518982,-0.891602,0.051208,0.182927,-3.353659,-1.890244
1548456296594,-0.517151,-0.890442,0.053711,0.060976,-3.109756,-1.341463
1548456296608,-0.514648,-0.890259,0.051392,0.000000,-2.987805,-1.036585
1548456296615,-0.512817,-0.890991,0.046997,0.243902,-3.170732,-0.914634
1548456296623,-0.510803,-0.889709,0.050110,0.548781,-3.597561,-0.670732
1548456296631,-0.510559,-0.891235,0.050049,0.792683,-4.207317,-0.670732
1548456296646,-0.510376,-0.890503,0.052856,1.036585,-4.695122,-0.609756
1548456296653,-0.508850,-0.890503,0.051575,1.158537,-5.121951,-0.487805
1548456296661,-0.508728,-0.890076,0.051636,1.036585,-5.670732,-0.487805
1548456296676,-0.509644,-0.893433,0.054260,0.609756,-6.463415,-0.914634
1548456296683,-0.513794,-0.890320,0.049866,0.000000,-7.500000,-1.402439
1548456296705,-0.509827,-0.888855,0.052246,-0.365854,-8.048780,-1.890244
1548456296713,-0.506165,-0.885193,0.057129,-0.121951,-8.841464,-2.621951
1548456296714,-0.504517,-0.886536,0.059143,0.548781,-9.573171,-3.475610
1548456296720,-0.501648,-0.890320,0.061707,1.341463,-10.121951,-4.024390
1548456296735,-0.501587,-0.896851,0.063904,1.829268,-10.304878,-4.390244
1548456296750,-0.503235,-0.896912,0.070435,1.768293,-10.182927,-4.512195
1548456296751,-0.509155,-0.891907,0.074402,1.158537,-10.365854,-4.512195
1548456296773,-0.515991,-0.890015,0.072998,-0.060976,-10.670732,-4.817073
1548456296780,-0.518799,-0.884583,0.071655,-0.975610,-10.609756,-5.670732
1548456296788,-0.517029,-0.883606,0.071106,-1.646341,-10.365854,-6.463415
1548456296803,-0.514587,-0.887634,0.069214,-2.073171,-10.304878,-7.439024
1548456296804,-0.512573,-0.891296,0.068298,-2.195122,-10.304878,-8.597561
1548456296818,-0.506042,-0.889954,0.068176,-2.317073,-10.609756,-9.573171
1548456296833,-0.499451,-0.891663,0.065552,-2.621951,-10.914635,-10.426829
1548456296834,-0.496094,-0.892517,0.063965,-2.682927,-10.975610,-11.158537
1548456296840,-0.499084,-0.892029,0.067627,-2.439024,-11.646341,-11.585366
1548456296855,-0.500916,-0.892944,0.066406,-2.134146,-12.317074,-11.951220
1548456296870,-0.495850,-0.895935,0.067993,-1.646341,-12.378049,-12.500000
1548456296871,-0.492432,-0.897034,0.066467,-1.585366,-12.500000,-13.048780
1548456296886,-0.489380,-0.896606,0.068115,-1.646341,-12.743903,-13.658537
1548456296893,-0.488037,-0.896851,0.064697,-1.585366,-13.292684,-14.329268
1548456296908,-0.484619,-0.894348,0.067261,-1.585366,-13.963415,-15.000000
1548456296923,-0.480164,-0.900330,0.069580,-1.585366,-14.573171,-15.731708
1548456296924,-0.474304,-0.906921,0.062805,-1.280488,-14.939025,-16.341463
1548456296945,-0.471680,-0.906311,0.066223,-1.341463,-15.121951,-17.012196
1548456296946,-0.470276,-0.907837,0.068054,-1.463415,-15.914635,-17.621952
1548456296953,-0.465271,-0.908386,0.070068,-1.219512,-16.707317,-18.109756
1548456296961,-0.461914,-0.905457,0.070557,-0.670732,-17.500000,-18.658537
1548456296976,-0.458923,-0.905762,0.078918,0.182927,-18.048780,-19.024391
1548456297013,-0.458374,-0.913086,0.079773,1.097561,-18.475611,-19.207317
1548456297013,-0.452209,-0.917419,0.079712,1.585366,-18.658537,-19.695122
1548456297014,-0.447632,-0.920105,0.081787,1.890244,-18.475611,-20.000000
1548456297028,-0.446350,-0.921692,0.081238,1.829268,-18.658537,-20.121952
1548456297029,-0.442932,-0.921997,0.082886,1.463415,-19.085367,-20.304878
1548456297043,-0.438354,-0.919861,0.085022,1.036585,-19.451220,-20.487804
1548456297044,-0.432617,-0.916382,0.091553,1.341463,-19.634148,-20.731709
1548456297065,-0.430725,-0.920959,0.096802,2.256098,-20.060976,-20.975611
1548456297066,-0.428833,-0.928772,0.099182,2.987805,-20.243902,-21.463415
1548456297081,-0.426392,-0.932373,0.105347,2.926829,-20.182928,-21.890244
1548456297095,-0.426270,-0.932434,0.107178,1.951220,-20.243902,-22.256098
1548456297096,-0.424255,-0.933533,0.105103,0.548781,-20.000000,-22.804878
1548456297110,-0.417175,-0.932556,0.106201,-0.853659,-19.756098,-23.719513
1548456297118,-0.413696,-0.931824,0.108093,-2.073171,-19.390244,-24.817074
1548456297133,-0.408020,-0.932800,0.108093,-2.987805,-19.207317,-25.670732
1548456297134,-0.401428,-0.932251,0.104553,-3.414634,-19.146341,-26.463415
1548456297148,-0.400208,-0.933533,0.111084,-3.780488,-18.902439,-27.378050
1548456297163,-0.396362,-0.937988,0.119751,-4.329268,-18.597561,-27.804878
1548456297164,-0.394714,-0.940674,0.115845,-4.878049,-18.475611,-28.475611
1548456297170,-0.390625,-0.946045,0.109009,-5.487805,-18.292683,-29.634148
1548456297186,-0.379089,-0.951050,0.109802,-6.219512,-17.987804,-30.731709
1548456297193,-0.367676,-0.953918,0.112610,-7.195122,-17.682928,-31.402439
1548456297200,-0.359131,-0.958374,0.108765,-8.109756,-17.621952,-32.195122
1548456297215,-0.353943,-0.956238,0.106384,-8.719512,-17.804878,-32.682926
1548456297223,-0.347534,-0.956604,0.101318,-8.719512,-17.987804,-32.926830
1548456297238,-0.341248,-0.959412,0.101501,-8.414635,-17.804878,-32.743904
1548456297245,-0.335815,-0.959839,0.102051,-7.865854,-17.317074,-32.317074
1548456297253,-0.330139,-0.965637,0.098633,-7.012195,-17.134148,-31.585367
1548456297261,-0.324341,-0.970703,0.095459,-6.097561,-17.073172,-30.975611
1548456297276,-0.316711,-0.973206,0.093262,-5.121951,-16.829269,-30.000000
1548456297291,-0.307739,-0.975525,0.095825,-4.451220,-16.463415,-29.024391
1548456297298,-0.301697,-0.978882,0.098999,-3.475610,-16.402439,-27.987806
1548456297305,-0.299561,-0.982422,0.095215,-2.256098,-16.585365,-26.768293
1548456297313,-0.291504,-0.989563,0.096069,-1.158537,-16.524391,-25.304878
1548456297320,-0.283508,-0.989075,0.099731,-0.182927,-16.097561,-23.536587
1548456297343,-0.280090,-0.994202,0.095825,0.304878,-15.853659,-21.707317
1548456297344,-0.276184,-0.988831,0.093262,0.121951,-15.914635,-20.000000
1548456297350,-0.274353,-0.985352,0.094238,0.487805,-15.975610,-18.231709
1548456297365,-0.273254,-0.981384,0.098389,1.219512,-15.914635,-16.402439
1548456297373,-0.275452,-0.979797,0.096497,2.500000,-15.853659,-14.695123
1548456297380,-0.277100,-0.980408,0.098877,3.902439,-15.914635,-13.414635
1548456297396,-0.276367,-0.981079,0.105225,5.426829,-15.975610,-12.682927
1548456297411,-0.271667,-0.982117,0.109619,6.524390,-15.792684,-12.500000
1548456297411,-0.270996,-0.979858,0.113525,7.378049,-15.670732,-12.195122
1548456297425,-0.272339,-0.983704,0.123474,7.317073,-15.853659,-12.195122
1548456297433,-0.269897,-0.983826,0.129578,7.195122,-16.158537,-12.256098
1548456297448,-0.270691,-0.980774,0.133484,6.402439,-16.402439,-12.743903
1548456297463,-0.265808,-0.981262,0.135681,4.939024,-16.524391,-13.170732
1548456297464,-0.265930,-0.980103,0.130188,3.719512,-16.524391,-13.475610
1548456297471,-0.263367,-0.975891,0.132507,2.743902,-16.463415,-14.085366
1548456297485,-0.260681,-0.977417,0.130493,1.585366,-16.341463,-14.878049
1548456297493,-0.256042,-0.974121,0.129028,0.914634,-16.402439,-15.853659
1548456297500,-0.251587,-0.977051,0.127380,0.243902,-16.341463,-16.951220
1548456297516,-0.251648,-0.987671,0.124939,0.121951,-16.463415,-17.560976
1548456297523,-0.245605,-0.989319,0.126221,0.609756,-16.585365,-18.048780
1548456297530,-0.238098,-0.986206,0.125000,0.975610,-16.341463,-18.719513
1548456297546,-0.234741,-0.987183,0.123596,0.670732,-16.646341,-19.207317
1548456297553,-0.232300,-0.987488,0.121826,0.731707,-16.768293,-19.756098
1548456297568,-0.233337,-0.996826,0.118652,1.280488,-16.829269,-20.060976
1548456297576,-0.225464,-0.995117,0.123413,2.256098,-16.341463,-19.878050
1548456297583,-0.218445,-0.987732,0.124817,3.475610,-15.304878,-19.695122
1548456297591,-0.212708,-0.994690,0.127869,3.841464,-15.182927,-20.182928
1548456297606,-0.206665,-0.996582,0.132080,4.390244,-15.365854,-20.487804
1548456297620,-0.203613,-1.000671,0.139465,5.487805,-15.731708,-20.609756
1548456297621,-0.199219,-1.011780,0.146973,5.426829,-16.097561,-20.853659
1548456297636,-0.194641,-1.004333,0.148926,5.060976,-16.341463,-20.548780
1548456297643,-0.191895,-1.006348,0.143616,3.963415,-16.158537,-19.817074
1548456297651,-0.181763,-1.004517,0.145081,2.195122,-15.731708,-18.658537
1548456297673,-0.180420,-1.002136,0.142944,1.585366,-14.939025,-17.560976
1548456297674,-0.186707,-1.001831,0.144287,0.914634,-15.243903,-16.219513
1548456297680,-0.184570,-0.997925,0.141357,0.914634,-15.121951,-14.817074
1548456297695,-0.169006,-0.993835,0.137329,1.158537,-13.902439,-14.085366
1548456297703,-0.161072,-0.999512,0.134827,1.280488,-13.109756,-13.536586
1548456297725,-0.170166,-1.002502,0.142029,2.012195,-13.414635,-12.256098
1548456297726,-0.173950,-0.998657,0.142944,3.414634,-14.024390,-10.487805
1548456297740,-0.160400,-1.000305,0.139404,4.634146,-12.865854,-8.902439
1548456297741,-0.156799,-1.001648,0.139954,5.182927,-11.951220,-8.170732
1548456297756,-0.167847,-1.000793,0.151245,5.914634,-12.317074,-7.256098
1548456297763,-0.173706,-0.997437,0.156494,6.280488,-12.804878,-6.158537
1548456297770,-0.156433,-0.996887,0.149353,6.524390,-11.524390,-4.695122
1548456297785,-0.157471,-0.998718,0.146545,6.524390,-9.817074,-4.024390
1548456297793,-0.175659,-0.998596,0.156616,6.707317,-10.426829,-3.353659
1548456297800,-0.170532,-0.996826,0.158691,6.768293,-10.670732,-2.682927
1548456297815,-0.176636,-1.000305,0.173645,6.646342,-9.207317,-3.048780
1548456297830,-0.180664,-1.002136,0.180725,5.792683,-8.719512,-3.597561
1548456297831,-0.168945,-1.002991,0.178345,4.939024,-7.378049,-3.597561
1548456297845,-0.170593,-1.002319,0.177307,2.621951,-5.731708,-4.268293
1548456297853,-0.170532,-0.998901,0.175476,0.426829,-4.756098,-4.207317
1548456297860,-0.167053,-0.997253,0.167908,-1.646341,-3.475610,-4.268293
1548456297875,-0.162842,-0.996033,0.162109,-3.536585,-2.256098,-4.512195
1548456297883,-0.162231,-0.993774,0.159058,-4.756098,-1.463415,-4.939024
1548456297890,-0.165283,-0.990051,0.155212,-5.060976,-1.097561,-5.426829
1548456297905,-0.161743,-0.992920,0.151550,-4.939024,-0.609756,-6.036585
1548456297913,-0.153992,-1.000549,0.155090,-4.390244,0.304878,-6.524390
1548456297920,-0.145752,-1.004700,0.156921,-3.841464,0.792683,-7.195122
1548456297935,-0.144531,-1.002380,0.154724,-4.268293,0.426829,-7.621952
1548456297943,-0.140015,-1.002258,0.150391,-5.426829,0.487805,-7.134147
1548456297951,-0.139282,-1.002625,0.149170,-5.731708,1.585366,-5.304878
1548456297965,-0.149475,-1.000793,0.150452,-5.182927,2.195122,-3.170732
1548456297973,-0.151733,-1.000427,0.149963,-5.060976,2.317073,-1.890244
1548456297981,-0.143555,-0.997437,0.139221,-4.939024,2.621951,-1.585366
1548456297996,-0.145386,-0.997375,0.137268,-4.512195,2.865854,-1.463415
1548456298003,-0.145996,-1.000183,0.140259,-3.414634,2.682927,-1.036585
1548456298011,-0.142761,-1.000732,0.145508,-2.134146,2.500000,-0.914634
1548456298025,-0.137939,-1.003784,0.147156,-1.707317,2.439024,-0.731707
1548456298033,-0.138550,-1.004456,0.149902,-2.378049,2.439024,-0.060976
1548456298040,-0.142883,-1.005005,0.153076,-3.109756,2.378049,1.524390
1548456298055,-0.143555,-1.006165,0.152344,-3.841464,2.987805,3.231707
1548456298063,-0.146057,-1.005249,0.147583,-5.121951,3.658537,4.146341
1548456298071,-0.151428,-1.002441,0.148560,-6.829268,3.597561,4.939024
1548456298085,-0.153259,-0.999390,0.140503,-8.292683,3.414634,5.365854
1548456298093,-0.153564,-0.999512,0.129395,-9.268292,3.475610,5.121951
1548456298101,-0.155212,-0.997009,0.128662,-9.512196,3.292683,4.512195
1548456298115,-0.154846,-0.996277,0.127625,-9.329268,2.804878,3.841464
1548456298123,-0.152649,-0.996643,0.125488,-8.963415,2.621951,3.414634
1548456298130,-0.153625,-0.997498,0.124573,-8.658537,2.378049,3.414634
1548456298146,-0.156677,-0.996094,0.119995,-8.414635,2.317073,3.353659
1548456298153,-0.160156,-0.992432,0.115967,-7.865854,2.073171,3.109756
1548456298160,-0.164368,-0.997559,0.114258,-6.890244,1.646341,2.804878
1548456298175,-0.163208,-0.998108,0.120300,-5.548780,1.585366,2.195122
1548456298183,-0.165161,-0.995789,0.123230,-4.695122,1.402439,1.158537
1548456298190,-0.164551,-0.994019,0.123535,-4.634146,0.975610,0.060976
1548456298206,-0.164673,-0.994202,0.120911,-4.817073,0.670732,-1.158537
1548456298213,-0.167847,-0.996460,0.121155,-4.939024,0.426829,-2.560976
1548456298228,-0.164795,-0.998047,0.116699,-5.182927,0.304878,-4.024390
1548456298236,-0.161926,-1.000793,0.116760,-5.243903,0.121951,-5.121951
1548456298243,-0.157043,-0.999573,0.116699,-4.939024,-0.060976,-6.219512
1548456298251,-0.153442,-0.999329,0.110413,-4.390244,-0.365854,-7.195122
1548456298266,-0.147522,-0.999634,0.106079,-3.780488,-0.670732,-7.682927
1548456298281,-0.140198,-0.999451,0.105164,-2.682927,-0.914634,-7.743903
1548456298281,-0.139709,-0.999390,0.104980,-1.158537,-1.219512,-7.439024
1548456298296,-0.139893,-1.004333,0.111694,0.365854,-1.768293,-6.768293
1548456298303,-0.134766,-1.009338,0.118469,1.585366,-1.585366,-6.097561
1548456298310,-0.134521,-1.010315,0.122070,2.317073,-1.463415,-5.182927
1548456298325,-0.134277,-1.010193,0.120605,1.585366,-1.341463,-3.902439
1548456298333,-0.134094,-1.005737,0.117493,0.670732,-1.097561,-2.560976
1548456298340,-0.136658,-1.004089,0.114014,-0.121951,-0.975610,-1.036585
1548456298356,-0.140015,-1.003723,0.113342,-0.060976,-0.853659,0.365854
1548456298363,-0.139893,-1.001648,0.112427,0.365854,-0.670732,1.524390
1548456298370,-0.142212,-1.002197,0.113159,1.280488,-0.487805,2.500000
1548456298386,-0.147095,-1.001892,0.113892,1.890244,-0.487805,3.109756
1548456298393,-0.147705,-1.001648,0.118835,2.195122,-0.426829,3.170732
1548456298400,-0.146667,-1.002380,0.119934,2.621951,-0.426829,3.048780
1548456298415,-0.146240,-1.000854,0.117676,2.621951,-0.548781,2.682927
1548456298423,-0.146973,-1.002014,0.119446,2.378049,-0.609756,2.621951
1548456298430,-0.147583,-1.001465,0.119934,2.012195,-0.670732,2.621951
1548456298453,-0.150696,-1.001404,0.121155,1.585366,-0.792683,2.621951
1548456298454,-0.153076,-0.997742,0.118958,1.219512,-0.914634,2.317073
1548456298461,-0.155334,-0.994934,0.115479,0.853659,-0.853659,1.890244
1548456298475,-0.153931,-0.998352,0.118591,1.158537,-0.792683,1.219512
1548456298483,-0.151489,-0.999939,0.122253,1.707317,-1.036585,0.243902
1548456298505,-0.151001,-1.000305,0.121155,1.890244,-1.036585,-0.609756
1548456298506,-0.148376,-1.002258,0.119812,1.768293,-1.158537,-1.097561
1548456298513,-0.149048,-1.001282,0.120667,1.463415,-1.158537,-1.158537
1548456298521,-0.148865,-1.001465,0.119812,1.402439,-1.158537,-1.097561
1548456298535,-0.149048,-1.002075,0.118713,1.341463,-1.097561,-1.219512
1548456298543,-0.147888,-1.001099,0.119812,1.341463,-1.097561,-1.463415
1548456298558,-0.147400,-1.001709,0.123535,1.585366,-1.036585,-1.768293
1548456298565,-0.146851,-1.002625,0.122437,1.768293,-1.036585,-2.073171
1548456298573,-0.144836,-1.004028,0.122437,1.341463,-1.036585,-2.317073
1548456298580,-0.144836,-1.002563,0.123230,0.853659,-1.097561,-2.378049
1548456298595,-0.141907,-1.003479,0.123596,0.426829,-1.097561,-2.134146
1548456298603,-0.141968,-1.004395,0.124268,0.182927,-1.036585,-1.768293
1548456298611,-0.142151,-1.003845,0.122986,-0.243902,-1.036585,-1.402439
1548456298625,-0.142517,-1.003296,0.120422,-0.426829,-0.853659,-0.914634
1548456298640,-0.142639,-1.002808,0.119934,-0.365854,-0.670732,-0.304878
1548456298641,-0.142151,-1.003662,0.118042,-0.365854,-0.609756,0.182927
1548456298655,-0.142334,-1.002014,0.119873,-0.060976,-0.548781,0.548781
1548456298663,-0.144958,-1.001953,0.123657,0.243902,-0.487805,0.853659
1548456298670,-0.145325,-1.002441,0.122681,0.182927,-0.487805,0.853659
1548456298685,-0.144531,-1.000671,0.123413,0.000000,-0.426829,0.853659
1548456298693,-0.145264,-1.003784,0.120361,-0.243902,-0.609756,0.731707
1548456298701,-0.146057,-1.003418,0.120605,-0.609756,-0.670732,0.670732
1548456298715,-0.144836,-1.001892,0.121460,-0.853659,-0.609756,0.792683
1548456298730,-0.144897,-1.001709,0.122986,-0.853659,-0.548781,0.853659
1548456298731,-0.143433,-1.002869,0.120728,-0.975610,-0.731707,0.609756
1548456298746,-0.143738,-1.001770,0.117737,-1.341463,-0.670732,0.426829
1548456298753,-0.145081,-1.000183,0.118408,-1.707317,-0.609756,0.548781
1548456298760,-0.145569,-1.002136,0.117554,-1.402439,-0.670732,0.731707
1548456298783,-0.145569,-1.001343,0.118469,-1.036585,-0.731707,0.792683
1548456298783,-0.144348,-1.001587,0.119873,-0.975610,-0.731707,0.792683
1548456298790,-0.143555,-1.002869,0.119507,-0.853659,-0.731707,0.548781
1548456298805,-0.146729,-0.999817,0.118652,-1.219512,-0.792683,0.426829
1548456298813,-0.146606,-1.000916,0.117188,-1.585366,-0.670732,0.548781
1548456298835,-0.148010,-1.002502,0.117065,-1.707317,-0.609756,0.609756
1548456298836,-0.147400,-1.001526,0.115601,-1.768293,-0.670732,0.426829
1548456298850,-0.146301,-1.003357,0.117371,-1.585366,-0.670732,0.243902
1548456298851,-0.143982,-1.003418,0.120728,-1.585366,-0.731707,0.000000
1548456298866,-0.142761,-1.003540,0.117798,-1.524390,-0.731707,-0.121951
1548456298873,-0.142700,-1.004639,0.114807,-1.707317,-0.609756,0.182927
1548456298881,-0.143311,-1.002808,0.115356,-1.829268,-0.487805,0.609756
1548456298896,-0.146851,-1.001221,0.116699,-1.829268,-0.548781,0.853659
1548456298903,-0.147339,-1.004089,0.113953,-1.768293,-0.548781,0.975610
1548456298911,-0.145264,-1.002808,0.113220,-1.646341,-0.426829,1.036585
1548456298925,-0.147400,-1.000854,0.112793,-1.463415,-0.487805,1.036585
1548456298933,-0.147461,-1.001587,0.112488,-1.219512,-0.426829,0.975610
1548456298940,-0.148071,-1.001770,0.111450,-0.853659,-0.365854,0.792683
1548456298955,-0.146423,-1.002686,0.112671,-0.609756,-0.487805,0.548781
1548456298963,-0.145508,-1.005249,0.116028,-0.426829,-0.548781,0.243902
1548456298970,-0.145508,-1.003662,0.113953,-0.609756,-0.426829,0.182927
1548456298985,-0.146912,-1.005310,0.112305,-1.097561,-0.487805,0.243902
1548456298993,-0.147827,-1.001587,0.109070,-1.524390,-0.487805,0.365854
1548456299008,-0.147583,-0.998901,0.110107,-1.402439,-0.487805,0.426829
1548456299023,-0.146545,-1.002258,0.111938,-0.914634,-0.609756,0.243902
1548456299024,-0.144348,-1.002441,0.110107,-0.487805,-0.670732,0.121951
1548456299038,-0.144958,-1.002991,0.113525,-0.487805,-0.487805,0.060976
1548456299046,-0.144958,-1.004517,0.111694,-0.670732,-0.487805,0.121951
1548456299060,-0.146118,-1.002686,0.109070,-0.792683,-0.548781,0.426829
1548456299061,-0.147217,-1.002563,0.108948,-0.670732,-0.548781,0.548781
1548456299075,-0.146118,-1.002075,0.107971,-0.304878,-0.487805,0.731707
1548456299083,-0.145691,-1.003479,0.111755,0.060976,-0.548781,0.731707
1548456299091,-0.144775,-1.004944,0.110596,0.243902,-0.548781,0.731707
1548456299113,-0.145203,-1.004639,0.111328,0.121951,-0.548781,0.853659
1548456299114,-0.143555,-1.004028,0.112366,0.060976,-0.487805,1.036585
1548456299120,-0.146423,-1.004700,0.112427,0.060976,-0.487805,1.463415
1548456299136,-0.149170,-1.004395,0.111938,-0.060976,-0.243902,1.829268
1548456299143,-0.150940,-1.001587,0.110901,-0.060976,-0.060976,2.012195
1548456299151,-0.151001,-1.002686,0.108704,-0.060976,-0.060976,1.951220
1548456299166,-0.147278,-1.003418,0.106201,0.000000,0.121951,1.951220
1548456299180,-0.148926,-0.998779,0.105042,0.609756,0.548781,2.195122
1548456299181,-0.149231,-0.998718,0.108826,1.768293,0.609756,2.621951
1548456299196,-0.147217,-1.002991,0.107788,3.109756,0.792683,3.170732
1548456299203,-0.146057,-1.003418,0.106262,3.780488,1.341463,3.780488
1548456299210,-0.152832,-0.999695,0.106567,4.451220,1.707317,4.451220
1548456299225,-0.151978,-1.000610,0.111023,5.792683,1.707317,5.000000
1548456299233,-0.149292,-1.001648,0.115234,7.012195,2.073171,5.304878
1548456299240,-0.151978,-1.003601,0.118225,7.682927,2.500000,5.975610
1548456299263,-0.153564,-1.004150,0.117065,8.292683,2.926829,7.073171
1548456299264,-0.155029,-1.006348,0.118896,9.207317,3.414634,8.048780
1548456299271,-0.158325,-1.007507,0.128174,9.756098,3.963415,9.146341
1548456299285,-0.156860,-1.005005,0.128174,9.634147,4.451220,10.365854
1548456299300,-0.157471,-1.005127,0.125366,8.963415,5.060976,11.646341
1548456299301,-0.170349,-1.003723,0.130310,8.170732,4.939024,12.256098
1548456299315,-0.174011,-0.998596,0.129089,7.621952,4.451220,12.926829
1548456299323,-0.170349,-0.992859,0.129517,7.439024,5.121951,13.170732
1548456299338,-0.170288,-0.999023,0.126343,7.195122,5.853659,13.109756
1548456299346,-0.178650,-1.002869,0.133240,6.707317,5.670732,12.865854
1548456299353,-0.186157,-0.996399,0.135071,7.073171,5.000000,12.682927
1548456299360,-0.185913,-0.994568,0.133118,6.646342,5.243903,12.439025
1548456299376,-0.182617,-0.996704,0.132263,6.097561,5.670732,11.768293
1548456299390,-0.189026,-0.996582,0.138672,5.548780,5.487805,11.219512
1548456299391,-0.191589,-0.998169,0.138916,5.060976,5.182927,10.670732
1548456299405,-0.191833,-0.996887,0.141785,4.024390,5.304878,10.060976
1548456299413,-0.192627,-0.992554,0.141052,2.560976,5.548780,9.390244
1548456299421,-0.192993,-0.991760,0.139404,1.646341,5.670732,8.902439
1548456299436,-0.196350,-0.993591,0.142822,1.036585,5.792683,8.292683
1548456299443,-0.196716,-0.995422,0.141663,0.609756,5.731708,7.621952
1548456299458,-0.195557,-0.996399,0.137695,0.060976,6.036585,7.256098
1548456299466,-0.195618,-0.989807,0.134521,-0.731707,6.158537,7.012195
1548456299473,-0.198792,-0.996582,0.131653,-0.914634,5.853659,6.585366
1548456299481,-0.201233,-0.993286,0.132690,-1.585366,5.731708,6.341464
1548456299496,-0.201721,-0.990540,0.130981,-1.585366,5.670732,6.280488
1548456299511,-0.204468,-0.991699,0.131531,-1.219512,5.853659,6.097561
1548456299511,-0.202820,-0.992859,0.129578,-0.914634,6.280488,5.792683
1548456299526,-0.198669,-0.993225,0.133789,-0.426829,6.768293,5.792683
1548456299533,-0.201538,-0.994385,0.132996,-0.182927,6.463415,6.097561
1548456299541,-0.204956,-0.999390,0.127441,0.000000,6.280488,6.341464
1548456299563,-0.200928,-0.993347,0.129883,0.000000,6.707317,6.829268
1548456299564,-0.201904,-0.989502,0.126831,0.182927,6.951220,7.317073
1548456299571,-0.205688,-0.997192,0.125244,0.609756,6.768293,7.926829
1548456299585,-0.212524,-0.994873,0.129883,0.548781,6.585366,8.719512
1548456299593,-0.214050,-0.997803,0.117615,1.341463,6.463415,9.512196
1548456299600,-0.214050,-0.994629,0.123901,2.073171,7.195122,10.182927
1548456299616,-0.215027,-0.991211,0.125793,2.560976,7.743903,10.792684
1548456299623,-0.218262,-0.988281,0.125916,2.865854,7.926829,11.646341
1548456299630,-0.223145,-0.993347,0.122559,3.780488,8.048780,12.134147
1548456299646,-0.221558,-0.992004,0.133606,4.817073,8.414635,12.743903
1548456299653,-0.227844,-0.995728,0.129150,5.121951,8.475610,13.231708
1548456299668,-0.228821,-0.996460,0.129456,5.304878,8.658537,13.841464
1548456299676,-0.234497,-0.993042,0.133667,4.817073,9.207317,14.329268
1548456299683,-0.240479,-0.992798,0.131836,4.085366,9.207317,14.695123
1548456299690,-0.243103,-0.991577,0.125366,3.536585,9.695122,15.000000
1548456299706,-0.241638,-0.989807,0.121948,3.231707,10.182927,15.243903
1548456299713,-0.245056,-0.990723,0.126099,3.109756,10.365854,15.182927
1548456299721,-0.245239,-0.990051,0.129883,3.414634,10.365854,15.121951
1548456299736,-0.244629,-0.984741,0.128113,3.719512,10.365854,15.304878
1548456299743,-0.246521,-0.984863,0.129395,3.902439,10.487805,15.548780
1548456299750,-0.251160,-0.984741,0.132019,4.329268,10.670732,15.914635
1548456299766,-0.256287,-0.987915,0.129517,4.878049,10.792684,16.463415
1548456299773,-0.260803,-0.985474,0.128845,5.060976,11.036586,16.951220
1548456299788,-0.264404,-0.981750,0.134094,4.695122,11.036586,17.134148
1548456299796,-0.267578,-0.979919,0.133667,4.024390,11.036586,17.073172
1548456299803,-0.272522,-0.977600,0.130188,3.841464,11.341464,17.073172
1548456299810,-0.276855,-0.977112,0.130127,3.780488,11.463415,17.317074
1548456299826,-0.281738,-0.978882,0.133606,3.963415,11.524390,17.256098
1548456299840,-0.289246,-0.973572,0.133362,4.268293,11.890244,17.378050
1548456299841,-0.288391,-0.976501,0.131104,5.365854,12.378049,17.682928
1548456299855,-0.288513,-0.976929,0.137390,5.182927,13.048780,17.743902
1548456299870,-0.291504,-0.976257,0.135559,4.756098,13.231708,17.743902
1548456299871,-0.294556,-0.978027,0.133484,4.573171,13.658537,17.865854
1548456299893,-0.297241,-0.973755,0.135559,4.573171,14.085366,18.292683
1548456299893,-0.298462,-0.971130,0.138611,4.573171,14.756098,18.841463
1548456299900,-0.301575,-0.973328,0.140259,4.573171,15.060976,18.963415
1548456299915,-0.302979,-0.973450,0.142029,4.695122,15.000000,19.024391
1548456299923,-0.309998,-0.972229,0.141541,4.634146,15.304878,19.268293
1548456299930,-0.313965,-0.975098,0.138611,4.390244,15.670732,19.878050
1548456299946,-0.318237,-0.976562,0.136536,3.353659,16.280489,20.304878
1548456299961,-0.322937,-0.969116,0.129211,2.256098,16.707317,20.670732
1548456299961,-0.328247,-0.962708,0.130127,1.341463,16.768293,20.914635
1548456299976,-0.335144,-0.957764,0.134949,1.158537,16.829269,20.975611
1548456299983,-0.340942,-0.957092,0.133240,1.707317,17.073172,20.975611
1548456299990,-0.339844,-0.960938,0.129517,2.134146,17.682928,20.670732
1548456300015,-0.338562,-0.961792,0.131226,2.439024,18.414635,20.426830
1548456300015,-0.341187,-0.963379,0.133423,2.256098,18.597561,20.609756
1548456300028,-0.348389,-0.961914,0.127625,1.951220,18.475611,20.914635
1548456300043,-0.352356,-0.957336,0.125977,1.341463,18.597561,21.219513
1548456300044,-0.357544,-0.957214,0.126831,0.487805,18.536585,21.341463
1548456300051,-0.361633,-0.955566,0.124939,0.121951,18.475611,21.158537
1548456300065,-0.367310,-0.953735,0.121643,-0.182927,18.597561,20.975611
1548456300080,-0.369690,-0.946045,0.117432,-0.548781,18.841463,20.731709
1548456300081,-0.372742,-0.943176,0.116455,-0.792683,19.085367,20.548780
1548456300103,-0.376892,-0.944946,0.114990,-0.548781,19.085367,20.182928
1548456300104,-0.379761,-0.942871,0.115234,-0.243902,18.963415,19.817074
1548456300110,-0.383667,-0.943481,0.111084,0.060976,18.963415,19.573172
1548456300133,-0.387268,-0.940857,0.110596,0.243902,18.841463,19.451220
1548456300134,-0.392151,-0.940918,0.107666,0.426829,18.597561,19.146341
1548456300148,-0.391479,-0.943359,0.104675,0.609756,18.414635,18.780489
1548456300156,-0.391174,-0.941406,0.107178,0.731707,18.414635,18.475611
1548456300163,-0.394836,-0.944031,0.108398,0.792683,18.109756,18.231709
1548456300171,-0.398560,-0.945496,0.111145,0.548781,17.804878,17.987804
1548456300186,-0.403259,-0.936768,0.112915,-0.243902,17.195122,18.231709
1548456300200,-0.408447,-0.935486,0.104370,-1.097561,16.829269,18.109756
1548456300201,-0.412903,-0.936218,0.101685,-2.073171,17.073172,17.865854
1548456300216,-0.415833,-0.930725,0.103088,-2.560976,17.012196,17.865854
1548456300238,-0.417969,-0.924805,0.100769,-2.560976,16.707317,17.439024
1548456300239,-0.416382,-0.915771,0.095764,-2.621951,16.951220,17.012196
1548456300253,-0.413696,-0.907349,0.071899,-2.743902,16.463415,16.524391
1548456300254,-0.402588,-0.914246,0.043030,-1.890244,16.097561,15.365854
1548456300268,-0.401855,-0.905151,0.041260,0.000000,13.902439,14.207317
1548456300276,-0.415100,-0.896851,0.057617,3.353659,8.719512,12.256098
1548456300283,-0.429993,-0.898621,0.083252,7.134147,3.780488,10.000000
1548456300291,-0.436462,-0.913513,0.101868,10.670732,1.646341,8.719512
1548456300305,-0.441223,-0.929932,0.113953,12.500000,1.829268,8.292683
1548456300320,-0.435913,-0.943909,0.109436,12.439025,3.170732,8.414635
1548456300321,-0.434021,-0.936707,0.100525,10.000000,4.329268,8.170732
1548456300336,-0.435181,-0.922302,0.095032,6.036585,3.353659,7.987805
1548456300343,-0.440491,-0.913879,0.090088,2.682927,1.646341,6.951220
1548456300358,-0.440613,-0.916565,0.093689,1.097561,0.060976,5.487805
1548456300373,-0.443176,-0.916077,0.101318,0.792683,-1.341463,4.329268
1548456300374,-0.447266,-0.915466,0.103455,1.036585,-2.256098,3.475610
1548456300388,-0.451416,-0.916443,0.106995,1.585366,-2.256098,2.987805
1548456300396,-0.447754,-0.918579,0.104126,2.378049,-1.402439,3.048780
1548456300410,-0.442749,-0.919189,0.101379,3.475610,-0.365854,3.170732
1548456300411,-0.441223,-0.920959,0.104309,4.512195,-0.060976,3.292683
1548456300426,-0.441956,-0.927429,0.102295,5.304878,-0.365854,3.231707
1548456300441,-0.442200,-0.928406,0.101440,5.243903,-0.182927,2.987805
1548456300441,-0.442383,-0.926025,0.105408,4.878049,-0.060976,3.658537
1548456300463,-0.443970,-0.924988,0.108154,4.268293,0.060976,3.902439
1548456300464,-0.447144,-0.923767,0.109802,3.658537,0.121951,4.268293
1548456300478,-0.450256,-0.918701,0.113159,3.170732,0.121951,4.451220
1548456300493,-0.449158,-0.918091,0.113037,2.865854,0.182927,4.451220
1548456300494,-0.447937,-0.922058,0.109375,2.926829,0.731707,4.390244
1548456300501,-0.446655,-0.923157,0.110413,3.109756,1.219512,4.634146
1548456300516,-0.447754,-0.920776,0.110535,3.109756,1.341463,5.060976
1548456300530,-0.450134,-0.922119,0.107422,2.621951,1.219512,5.121951
1548456300531,-0.449585,-0.919373,0.106812,2.134146,1.524390,5.121951
1548456300546,-0.451782,-0.916016,0.108154,1.890244,1.524390,5.182927
1548456300553,-0.452942,-0.915161,0.108704,2.012195,1.524390,5.365854
1548456300568,-0.457153,-0.915710,0.111633,2.317073,1.768293,5.304878
1548456300583,-0.455139,-0.918396,0.113770,2.560976,1.585366,5.304878
1548456300584,-0.457275,-0.917053,0.111755,2.621951,1.585366,5.060976
1548456300598,-0.454956,-0.917725,0.111938,2.439024,1.707317,5.000000
1548456300613,-0.455322,-0.915588,0.110779,2.073171,1.890244,4.939024
1548456300614,-0.457764,-0.914795,0.109009,1.768293,1.890244,4.939024
1548456300620,-0.460999,-0.913147,0.109070,1.341463,2.012195,4.939024
1548456300636,-0.461243,-0.911072,0.107056,0.914634,2.012195,4.817073
1548456300650,-0.462463,-0.908997,0.109619,0.731707,2.012195,4.573171
1548456300651,-0.461243,-0.909546,0.111023,0.914634,2.012195,4.268293
1548456300666,-0.460571,-0.912354,0.110718,1.280488,1.890244,4.146341
1548456300673,-0.463440,-0.914124,0.113281,1.463415,1.768293,3.902439
1548456300688,-0.463013,-0.911682,0.111755,1.097561,1.524390,3.414634
1548456300703,-0.463074,-0.913330,0.110229,0.487805,1.219512,3.170732
1548456300704,-0.462952,-0.912781,0.108704,0.365854,1.158537,2.560976
1548456300718,-0.460632,-0.909973,0.109741,0.060976,1.097561,2.378049
1548456300726,-0.462769,-0.912598,0.106262,-0.182927,0.914634,2.256098
1548456300740,-0.465820,-0.910461,0.103333,-0.426829,0.609756,1.890244
1548456300741,-0.465881,-0.903442,0.105469,-0.609756,0.304878,1.768293
1548456300756,-0.466003,-0.906799,0.104370,-0.426829,0.243902,1.585366
1548456300771,-0.466431,-0.908325,0.104919,0.182927,0.000000,1.158537
1548456300778,-0.464600,-0.909973,0.108337,0.670732,-0.304878,0.853659
1548456300793,-0.463989,-0.911377,0.109802,0.792683,-0.792683,0.487805
1548456300794,-0.462646,-0.913696,0.110168,0.792683,-0.853659,0.121951
1548456300808,-0.462769,-0.913757,0.108459,0.548781,-0.731707,0.243902
1548456300823,-0.465027,-0.913025,0.106079,0.000000,-0.548781,0.365854
1548456300824,-0.462830,-0.911804,0.105225,-0.304878,-0.426829,0.365854
1548456300831,-0.464172,-0.910645,0.105652,-0.426829,-0.914634,0.243902
1548456300846,-0.464355,-0.910828,0.104370,-0.243902,-1.219512,0.000000
1548456300861,-0.463318,-0.911438,0.108337,0.121951,-1.219512,-0.060976
1548456300861,-0.463745,-0.915527,0.107300,0.548781,-1.158537,0.060976
1548456300876,-0.464111,-0.914001,0.106873,0.792683,-1.036585,0.304878
1548456300883,-0.462952,-0.912415,0.108032,0.792683,-1.036585,0.487805
1548456300891,-0.464111,-0.911011,0.107788,0.487805,-1.158537,0.426829
1548456300913,-0.466553,-0.910156,0.105652,0.365854,-1.158537,0.487805
1548456300914,-0.467346,-0.910583,0.106995,0.365854,-0.975610,0.548781
1548456300928,-0.465820,-0.911621,0.109070,0.548781,-0.975610,0.487805
1548456300943,-0.464417,-0.914734,0.109863,0.487805,-1.158537,0.121951
1548456300944,-0.464355,-0.915588,0.108215,0.365854,-1.402439,-0.060976
1548456300950,-0.460083,-0.912842,0.107544,0.182927,-1.402439,-0.121951
1548456300966,-0.458801,-0.913818,0.107910,0.060976,-1.280488,-0.121951
1548456300981,-0.463684,-0.910278,0.109375,-0.121951,-1.280488,0.304878
1548456300981,-0.466797,-0.909180,0.105957,0.060976,-1.524390,0.487805
1548456300996,-0.465515,-0.909912,0.107239,0.243902,-1.280488,0.304878
1548456301003,-0.465332,-0.910400,0.106628,0.487805,-1.280488,0.426829
1548456301018,-0.464233,-0.914246,0.104980,0.487805,-1.463415,0.365854
1548456301034,-0.467224,-0.911011,0.106567,0.060976,-1.707317,0.060976
1548456301035,-0.467102,-0.909790,0.107300,-0.182927,-1.829268,0.121951
1548456301048,-0.467224,-0.909912,0.108337,0.000000,-1.524390,0.182927
1548456301055,-0.463928,-0.909119,0.106567,0.243902,-1.158537,0.060976
1548456301070,-0.464355,-0.908020,0.108215,0.243902,-1.158537,-0.060976
1548456301071,-0.464111,-0.908752,0.107666,0.487805,-1.585366,-0.182927
1548456301086,-0.464478,-0.913208,0.110840,0.670732,-1.585366,-0.243902
1548456301101,-0.464172,-0.912292,0.111877,0.609756,-1.158537,-0.243902
1548456301101,-0.465820,-0.911987,0.111694,0.365854,-1.036585,-0.243902
1548456301116,-0.466370,-0.911499,0.111084,-0.060976,-1.158537,-0.365854
1548456301123,-0.464417,-0.913147,0.107788,-0.548781,-1.219512,-0.548781
1548456301138,-0.463623,-0.910828,0.105347,-0.914634,-1.097561,-0.853659
1548456301153,-0.462952,-0.909729,0.105713,-1.097561,-1.097561,-0.975610
1548456301154,-0.463257,-0.911255,0.106567,-0.731707,-1.341463,-1.219512
1548456301161,-0.463562,-0.910583,0.106445,-0.487805,-1.646341,-1.402439
1548456301176,-0.461243,-0.913147,0.108032,-0.487805,-1.646341,-1.585366
1548456301190,-0.460022,-0.914124,0.106995,-0.426829,-1.707317,-1.890244
1548456301191,-0.458069,-0.912842,0.107361,-0.365854,-1.890244,-1.951220
1548456301206,-0.458923,-0.910828,0.105591,-0.182927,-2.134146,-1.829268
1548456301220,-0.458679,-0.915039,0.107666,0.182927,-2.378049,-1.707317
1548456301221,-0.460449,-0.918762,0.109009,0.304878,-2.621951,-1.646341
1548456301243,-0.464050,-0.918579,0.109131,-0.060976,-2.560976,-1.585366
1548456301244,-0.461975,-0.916626,0.106323,-0.487805,-2.073171,-1.341463
1548456301258,-0.459778,-0.913757,0.107239,-0.670732,-1.707317,-1.219512
1548456301273,-0.459045,-0.913025,0.104980,-0.731707,-1.646341,-0.975610
1548456301274,-0.460144,-0.915527,0.110657,-0.548781,-1.768293,-1.036585
1548456301281,-0.459900,-0.918762,0.113708,-0.304878,-1.890244,-0.914634
1548456301296,-0.457581,-0.917725,0.109985,0.121951,-1.707317,-0.609756
1548456301310,-0.455933,-0.919128,0.110107,0.182927,-1.280488,-0.121951
1548456301311,-0.459167,-0.919556,0.107971,-0.243902,-1.036585,0.060976
1548456301326,-0.461304,-0.916382,0.110657,-0.670732,-0.975610,0.304878
1548456301333,-0.462219,-0.914368,0.107971,-1.219512,-0.975610,0.426829
1548456301348,-0.462097,-0.909729,0.106873,-1.402439,-0.670732,0.487805
1548456301363,-0.458801,-0.911072,0.108154,-1.036585,-0.487805,0.548781
1548456301364,-0.457581,-0.915649,0.103821,-0.487805,-0.609756,0.548781
1548456301378,-0.456970,-0.917297,0.103638,-0.182927,-0.670732,0.365854
1548456301386,-0.459717,-0.912476,0.107666,-0.243902,-0.792683,0.243902
1548456301393,-0.459900,-0.911499,0.105408,-0.365854,-0.914634,0.426829
1548456301401,-0.462708,-0.913086,0.102844,-0.487805,-0.914634,0.426829
1548456301430,-0.461609,-0.913452,0.104187,-0.243902,-0.975610,0.304878
1548456301431,-0.457581,-0.910583,0.104614,-0.060976,-0.975610,0.060976
1548456301432,-0.456970,-0.910889,0.106262,0.182927,-1.097561,-0.182927
1548456301446,-0.458740,-0.909668,0.108032,0.426829,-1.341463,-0.365854
1548456301453,-0.458862,-0.917664,0.113159,0.792683,-1.524390,-0.609756
1548456301468,-0.455994,-0.919678,0.113220,0.609756,-1.524390,-0.914634
1548456301483,-0.455444,-0.918457,0.108704,-0.060976,-1.463415,-0.792683
1548456301484,-0.458069,-0.918579,0.105469,-0.853659,-1.524390,-0.731707
1548456301498,-0.456482,-0.916199,0.103210,-1.341463,-1.646341,-0.731707
1548456301506,-0.455872,-0.912964,0.100586,-1.768293,-1.768293,-0.853659
1548456301520,-0.458191,-0.907288,0.101746,-2.134146,-2.134146,-1.036585
1548456301521,-0.459778,-0.910095,0.104492,-1.707317,-2.500000,-1.280488
1548456301536,-0.460144,-0.910767,0.104797,-0.975610,-2.439024,-1.463415
1548456301550,-0.459229,-0.914062,0.104919,0.060976,-2.500000,-1.524390
1548456301551,-0.457825,-0.915100,0.109375,0.853659,-2.439024,-1.646341
1548456301574,-0.453979,-0.917542,0.108704,1.036585,-2.439024,-1.829268
1548456301574,-0.452576,-0.918030,0.106201,0.731707,-2.560976,-1.890244
1548456301588,-0.455566,-0.918823,0.105713,0.243902,-2.682927,-1.951220
1548456301603,-0.455872,-0.918457,0.104431,-0.304878,-2.621951,-2.073171
1548456301603,-0.452332,-0.915955,0.104553,-0.609756,-2.439024,-1.951220
1548456301610,-0.452148,-0.915588,0.104187,-0.853659,-2.378049,-1.829268
1548456301626,-0.450317,-0.914062,0.104065,-0.914634,-2.621951,-2.012195
1548456301641,-0.449890,-0.915161,0.102905,-0.487805,-3.048780,-2.317073
1548456301641,-0.450439,-0.915039,0.106750,-0.182927,-3.475610,-2.743902
1548456301656,-0.448669,-0.915527,0.108948,0.060976,-3.841464,-2.865854
1548456301663,-0.446716,-0.917358,0.108337,0.304878,-4.146341,-3.048780
1548456301670,-0.448975,-0.919434,0.107483,0.365854,-4.390244,-2.987805
1548456301693,-0.449280,-0.919128,0.105713,0.182927,-4.573171,-2.926829
1548456301694,-0.448364,-0.916504,0.104919,-0.121951,-4.878049,-3.048780
1548456301708,-0.451355,-0.915222,0.107788,-0.365854,-5.000000,-3.231707
1548456301723,-0.449158,-0.915039,0.106445,-0.426829,-5.365854,-3.658537
1548456301724,-0.446533,-0.915710,0.105286,-0.304878,-5.670732,-4.268293
1548456301730,-0.445557,-0.916748,0.107117,-0.060976,-5.975610,-4.634146
1548456301746,-0.445068,-0.914734,0.107056,0.121951,-6.158537,-5.000000
1548456301761,-0.444397,-0.918213,0.107361,0.426829,-6.402439,-5.304878
1548456301761,-0.442322,-0.918091,0.110596,0.609756,-6.707317,-5.487805
1548456301776,-0.443481,-0.920959,0.111145,0.731707,-6.890244,-5.670732
1548456301783,-0.438171,-0.922241,0.111511,0.731707,-7.134147,-6.280488
1548456301798,-0.435974,-0.921570,0.108704,0.609756,-7.439024,-6.646342
1548456301813,-0.436157,-0.922363,0.108948,0.365854,-7.621952,-6.768293
1548456301814,-0.437073,-0.919739,0.110352,0.000000,-7.865854,-7.012195
1548456301828,-0.436829,-0.919189,0.111816,-0.182927,-8.109756,-7.317073
1548456301836,-0.437378,-0.921875,0.113892,0.060976,-8.353659,-7.439024
1548456301850,-0.437561,-0.921509,0.114563,0.365854,-8.475610,-7.926829
1548456301851,-0.433472,-0.920776,0.112671,0.548781,-8.658537,-8.536586
1548456301866,-0.428650,-0.921448,0.116272,0.609756,-8.597561,-8.963415
1548456301888,-0.426086,-0.925598,0.118896,0.914634,-8.536586,-9.207317
1548456301889,-0.421448,-0.926208,0.117371,1.402439,-8.658537,-9.451220
1548456301903,-0.418396,-0.928162,0.116516,1.402439,-8.780488,-9.695122
1548456301904,-0.419189,-0.932251,0.119751,1.341463,-9.024390,-9.817074
1548456301918,-0.418701,-0.931702,0.120422,1.280488,-9.207317,-9.939025
1548456301933,-0.415588,-0.930847,0.119629,0.853659,-9.451220,-10.060976
1548456301934,-0.415466,-0.932617,0.123291,0.426829,-9.695122,-10.121951
1548456301941,-0.416748,-0.930420,0.122375,0.182927,-9.695122,-10.243902
1548456301955,-0.412415,-0.930908,0.123962,0.000000,-9.634147,-10.365854
1548456301970,-0.408142,-0.932861,0.125671,0.304878,-9.390244,-10.426829
1548456301971,-0.407166,-0.934326,0.127136,0.609756,-9.512196,-10.548780
1548456301986,-0.402588,-0.935974,0.125549,1.036585,-9.634147,-10.670732
1548456301993,-0.400757,-0.938293,0.124268,1.463415,-9.756098,-10.548780
1548456302001,-0.400024,-0.942383,0.126526,1.768293,-9.817074,-10.426829
1548456302023,-0.401428,-0.939941,0.128418,1.585366,-9.878049,-10.182927
1548456302024,-0.402161,-0.937012,0.130066,1.158537,-9.939025,-10.000000
1548456302038,-0.400330,-0.936951,0.128052,0.914634,-9.817074,-9.756098
1548456302053,-0.399719,-0.938477,0.132446,0.731707,-9.695122,-9.878049
1548456302054,-0.398560,-0.940186,0.134033,0.853659,-9.390244,-9.939025
1548456302061,-0.393250,-0.940857,0.136841,0.914634,-8.963415,-10.121951
