timestamp, accel_x, accel_y, accel_z, gyro_x, gyro_y, gyro_z
1548456811768,-1.004700,0.204407,0.037598,-0.121951,-1.524390,1.890244
1548456811776,-1.016541,0.204285,0.036133,0.182927,-1.707317,1.829268
1548456811783,-1.015808,0.201294,0.038025,0.060976,-1.585366,1.585366
1548456811789,-1.015076,0.203186,0.039856,-0.060976,-1.402439,1.402439
1548456811804,-1.014954,0.202026,0.038696,0.000000,-1.402439,1.402439
1548456811815,-1.013550,0.197632,0.038269,0.000000,-1.402439,1.463415
1548456811819,-1.011292,0.197815,0.041565,-0.182927,-1.280488,1.280488
1548456811836,-1.013428,0.201172,0.043396,-0.426829,-1.158537,1.097561
1548456811843,-1.015564,0.202942,0.045105,-0.426829,-1.036585,0.975610
1548456811864,-1.016357,0.202820,0.044189,-0.182927,-0.975610,0.975610
1548456811865,-1.014343,0.199951,0.041809,0.121951,-0.792683,0.914634
1548456811871,-1.016296,0.199036,0.045410,0.243902,-0.670732,0.670732
1548456811887,-1.014282,0.198730,0.051453,0.121951,-0.609756,0.548781
1548456811894,-1.009705,0.197815,0.049133,0.121951,-0.670732,0.304878
1548456811901,-1.012939,0.197266,0.050354,0.121951,-0.670732,0.182927
1548456811909,-1.013855,0.198975,0.051208,0.182927,-0.731707,-0.060976
1548456811924,-1.016052,0.203003,0.048340,0.304878,-0.731707,-0.182927
1548456811931,-1.018494,0.204163,0.051392,0.243902,-0.731707,-0.243902
1548456811939,-1.016235,0.205322,0.048462,0.243902,-0.609756,-0.365854
1548456811954,-1.017395,0.205688,0.050232,0.304878,-0.670732,-0.487805
1548456811961,-1.015381,0.205627,0.051147,0.304878,-0.670732,-0.609756
1548456811969,-1.013245,0.205750,0.051697,0.365854,-0.670732,-0.792683
1548456811984,-1.012512,0.207825,0.052246,0.548781,-0.731707,-0.853659
1548456811992,-1.011780,0.210999,0.050476,0.609756,-0.731707,-0.853659
1548456812006,-1.011108,0.211304,0.051575,0.670732,-0.670732,-0.792683
1548456812014,-1.009644,0.212341,0.048767,0.670732,-0.670732,-0.731707
1548456812021,-1.010071,0.213806,0.050232,0.548781,-0.731707,-0.670732
1548456812029,-1.010742,0.214783,0.051453,0.609756,-0.853659,-0.548781
1548456812052,-1.011230,0.214783,0.050781,0.548781,-0.975610,-0.426829
1548456812052,-1.009705,0.213135,0.046326,0.487805,-0.975610,-0.365854
1548456812059,-1.011353,0.215698,0.041016,0.304878,-0.792683,-0.243902
1548456812074,-1.012817,0.216797,0.041992,0.121951,-0.853659,-0.121951
1548456812081,-1.013123,0.215088,0.041260,0.060976,-0.792683,0.121951
1548456812089,-1.015503,0.214478,0.040283,-0.121951,-0.670732,0.304878
1548456812104,-1.017395,0.214722,0.038086,-0.182927,-0.670732,0.426829
1548456812119,-1.019409,0.212708,0.037231,-0.060976,-0.670732,0.548781
1548456812120,-1.017639,0.210693,0.043640,0.304878,-0.426829,0.731707
1548456812134,-1.017639,0.210022,0.042908,0.426829,-0.365854,0.792683
1548456812141,-1.016357,0.208130,0.043030,0.365854,-0.426829,0.853659
1548456812149,-1.014893,0.206177,0.044617,0.487805,-0.426829,0.914634
1548456812164,-1.015198,0.204834,0.044067,0.548781,-0.365854,0.914634
1548456812172,-1.014526,0.202942,0.045959,0.548781,-0.365854,0.853659
1548456812179,-1.013184,0.204712,0.047424,0.548781,-0.426829,0.731707
1548456812194,-1.014893,0.200684,0.048950,0.426829,-0.426829,0.609756
1548456812201,-1.016968,0.202698,0.047302,0.365854,-0.609756,0.609756
1548456812209,-1.015259,0.203796,0.050110,0.548781,-0.670732,0.365854
1548456812224,-1.016052,0.202209,0.050903,0.487805,-0.609756,0.243902
1548456812231,-1.016724,0.203552,0.050720,0.365854,-0.609756,0.243902
1548456812239,-1.015869,0.208374,0.049927,0.365854,-0.548781,0.243902
1548456812254,-1.015259,0.210754,0.049011,0.365854,-0.365854,0.121951
1548456812261,-1.013733,0.210449,0.049377,0.548781,-0.182927,0.182927
1548456812269,-1.012390,0.212402,0.049316,0.670732,0.060976,0.121951
1548456812284,-1.012146,0.212830,0.046936,1.097561,0.243902,0.243902
1548456812291,-1.009277,0.213928,0.048950,1.585366,0.365854,0.304878
1548456812299,-1.010315,0.212219,0.046387,2.012195,0.548781,0.426829
1548456812314,-1.009705,0.211731,0.044678,2.195122,0.548781,0.670732
1548456812322,-1.009766,0.209717,0.045776,2.195122,0.365854,0.853659
1548456812329,-1.010986,0.206421,0.045898,2.012195,0.365854,0.975610
1548456812344,-1.011414,0.203064,0.047058,1.585366,0.243902,1.158537
1548456812351,-1.013855,0.203552,0.049377,1.158537,0.060976,1.341463
1548456812359,-1.015991,0.200745,0.047424,0.792683,-0.060976,1.402439
1548456812374,-1.015503,0.198059,0.048584,0.487805,-0.426829,1.402439
1548456812382,-1.013855,0.198547,0.050110,0.182927,-0.853659,1.280488
1548456812389,-1.015320,0.198120,0.052734,-0.182927,-1.097561,1.097561
1548456812404,-1.014954,0.196472,0.049500,-0.609756,-1.402439,0.914634
1548456812411,-1.012329,0.199768,0.046631,-0.792683,-1.585366,0.548781
1548456812419,-1.016541,0.200928,0.047363,-0.975610,-1.524390,0.182927
1548456812434,-1.017212,0.202820,0.043213,-0.975610,-1.524390,-0.121951
1548456812441,-1.019653,0.203491,0.041748,-0.914634,-1.463415,-0.487805
1548456812449,-1.018860,0.204651,0.042725,-0.731707,-1.585366,-0.853659
1548456812464,-1.016235,0.206055,0.043457,-0.853659,-1.585366,-1.036585
1548456812471,-1.013672,0.208984,0.041565,-0.853659,-1.402439,-1.158537
1548456812479,-1.010620,0.212036,0.041931,-0.731707,-1.280488,-1.036585
1548456812494,-1.010925,0.216064,0.040588,-0.731707,-1.219512,-0.914634
1548456812501,-1.009094,0.217346,0.038025,-0.426829,-1.097561,-0.853659
1548456812509,-1.008606,0.217041,0.041748,-0.182927,-0.975610,-0.853659
1548456812524,-1.005005,0.215637,0.044678,-0.121951,-1.036585,-0.670732
1548456812532,-1.004333,0.215881,0.043640,0.060976,-1.097561,-0.487805
1548456812539,-1.005371,0.215088,0.047485,0.182927,-1.280488,-0.365854
1548456812554,-1.005920,0.214355,0.050171,0.121951,-1.280488,-0.243902
1548456812561,-1.009644,0.211731,0.051025,0.243902,-1.341463,-0.060976
1548456812569,-1.015381,0.212097,0.053589,0.365854,-1.463415,0.182927
1548456812584,-1.017700,0.210266,0.056763,0.426829,-1.585366,0.121951
1548456812591,-1.018188,0.207092,0.057251,0.426829,-1.524390,0.182927
1548456812599,-1.017822,0.206543,0.057007,0.487805,-1.768293,0.243902
1548456812614,-1.016785,0.205444,0.060059,0.365854,-1.768293,0.182927
1548456812621,-1.017029,0.205688,0.062683,0.121951,-1.707317,0.182927
1548456812629,-1.016235,0.207520,0.060730,0.000000,-1.829268,0.121951
1548456812644,-1.014404,0.205994,0.057800,-0.121951,-1.951220,-0.060976
1548456812651,-1.014771,0.204834,0.057617,-0.426829,-1.829268,-0.060976
1548456812659,-1.013977,0.207031,0.054993,-0.609756,-1.768293,0.000000
1548456812674,-1.014587,0.207031,0.054565,-0.548781,-1.890244,0.000000
1548456812689,-1.013733,0.205933,0.056824,-0.487805,-1.951220,0.121951
1548456812690,-1.016907,0.207764,0.055725,-0.365854,-1.951220,0.182927
1548456812704,-1.015625,0.210632,0.051819,-0.365854,-1.829268,0.243902
1548456812711,-1.013306,0.209106,0.049133,-0.182927,-1.890244,0.365854
1548456812719,-1.014221,0.207336,0.047302,-0.060976,-1.768293,0.365854
1548456812734,-1.014343,0.206970,0.046448,0.000000,-1.646341,0.487805
1548456812741,-1.013428,0.206909,0.042847,0.121951,-1.646341,0.670732
1548456812749,-1.011108,0.206726,0.042114,0.243902,-1.341463,0.548781
1548456812764,-1.013855,0.204224,0.043030,0.426829,-1.219512,0.548781
1548456812771,-1.015564,0.203491,0.041016,0.731707,-0.975610,0.670732
1548456812779,-1.016602,0.204407,0.040894,0.975610,-0.853659,0.548781
1548456812794,-1.015503,0.205383,0.041016,0.975610,-0.609756,0.487805
1548456812801,-1.014709,0.206848,0.040710,0.914634,-0.426829,0.365854
1548456812809,-1.013306,0.208252,0.040649,0.853659,-0.304878,0.304878
1548456812824,-1.013489,0.206177,0.037781,0.792683,-0.121951,0.304878
1548456812832,-1.013611,0.205444,0.039612,0.731707,0.121951,0.243902
1548456812839,-1.013611,0.209290,0.044067,0.609756,0.243902,0.182927
1548456812854,-1.015381,0.212402,0.043884,0.670732,0.243902,0.182927
1548456812861,-1.014526,0.216919,0.045105,0.609756,0.182927,0.182927
1548456812869,-1.015564,0.217529,0.046326,0.731707,0.243902,0.243902
1548456812884,-1.012451,0.219116,0.052979,0.914634,0.243902,0.426829
1548456812891,-1.011108,0.221436,0.052917,1.158537,0.060976,0.548781
1548456812899,-1.011108,0.222778,0.053406,1.341463,-0.121951,0.731707
1548456812914,-1.011841,0.227844,0.054321,1.341463,-0.121951,0.975610
1548456812922,-1.012329,0.230408,0.057495,1.219512,-0.243902,1.341463
1548456812929,-1.012817,0.232788,0.061646,1.341463,-0.426829,1.707317
1548456812944,-1.014832,0.234253,0.064087,1.524390,-0.548781,2.073171
1548456812952,-1.010132,0.233459,0.063904,1.585366,-0.731707,2.378049
1548456812959,-1.008972,0.237610,0.066589,1.768293,-1.036585,2.743902
1548456812974,-1.005798,0.247620,0.071228,1.829268,-1.280488,3.109756
1548456812982,-1.001953,0.245483,0.069580,2.195122,-1.646341,3.780488
1548456812997,-1.003174,0.235107,0.074829,2.804878,-2.073171,4.390244
1548456813004,-1.006653,0.234619,0.080566,2.865854,-2.500000,4.756098
1548456813012,-1.008240,0.241272,0.078979,2.804878,-2.926829,5.000000
1548456813019,-1.007751,0.240417,0.077148,2.256098,-3.292683,5.548780
1548456813034,-1.007751,0.236755,0.078003,1.463415,-3.597561,6.280488
1548456813041,-1.004272,0.237122,0.076843,0.670732,-3.963415,6.768293
1548456813049,-1.005615,0.239624,0.074097,-0.243902,-4.451220,7.073171
1548456813064,-1.011536,0.246582,0.069763,-1.036585,-4.756098,7.378049
1548456813071,-1.009460,0.249634,0.068787,-1.524390,-4.512195,7.926829
1548456813079,-1.007202,0.245483,0.070374,-1.097561,-4.512195,8.597561
1548456813094,-1.006226,0.239197,0.074890,-0.121951,-4.939024,9.146341
1548456813101,-1.007019,0.241150,0.075317,0.060976,-5.609756,9.207317
1548456813109,-1.010864,0.249207,0.070923,-0.060976,-5.914634,9.207317
1548456813124,-1.007568,0.249451,0.067993,-0.182927,-5.853659,9.634147
1548456813131,-1.003174,0.252075,0.071228,-0.182927,-5.670732,10.304878
1548456813139,-1.001099,0.251282,0.073853,0.365854,-5.975610,10.731708
1548456813154,-1.001099,0.250427,0.077820,0.975610,-6.524390,11.036586
1548456813161,-1.000610,0.250244,0.074158,1.219512,-7.012195,11.158537
1548456813169,-1.001282,0.251648,0.075073,1.463415,-7.256098,11.341464
1548456813184,-1.001892,0.252747,0.075623,1.402439,-7.439024,11.646341
1548456813191,-1.000366,0.252991,0.077759,1.158537,-7.682927,11.951220
1548456813199,-1.000488,0.254272,0.076538,0.975610,-7.926829,12.439025
1548456813214,-1.000427,0.257141,0.078552,0.609756,-8.048780,12.743903
1548456813221,-1.001343,0.260132,0.076721,-0.121951,-8.292683,12.804878
1548456813229,-1.003662,0.265808,0.076538,-0.731707,-8.414635,12.987805
1548456813244,-1.003784,0.270142,0.076294,-1.158537,-8.353659,13.353659
1548456813251,-0.999756,0.272339,0.076477,-1.097561,-8.231708,13.780488
1548456813259,-0.999146,0.274292,0.077698,-0.914634,-8.231708,13.963415
1548456813274,-0.998474,0.273499,0.082092,-0.487805,-8.292683,14.085366
1548456813281,-0.998291,0.272888,0.082275,-0.365854,-8.475610,14.268293
1548456813289,-0.998230,0.276855,0.082275,-0.426829,-8.597561,14.268293
1548456813304,-0.998413,0.280701,0.083191,-0.670732,-8.536586,14.390244
1548456813311,-0.997131,0.286621,0.081360,-1.158537,-8.475610,14.634147
1548456813326,-0.995300,0.289429,0.079163,-1.341463,-8.414635,14.878049
1548456813334,-0.992798,0.292908,0.085022,-1.280488,-8.414635,15.182927
1548456813341,-0.991394,0.293945,0.090332,-0.853659,-8.597561,15.426829
1548456813349,-0.991821,0.295349,0.090576,-0.304878,-8.780488,15.731708
1548456813364,-0.989807,0.298157,0.096191,-0.121951,-8.963415,15.853659
1548456813371,-0.990845,0.298889,0.098328,0.182927,-9.085366,15.975610
1548456813379,-0.990723,0.307068,0.098755,0.365854,-9.329268,16.219513
1548456813394,-0.989868,0.316956,0.104187,0.426829,-9.512196,16.463415
1548456813402,-0.987122,0.323303,0.106140,0.548781,-9.573171,16.951220
1548456813409,-0.984192,0.327942,0.108521,1.158537,-9.817074,17.378050
1548456813424,-0.981628,0.328796,0.109680,1.829268,-10.000000,17.743902
1548456813431,-0.976257,0.325867,0.115540,2.378049,-10.182927,18.231709
1548456813439,-0.975403,0.326416,0.122559,2.621951,-10.548780,18.597561
1548456813454,-0.977112,0.330994,0.126282,2.804878,-11.036586,18.902439
1548456813461,-0.979431,0.335266,0.127808,2.378049,-11.341464,19.207317
1548456813469,-0.979736,0.341797,0.128235,1.890244,-11.524390,19.878050
1548456813484,-0.980652,0.345154,0.127136,1.280488,-11.768293,20.365854
1548456813491,-0.978821,0.349182,0.126465,0.853659,-11.890244,20.914635
1548456813499,-0.975586,0.355042,0.129456,0.426829,-11.890244,21.463415
1548456813514,-0.973450,0.360779,0.134521,0.243902,-12.134147,21.829269
1548456813522,-0.971375,0.362793,0.138245,0.487805,-12.439025,22.256098
1548456813529,-0.972168,0.360046,0.140747,0.792683,-12.743903,22.682928
1548456813544,-0.970276,0.363342,0.144775,1.036585,-12.987805,22.987806
1548456813552,-0.967773,0.373169,0.147461,0.914634,-13.231708,23.292683
1548456813559,-0.964111,0.382324,0.147827,0.670732,-13.597561,23.780489
1548456813574,-0.961365,0.388855,0.148743,0.609756,-13.963415,24.329269
1548456813582,-0.960327,0.393188,0.150513,0.731707,-14.146341,24.817074
1548456813589,-0.956726,0.397583,0.153564,1.036585,-14.390244,25.243902
1548456813604,-0.956360,0.398071,0.155945,1.646341,-14.817074,25.853659
1548456813612,-0.958435,0.399048,0.164185,2.256098,-15.121951,26.463415
1548456813619,-0.955444,0.395752,0.162415,2.500000,-15.609756,26.890245
1548456813634,-0.954163,0.396973,0.159973,2.378049,-16.097561,27.317074
1548456813641,-0.956177,0.400696,0.158875,1.707317,-16.341463,27.500000
1548456813649,-0.952759,0.404907,0.159912,1.158537,-16.402439,27.987806
1548456813664,-0.949341,0.408325,0.161194,0.548781,-16.402439,28.597561
1548456813671,-0.949219,0.413818,0.163391,0.121951,-16.707317,29.085367
1548456813679,-0.946960,0.420959,0.163452,-0.304878,-16.951220,29.390245
1548456813694,-0.946777,0.427917,0.164246,-0.731707,-17.256098,29.634148
1548456813701,-0.942078,0.428650,0.165405,-0.853659,-17.256098,29.756098
1548456813709,-0.937195,0.432373,0.168030,-0.670732,-17.317074,30.060976
1548456813724,-0.935364,0.437134,0.171265,-0.121951,-17.439024,30.243902
1548456813731,-0.932983,0.437378,0.173584,0.365854,-17.682928,30.426830
1548456813739,-0.932983,0.437622,0.175720,0.731707,-17.865854,30.609756
1548456813754,-0.926758,0.436462,0.177063,1.158537,-17.926830,30.609756
1548456813762,-0.925171,0.445618,0.180176,1.219512,-17.987804,30.487806
1548456813769,-0.922180,0.450012,0.183105,1.280488,-18.109756,30.609756
1548456813784,-0.922363,0.450989,0.182556,1.585366,-18.109756,30.609756
1548456813791,-0.917419,0.454895,0.183655,1.646341,-18.170732,30.548780
1548456813799,-0.911499,0.465149,0.187256,1.463415,-18.170732,30.426830
1548456813814,-0.909607,0.472290,0.185974,1.463415,-18.109756,30.548780
1548456813821,-0.908508,0.476074,0.187866,1.646341,-18.292683,30.670732
1548456813829,-0.906433,0.478210,0.195923,1.890244,-18.292683,30.731709
1548456813844,-0.902588,0.487183,0.195984,2.317073,-18.353659,30.731709
1548456813851,-0.901550,0.496765,0.202576,2.439024,-18.231709,30.853659
1548456813859,-0.899780,0.502808,0.208801,2.865854,-18.353659,31.097561
1548456813874,-0.895203,0.510193,0.208984,3.658537,-18.658537,31.158537
1548456813882,-0.890076,0.518188,0.211243,4.146341,-18.719513,31.219513
1548456813889,-0.881531,0.525024,0.219055,4.268293,-18.780489,31.463415
1548456813904,-0.876221,0.538513,0.227722,4.390244,-18.963415,31.890245
1548456813911,-0.870850,0.552002,0.231506,4.573171,-19.329269,32.378048
1548456813919,-0.871216,0.559937,0.235229,4.878049,-19.634148,32.926830
1548456813934,-0.865051,0.565735,0.239624,5.060976,-20.000000,33.536587
1548456813941,-0.861450,0.571167,0.243469,5.243903,-20.182928,34.085365
1548456813949,-0.857056,0.582520,0.247620,5.243903,-20.548780,34.634148
1548456813964,-0.854370,0.580017,0.249329,5.121951,-21.036587,35.243904
1548456813971,-0.861694,0.572693,0.254028,4.878049,-21.951220,35.487804
1548456813979,-0.859314,0.575134,0.252625,4.756098,-22.439024,36.097561
1548456813994,-0.853394,0.583496,0.256836,4.146341,-21.707317,36.890244
1548456814001,-0.847595,0.594238,0.256775,3.109756,-21.280489,37.500000
1548456814009,-0.841919,0.607727,0.256226,2.560976,-21.341463,37.987804
1548456814024,-0.834229,0.613892,0.257446,2.500000,-21.463415,38.475609
1548456814032,-0.828918,0.613953,0.260986,2.682927,-21.646341,39.207317
1548456814039,-0.820679,0.618774,0.268005,3.170732,-21.524391,39.939026
1548456814054,-0.817078,0.615967,0.268188,3.658537,-21.341463,40.365856
1548456814061,-0.820923,0.601562,0.272644,3.780488,-21.646341,40.731709
1548456814069,-0.819153,0.602112,0.276550,3.841464,-22.012196,41.036587
1548456814084,-0.809448,0.608032,0.274536,3.597561,-21.402439,40.792683
1548456814092,-0.805847,0.606750,0.271423,1.951220,-21.768293,41.341465
1548456814099,-0.809509,0.606995,0.270386,1.219512,-22.134148,41.829269
1548456814114,-0.808228,0.605591,0.269348,0.975610,-22.439024,41.951221
1548456814121,-0.798584,0.617493,0.274597,0.975610,-21.890244,41.951221
1548456814129,-0.784912,0.629028,0.269531,1.280488,-21.097561,42.073174
1548456814144,-0.780579,0.619873,0.263367,1.158537,-20.731709,41.890244
1548456814151,-0.779358,0.619263,0.269897,1.524390,-20.975611,41.463417
1548456814159,-0.773010,0.617798,0.271301,2.500000,-21.158537,41.097561
1548456814174,-0.764954,0.612183,0.273010,2.804878,-20.914635,40.792683
1548456814181,-0.760071,0.614014,0.276001,3.292683,-20.304878,40.365856
1548456814189,-0.748108,0.621399,0.280457,3.536585,-19.939024,39.634148
1548456814204,-0.740295,0.627625,0.279114,3.841464,-19.573172,39.146343
1548456814212,-0.737976,0.635925,0.279480,3.963415,-19.268293,38.719513
1548456814227,-0.728882,0.647949,0.284485,4.451220,-19.268293,38.231709
1548456814234,-0.722046,0.655090,0.283264,5.304878,-19.268293,37.682926
1548456814242,-0.714783,0.655273,0.281250,5.975610,-19.024391,37.195122
1548456814249,-0.706482,0.639893,0.285461,6.463415,-18.902439,36.768295
1548456814264,-0.696472,0.611511,0.285339,6.829268,-18.597561,36.463417
1548456814272,-0.696533,0.588562,0.273926,6.158537,-18.475611,35.670734
1548456814279,-0.701294,0.608276,0.284790,2.865854,-18.963415,34.451221
1548456814294,-0.704834,0.665222,0.296265,-0.670732,-18.475611,33.414635
1548456814302,-0.711121,0.715698,0.302246,-1.951220,-17.256098,32.987804
1548456814309,-0.713562,0.725281,0.296692,-0.609756,-16.524391,32.134148
1548456814324,-0.705017,0.690674,0.288574,2.682927,-16.158537,30.975611
1548456814331,-0.687134,0.661133,0.289307,6.158537,-15.487805,29.939026
1548456814339,-0.664734,0.662720,0.295776,7.926829,-14.085366,29.390245
1548456814354,-0.641663,0.677490,0.298462,6.463415,-12.621951,29.268293
1548456814361,-0.625122,0.701477,0.304504,3.719512,-11.829268,29.024391
1548456814369,-0.623108,0.711853,0.308105,2.256098,-12.317074,28.597561
1548456814384,-0.636841,0.701782,0.309265,2.682927,-13.963415,28.292683
1548456814391,-0.650024,0.681519,0.305359,4.390244,-15.060976,27.743902
1548456814399,-0.655701,0.674500,0.305359,5.975610,-15.000000,27.073172
1548456814414,-0.653015,0.676147,0.305420,7.012195,-14.024390,26.280489
1548456814429,-0.640930,0.685303,0.301514,6.585366,-12.743903,25.243902
1548456814429,-0.628113,0.703918,0.299438,5.365854,-11.768293,24.268293
1548456814444,-0.616150,0.722717,0.300293,4.268293,-10.914635,23.658537
1548456814452,-0.604736,0.735413,0.300232,3.719512,-10.304878,23.292683
1548456814459,-0.597290,0.742249,0.305420,4.024390,-9.695122,22.926830
1548456814474,-0.603149,0.723267,0.303833,5.243903,-9.390244,22.621952
1548456814481,-0.614197,0.692688,0.305847,5.914634,-9.573171,22.134148
1548456814489,-0.617188,0.687134,0.310364,6.280488,-9.756098,21.097561
1548456814504,-0.614746,0.690735,0.317688,6.158537,-9.390244,20.182928
1548456814511,-0.609619,0.692200,0.311768,5.243903,-8.841464,19.512196
1548456814519,-0.604858,0.696045,0.304626,3.902439,-8.292683,18.780489
1548456814534,-0.600037,0.698486,0.303284,2.743902,-7.865854,17.682928
1548456814541,-0.593445,0.701111,0.302612,2.256098,-7.560976,16.463415
1548456814549,-0.583313,0.714050,0.303162,2.012195,-7.195122,15.121951
1548456814564,-0.577148,0.736267,0.309326,2.439024,-6.463415,13.963415
1548456814571,-0.576965,0.743652,0.307922,3.536585,-5.792683,13.353659
1548456814579,-0.576355,0.741333,0.301392,4.695122,-5.670732,12.865854
1548456814594,-0.577148,0.727478,0.299072,6.280488,-5.609756,12.073171
1548456814601,-0.577637,0.706665,0.303284,7.073171,-5.304878,11.585366
1548456814609,-0.574280,0.713013,0.306030,7.012195,-4.634146,10.853659
1548456814624,-0.569946,0.743958,0.307007,6.585366,-4.085366,9.634147
1548456814631,-0.565369,0.754639,0.305664,5.914634,-3.902439,9.085366
1548456814639,-0.571960,0.732971,0.305359,5.487805,-4.085366,9.085366
1548456814654,-0.581421,0.705627,0.304565,6.219512,-4.146341,8.658537
1548456814662,-0.585999,0.689331,0.303223,7.134147,-3.597561,7.317073
1548456814669,-0.584167,0.697388,0.301514,6.890244,-2.987805,6.036585
1548456814684,-0.574280,0.729553,0.306519,5.304878,-2.439024,4.878049
1548456814691,-0.557373,0.776611,0.305664,3.048780,-2.012195,3.902439
1548456814699,-0.541382,0.792236,0.292358,1.280488,-1.280488,3.414634
1548456814714,-0.537903,0.765686,0.292969,-0.060976,-0.609756,3.353659
1548456814721,-0.550049,0.763855,0.306213,0.609756,-0.121951,3.170732
1548456814729,-0.562195,0.774658,0.311401,3.048780,-0.548781,2.621951
1548456814744,-0.568848,0.766235,0.309753,4.024390,-0.975610,2.621951
1548456814751,-0.570007,0.749878,0.307861,4.207317,-1.036585,2.317073
1548456814759,-0.567322,0.747681,0.311401,4.451220,-0.792683,1.585366
1548456814774,-0.562073,0.753479,0.310974,4.695122,-0.243902,0.914634
1548456814782,-0.561218,0.752441,0.305969,4.329268,0.000000,0.670732
1548456814789,-0.564026,0.750793,0.300659,3.048780,-0.060976,0.304878
1548456814804,-0.564270,0.762390,0.303101,2.012195,-0.304878,-0.487805
1548456814811,-0.556396,0.773682,0.301575,1.707317,0.000000,-1.097561
1548456814819,-0.547363,0.776123,0.304321,0.914634,0.975610,-1.341463
1548456814834,-0.547241,0.772827,0.301025,0.426829,1.890244,-1.219512
1548456814842,-0.553955,0.759277,0.300903,0.365854,2.195122,-1.219512
1548456814849,-0.560181,0.746887,0.301392,0.609756,1.768293,-1.524390
1548456814864,-0.573792,0.729065,0.296753,0.609756,1.463415,-1.951220
1548456814872,-0.582458,0.712708,0.297485,0.060976,1.524390,-2.621951
1548456814879,-0.583923,0.723267,0.302307,-0.609756,1.890244,-3.658537
1548456814894,-0.572510,0.758606,0.312744,-0.914634,2.439024,-4.695122
1548456814902,-0.553284,0.781067,0.312073,-1.036585,3.353659,-5.365854
1548456814909,-0.540649,0.780945,0.305054,-0.670732,4.024390,-5.731708
1548456814924,-0.543945,0.758118,0.300049,0.792683,3.902439,-5.975610
1548456814931,-0.557373,0.734802,0.301331,2.439024,3.231707,-6.158537
1548456814939,-0.568420,0.731201,0.308838,3.658537,2.621951,-6.585366
1548456814954,-0.573486,0.738220,0.311707,3.780488,2.378049,-7.073171
1548456814961,-0.582703,0.725769,0.308289,2.560976,2.500000,-7.500000
1548456814969,-0.589539,0.724609,0.311584,1.219512,2.682927,-8.109756
1548456814984,-0.581360,0.752136,0.317139,0.670732,2.926829,-9.024390
1548456814992,-0.571350,0.766907,0.312195,0.426829,3.780488,-9.756098
1548456814999,-0.567078,0.753601,0.302246,-0.426829,4.573171,-10.000000
1548456815014,-0.572449,0.744019,0.301453,-1.280488,4.634146,-10.487805
1548456815021,-0.573975,0.763672,0.311035,-1.341463,4.207317,-11.097561
1548456815029,-0.568298,0.793457,0.318176,-0.914634,4.085366,-11.219512
1548456815044,-0.565186,0.793823,0.320190,-0.853659,4.390244,-10.731708
1548456815051,-0.568054,0.794006,0.329041,-1.158537,4.329268,-10.121951
1548456815059,-0.574951,0.802612,0.332031,-0.182927,3.353659,-9.939025
1548456815074,-0.587463,0.793335,0.330872,0.792683,2.500000,-9.695122
1548456815081,-0.602539,0.768494,0.322083,0.792683,1.829268,-9.268292
1548456815089,-0.611450,0.763123,0.315308,1.097561,1.402439,-9.390244
1548456815104,-0.611145,0.767212,0.316833,1.402439,1.768293,-9.939025
1548456815112,-0.610229,0.766296,0.317871,0.853659,2.317073,-9.939025
1548456815119,-0.608337,0.767151,0.316772,-0.060976,2.500000,-9.695122
1548456815134,-0.600281,0.776855,0.318176,-1.036585,2.439024,-9.756098
1548456815142,-0.589661,0.784119,0.320496,-2.073171,2.500000,-9.817074
1548456815149,-0.586304,0.773376,0.314453,-3.048780,2.682927,-9.573171
1548456815164,-0.593201,0.742737,0.314697,-3.963415,2.743902,-9.146341
1548456815171,-0.604797,0.723877,0.323853,-4.573171,2.560976,-9.146341
1548456815179,-0.607056,0.735168,0.333740,-4.634146,2.134146,-9.329268
1548456815194,-0.612122,0.736816,0.326355,-4.817073,1.646341,-9.329268
1548456815202,-0.618103,0.716125,0.319153,-6.158537,1.402439,-9.329268
1548456815209,-0.624023,0.692993,0.314697,-7.134147,1.036585,-9.634147
1548456815224,-0.626831,0.692932,0.313843,-7.256098,0.975610,-10.487805
1548456815232,-0.625488,0.712402,0.310181,-7.378049,1.158537,-11.524390
1548456815239,-0.622925,0.722351,0.298279,-7.926829,1.463415,-12.195122
1548456815254,-0.622009,0.719482,0.289124,-8.475610,1.890244,-12.560976
1548456815261,-0.620422,0.706848,0.289429,-8.353659,2.621951,-13.109756
1548456815269,-0.621765,0.701355,0.297058,-7.378049,3.536585,-13.719513
1548456815284,-0.620117,0.708984,0.300903,-5.853659,4.024390,-14.573171
1548456815292,-0.624756,0.698608,0.296387,-4.268293,4.207317,-15.243903
1548456815299,-0.636353,0.665955,0.293091,-3.292683,4.024390,-15.548780
1548456815314,-0.646606,0.650696,0.297363,-2.500000,3.902439,-16.402439
1548456815322,-0.649902,0.655457,0.298218,-1.646341,4.024390,-17.743902
1548456815329,-0.649780,0.653687,0.293518,-1.829268,4.207317,-18.780489
1548456815344,-0.662231,0.644531,0.283142,-3.048780,4.634146,-19.695122
1548456815352,-0.671021,0.643005,0.278931,-4.268293,4.878049,-20.792683
1548456815359,-0.671021,0.654907,0.284363,-4.756098,5.670732,-22.195122
1548456815374,-0.665283,0.667236,0.284973,-4.695122,6.890244,-23.658537
1548456815382,-0.658630,0.682678,0.278992,-4.695122,7.804878,-24.756098
1548456815389,-0.660583,0.683167,0.278564,-4.695122,8.292683,-25.243902
1548456815404,-0.667908,0.686462,0.288330,-4.451220,8.292683,-25.731709
1548456815411,-0.668762,0.695312,0.289612,-3.658537,8.353659,-26.707317
1548456815419,-0.673096,0.680664,0.287415,-3.597561,8.658537,-27.378050
1548456815434,-0.688965,0.659607,0.288940,-4.268293,9.146341,-27.804878
1548456815442,-0.704224,0.653748,0.289673,-4.390244,9.329268,-28.414635
1548456815449,-0.714661,0.656738,0.287598,-4.573171,9.390244,-29.390245
1548456815464,-0.717285,0.658325,0.285461,-4.939024,9.878049,-30.304878
1548456815472,-0.720215,0.657166,0.283386,-5.304878,10.487805,-30.792685
1548456815480,-0.722046,0.669678,0.288269,-5.365854,10.731708,-31.219513
1548456815502,-0.715637,0.700073,0.293152,-4.939024,10.853659,-31.890245
1548456815502,-0.703003,0.720154,0.292480,-4.512195,11.524390,-31.951220
1548456815509,-0.692932,0.722290,0.293762,-4.024390,12.317074,-31.341465
1548456815524,-0.689819,0.710632,0.297058,-3.048780,12.865854,-30.792685
1548456815532,-0.705383,0.685791,0.304077,-1.829268,12.439025,-30.304878
1548456815539,-0.720703,0.662476,0.312012,-0.243902,11.585366,-30.121952
1548456815554,-0.735718,0.652161,0.317078,0.670732,10.792684,-30.121952
1548456815562,-0.746948,0.658569,0.322266,0.365854,10.243902,-30.182928
1548456815569,-0.748474,0.670288,0.324158,-0.792683,9.939025,-29.817074
1548456815584,-0.747742,0.681580,0.317688,-2.560976,9.695122,-29.329269
1548456815592,-0.748169,0.672546,0.310791,-4.085366,9.756098,-28.780489
1548456815599,-0.754150,0.656250,0.306519,-5.243903,10.243902,-28.231709
1548456815614,-0.761780,0.643494,0.310913,-5.670732,10.304878,-28.048780
1548456815621,-0.766541,0.636414,0.314514,-5.121951,9.939025,-28.170732
1548456815629,-0.775391,0.616943,0.311646,-4.695122,9.451220,-28.048780
1548456815644,-0.781677,0.602356,0.311890,-4.756098,9.207317,-28.109756
1548456815659,-0.783020,0.604248,0.309082,-5.182927,8.963415,-28.353659
1548456815659,-0.780029,0.605225,0.304260,-5.975610,8.963415,-28.658537
1548456815674,-0.769043,0.598145,0.293945,-7.378049,9.756098,-28.719513
1548456815681,-0.773376,0.585754,0.291809,-9.268292,10.121951,-28.536587
1548456815689,-0.780029,0.597595,0.295837,-9.878049,9.695122,-28.658537
1548456815704,-0.776306,0.606812,0.294250,-9.512196,9.695122,-28.902439
1548456815711,-0.776611,0.595825,0.286987,-9.268292,10.060976,-28.597561
1548456815719,-0.777893,0.582336,0.282532,-8.475610,10.365854,-28.414635
1548456815734,-0.792664,0.559326,0.280823,-7.682927,10.121951,-28.536587
1548456815742,-0.811340,0.547791,0.281250,-7.500000,9.695122,-28.963415
1548456815749,-0.816956,0.550293,0.279602,-6.707317,9.634147,-29.939026
1548456815764,-0.819275,0.542603,0.271179,-6.158537,10.243902,-30.670732
1548456815772,-0.830322,0.524963,0.261169,-6.402439,10.548780,-30.609756
1548456815779,-0.839417,0.517883,0.257690,-6.036585,10.731708,-31.158537
1548456815794,-0.840088,0.524292,0.253845,-5.670732,11.463415,-32.195122
1548456815802,-0.834290,0.534790,0.255249,-5.548780,12.378049,-32.987804
1548456815809,-0.843628,0.522583,0.245972,-5.304878,12.743903,-33.292683
1548456815824,-0.850708,0.513855,0.242371,-4.695122,12.865854,-33.597561
1548456815832,-0.850525,0.514526,0.240417,-3.780488,13.658537,-34.634148
1548456815839,-0.856384,0.506714,0.235840,-3.963415,14.390244,-35.182926
1548456815854,-0.861572,0.508789,0.239502,-3.597561,14.939025,-35.548782
1548456815862,-0.867310,0.514343,0.235535,-3.231707,15.243903,-36.158539
1548456815869,-0.867065,0.514709,0.232849,-2.987805,15.670732,-36.829269
1548456815885,-0.866516,0.509827,0.229736,-2.195122,16.158537,-37.195122
1548456815892,-0.871765,0.503906,0.225525,-2.012195,16.707317,-37.317074
1548456815899,-0.883362,0.490051,0.224670,-1.951220,16.402439,-37.195122
1548456815914,-0.886902,0.488281,0.227234,-0.731707,16.768293,-37.682926
1548456815922,-0.892334,0.479919,0.220947,0.000000,17.500000,-38.414635
1548456815929,-0.906738,0.468262,0.219421,-0.304878,17.500000,-38.231709
1548456815944,-0.913269,0.483093,0.220520,1.280488,17.987804,-38.658539
1548456815951,-0.908020,0.494080,0.211853,1.829268,18.658537,-39.329269
1548456815959,-0.911804,0.483154,0.205444,1.585366,19.268293,-39.146343
1548456815974,-0.917603,0.478027,0.202637,1.585366,19.146341,-38.353661
1548456815982,-0.915894,0.479614,0.203125,2.195122,20.243902,-38.719513
1548456815989,-0.910889,0.474976,0.201843,2.317073,20.853659,-38.841465
1548456816004,-0.924377,0.451843,0.197266,1.951220,20.975611,-38.353661
1548456816011,-0.929382,0.446899,0.198303,2.134146,20.792683,-38.170734
1548456816019,-0.932251,0.447388,0.198669,2.439024,21.646341,-38.597561
1548456816034,-0.935242,0.442932,0.193848,1.585366,22.195122,-38.719513
1548456816041,-0.945801,0.436768,0.191528,0.731707,22.317074,-37.987804
1548456816049,-0.951050,0.447388,0.184692,0.487805,22.804878,-37.926830
1548456816064,-0.946899,0.450378,0.178955,0.182927,23.414635,-37.804878
1548456816071,-0.946716,0.439575,0.177551,0.426829,23.902439,-37.378048
1548456816079,-0.947571,0.425476,0.174805,1.158537,24.329269,-36.707317
1548456816094,-0.949463,0.417053,0.174927,1.951220,24.634148,-36.585365
1548456816101,-0.953613,0.411987,0.177551,2.378049,24.817074,-36.524391
1548456816109,-0.955505,0.408325,0.177734,2.804878,25.000000,-36.280487
1548456816124,-0.962341,0.403198,0.172363,3.536585,24.695122,-35.792683
1548456816132,-0.966492,0.392334,0.171692,4.085366,24.451220,-35.365856
1548456816139,-0.966614,0.383057,0.169495,4.024390,24.756098,-35.182926
1548456816154,-0.966064,0.380676,0.167114,3.780488,24.817074,-34.817074
1548456816162,-0.971436,0.375305,0.167603,3.414634,24.573172,-34.390244
1548456816169,-0.981140,0.367676,0.167419,3.170732,24.024391,-34.207317
1548456816184,-0.985413,0.362366,0.166870,3.963415,23.780489,-34.207317
1548456816192,-0.988342,0.367065,0.168884,5.000000,23.597561,-34.268295
1548456816199,-0.986511,0.372925,0.162842,6.036585,23.536587,-34.207317
1548456816221,-0.982666,0.370422,0.164734,7.134147,23.048780,-33.658539
1548456816222,-0.974731,0.362671,0.166382,8.292683,22.256098,-32.987804
1548456816229,-0.971680,0.352905,0.170288,9.329268,21.341463,-32.743904
1548456816244,-0.973572,0.344910,0.177063,9.695122,20.182928,-32.804878
1548456816251,-0.976501,0.339478,0.172607,9.146341,19.024391,-32.560978
1548456816259,-0.981384,0.330872,0.167236,8.231708,18.231709,-31.951220
1548456816274,-0.982849,0.325562,0.161865,7.012195,17.743902,-31.341465
1548456816282,-0.985413,0.319641,0.159058,5.914634,17.195122,-30.914635
1548456816289,-0.988586,0.315186,0.157776,4.573171,16.707317,-30.426830
1548456816311,-0.986511,0.312866,0.155212,3.475610,16.402439,-29.329269
1548456816312,-0.988831,0.309143,0.151978,2.926829,15.914635,-28.231709
1548456816319,-0.990295,0.305115,0.149658,2.378049,15.243903,-27.378050
1548456816334,-0.991821,0.304016,0.146057,2.012195,14.695123,-26.646341
1548456816342,-0.992371,0.301025,0.142151,1.707317,14.024390,-25.853659
1548456816349,-0.992432,0.301758,0.141846,1.585366,13.414635,-25.121952
1548456816364,-0.993652,0.307495,0.136658,1.219512,12.865854,-24.329269
1548456816371,-0.995117,0.311646,0.133911,0.731707,12.378049,-23.475611
1548456816379,-0.995605,0.307190,0.128418,0.609756,11.890244,-22.378050
1548456816394,-0.992249,0.304504,0.123291,0.670732,11.402439,-21.402439
1548456816403,-0.993347,0.299988,0.123108,0.731707,10.731708,-20.670732
1548456816409,-0.996948,0.298218,0.117615,0.975610,10.121951,-20.000000
1548456816424,-1.000732,0.296997,0.113281,1.219512,9.329268,-19.207317
1548456816431,-1.002258,0.291077,0.107300,1.585366,8.536586,-18.231709
1548456816439,-1.003723,0.284729,0.103394,1.829268,8.048780,-17.317074
1548456816454,-1.001648,0.284058,0.098328,2.012195,7.500000,-16.524391
1548456816462,-1.001526,0.282043,0.097168,2.134146,6.890244,-15.487805
1548456816469,-1.001404,0.281067,0.094788,2.134146,6.219512,-14.329268
1548456816484,-1.001770,0.284180,0.092407,2.195122,5.548780,-13.292684
1548456816492,-1.000549,0.285522,0.092041,2.378049,4.939024,-12.195122
1548456816499,-0.997314,0.284668,0.089844,2.621951,4.390244,-11.158537
1548456816514,-1.000183,0.281250,0.081909,2.804878,3.902439,-10.000000
1548456816521,-0.998535,0.277283,0.079590,2.621951,3.658537,-8.963415
1548456816529,-0.997437,0.272217,0.082153,2.012195,3.414634,-7.865854
1548456816544,-0.995605,0.267578,0.081909,1.463415,3.109756,-6.585366
1548456816552,-1.000549,0.263550,0.079712,1.158537,2.621951,-5.365854
1548456816559,-1.002380,0.261536,0.076965,0.731707,2.439024,-4.146341
1548456816574,-1.004639,0.260315,0.080383,0.365854,2.256098,-3.170732
1548456816582,-1.006531,0.255981,0.080933,0.000000,1.768293,-2.256098
1548456816589,-1.006836,0.255859,0.082336,-0.365854,1.463415,-1.219512
1548456816604,-1.006653,0.253479,0.079285,-0.487805,1.036585,-0.304878
1548456816612,-1.006104,0.249756,0.080811,-0.731707,0.609756,0.609756
1548456816619,-1.010071,0.244141,0.082397,-0.914634,0.426829,1.463415
1548456816634,-1.008423,0.237915,0.082520,-0.975610,0.121951,2.195122
1548456816642,-1.010193,0.236328,0.083130,-1.036585,-0.304878,2.926829
1548456816656,-1.012024,0.234619,0.079407,-1.097561,-0.548781,3.414634
1548456816664,-1.010925,0.233521,0.078918,-1.341463,-0.792683,3.780488
1548456816672,-1.005249,0.231995,0.079041,-1.585366,-1.158537,4.329268
1548456816679,-1.006165,0.230896,0.078247,-1.585366,-1.463415,4.878049
1548456816694,-1.009766,0.228638,0.073914,-1.585366,-1.707317,5.243903
1548456816702,-1.009827,0.227722,0.074402,-1.707317,-1.890244,5.426829
1548456816709,-1.009216,0.221619,0.078064,-1.524390,-2.073171,5.670732
1548456816724,-1.009521,0.221191,0.075928,-1.402439,-2.195122,5.975610
1548456816732,-1.007263,0.216309,0.075867,-1.158537,-2.500000,6.036585
1548456816739,-1.009033,0.210449,0.072144,-0.975610,-2.682927,6.219512
1548456816754,-1.012512,0.210266,0.072998,-1.036585,-2.743902,6.219512
1548456816762,-1.015076,0.209595,0.071716,-1.158537,-2.743902,6.097561
1548456816769,-1.015869,0.207886,0.068665,-1.097561,-2.804878,6.036585
1548456816784,-1.016907,0.206970,0.067383,-1.280488,-2.743902,5.853659
1548456816792,-1.015259,0.208679,0.063293,-1.402439,-2.621951,5.609756
1548456816800,-1.015137,0.209534,0.065491,-1.341463,-2.560976,5.304878
1548456816814,-1.013733,0.210144,0.065796,-1.341463,-2.439024,4.878049
1548456816822,-1.012268,0.210693,0.059998,-1.219512,-2.439024,4.573171
1548456816829,-1.011169,0.211670,0.058411,-0.975610,-2.256098,4.390244
1548456816844,-1.012512,0.213318,0.056274,-0.792683,-1.951220,3.963415
1548456816852,-1.009277,0.209595,0.058594,-0.487805,-1.768293,3.658537
1548456816859,-1.008850,0.209351,0.057434,-0.060976,-1.768293,3.353659
1548456816874,-1.009583,0.208374,0.056030,0.121951,-1.646341,2.865854
1548456816889,-1.010925,0.207520,0.058594,0.182927,-1.463415,2.560976
1548456816890,-1.010376,0.212036,0.055847,0.121951,-1.280488,2.317073
1548456816904,-1.009399,0.214783,0.052368,0.121951,-1.036585,2.012195
1548456816912,-1.008301,0.214478,0.053833,0.121951,-0.792683,1.646341
1548456816919,-1.009888,0.216858,0.056091,0.243902,-0.609756,1.402439
1548456816934,-1.008484,0.217468,0.056763,0.792683,-0.548781,1.219512
1548456816942,-1.007507,0.216980,0.055237,0.914634,-0.243902,0.914634
1548456816949,-1.009216,0.220032,0.055542,0.914634,-0.060976,0.731707
1548456816964,-1.010986,0.221863,0.057495,0.853659,0.121951,0.487805
1548456816972,-1.009521,0.224426,0.058044,0.670732,0.182927,0.243902
1548456816979,-1.008118,0.223877,0.058838,0.548781,0.365854,0.060976
1548456816994,-1.005737,0.227661,0.062073,0.426829,0.731707,-0.121951
1548456817002,-1.006714,0.230530,0.060913,0.304878,0.670732,-0.121951
1548456817010,-1.005920,0.232056,0.066101,0.426829,0.792683,0.000000
1548456817024,-1.003479,0.235779,0.067505,0.487805,0.853659,0.000000
1548456817032,-1.004517,0.237732,0.070435,0.548781,0.853659,0.060976
1548456817039,-1.004211,0.237244,0.072632,0.792683,0.731707,0.121951
1548456817054,-1.006714,0.235413,0.075378,0.853659,0.548781,0.182927
1548456817062,-1.006775,0.236816,0.075378,0.792683,0.487805,0.182927
1548456817069,-1.008179,0.235535,0.077209,0.731707,0.365854,0.426829
1548456817092,-1.007751,0.232361,0.080017,0.609756,0.182927,0.609756
1548456817092,-1.006836,0.230896,0.080811,0.365854,0.121951,0.731707
1548456817099,-1.008545,0.232910,0.080566,0.487805,-0.121951,0.853659
1548456817114,-1.007385,0.232849,0.082092,0.365854,-0.182927,0.853659
1548456817122,-1.004761,0.229492,0.082642,0.243902,-0.304878,0.853659
1548456817129,-1.005066,0.230591,0.083557,0.243902,-0.426829,0.914634
1548456817144,-1.005615,0.228577,0.081787,0.487805,-0.548781,0.853659
1548456817152,-1.006104,0.228394,0.081238,0.548781,-0.853659,0.914634
1548456817159,-1.005920,0.227295,0.080322,0.426829,-0.975610,0.853659
1548456817174,-1.004395,0.229065,0.080627,0.243902,-0.975610,0.853659
1548456817182,-1.002869,0.227661,0.078857,0.060976,-1.158537,0.853659
1548456817189,-1.003052,0.228210,0.077393,-0.121951,-1.341463,0.792683
1548456817212,-1.004395,0.230225,0.073730,-0.304878,-1.524390,0.853659
1548456817212,-1.008972,0.229370,0.070740,-0.426829,-1.463415,0.975610
1548456817219,-1.010742,0.231750,0.071350,-0.731707,-1.402439,1.036585
1548456817234,-1.011292,0.234863,0.070251,-0.548781,-1.585366,1.097561
1548456817242,-1.011169,0.234314,0.067871,0.000000,-1.707317,1.097561
1548456817249,-1.008240,0.234680,0.063232,0.121951,-1.524390,1.158537
1548456817264,-1.007507,0.234680,0.065125,0.304878,-1.402439,1.158537
1548456817271,-1.005432,0.234802,0.065674,0.670732,-1.585366,1.219512
1548456817279,-1.006531,0.234070,0.063965,0.975610,-1.585366,1.158537
1548456817294,-1.004028,0.235107,0.067810,1.036585,-1.402439,1.341463
1548456817301,-1.004150,0.233948,0.065674,1.036585,-1.341463,1.463415
1548456817309,-1.006470,0.233276,0.065857,0.914634,-1.341463,1.463415
1548456817324,-1.008179,0.234985,0.065918,0.670732,-1.463415,1.463415
1548456817331,-1.007629,0.235840,0.067078,0.487805,-1.402439,1.402439
1548456817339,-1.010864,0.237122,0.066284,0.426829,-1.402439,1.463415
1548456817354,-1.009705,0.233582,0.067322,0.304878,-1.402439,1.585366
1548456817361,-1.009949,0.236267,0.067627,0.182927,-1.585366,1.585366
1548456817369,-1.007446,0.234680,0.068359,0.182927,-1.585366,1.585366
1548456817384,-1.005249,0.236450,0.067200,-0.060976,-1.585366,1.707317
1548456817399,-1.006409,0.240540,0.066956,-0.182927,-1.646341,1.829268
1548456817399,-1.007812,0.240356,0.067627,-0.121951,-1.585366,1.829268
1548456817414,-1.006470,0.239258,0.067322,-0.243902,-1.585366,1.768293
1548456817422,-1.001831,0.242920,0.069519,-0.121951,-1.524390,1.951220
1548456817429,-1.001221,0.243713,0.071533,0.000000,-1.463415,1.951220
1548456817444,-1.001282,0.241089,0.072937,0.182927,-1.524390,2.073171
1548456817452,-1.002197,0.243896,0.073120,0.182927,-1.585366,2.378049
1548456817459,-1.003662,0.244873,0.071167,0.365854,-1.524390,2.560976
1548456817474,-1.004822,0.244812,0.073669,0.182927,-1.219512,2.743902
1548456817489,-1.004517,0.246094,0.077087,-0.121951,-1.097561,2.987805
1548456817489,-1.003601,0.248779,0.077087,-0.182927,-1.158537,3.231707
1548456817504,-1.004517,0.248352,0.079285,-0.243902,-1.341463,3.414634
1548456817512,-1.001404,0.251160,0.082336,-0.304878,-1.524390,3.536585
1548456817519,-1.002930,0.255066,0.084290,-0.243902,-1.707317,3.963415
1548456817534,-1.003967,0.257202,0.084351,-0.182927,-1.890244,4.207317
1548456817542,-1.002136,0.257446,0.087036,-0.182927,-2.195122,4.451220
1548456817549,-1.003296,0.258240,0.088989,0.060976,-2.317073,4.634146
1548456817565,-1.001526,0.259155,0.089722,0.304878,-2.621951,4.817073
1548456817571,-0.997192,0.262146,0.088379,0.365854,-2.987805,5.060976
1548456817579,-0.997375,0.265503,0.088318,0.121951,-3.231707,5.304878
1548456817595,-0.996826,0.266724,0.089294,0.000000,-3.414634,5.792683
1548456817601,-0.997864,0.269836,0.091736,-0.182927,-3.536585,6.219512
1548456817609,-0.999939,0.273376,0.090698,-0.487805,-3.658537,6.646342
1548456817624,-0.998718,0.275269,0.093628,-0.426829,-3.841464,7.195122
1548456817631,-0.996582,0.279114,0.093079,-0.243902,-3.963415,7.682927
1548456817639,-0.995361,0.279053,0.093750,0.060976,-4.207317,8.109756
1548456817654,-0.995544,0.286255,0.098450,0.060976,-4.573171,8.597561
1548456817662,-0.991882,0.292603,0.099304,0.121951,-4.939024,9.146341
1548456817669,-0.991150,0.294678,0.096802,0.365854,-5.182927,9.878049
1548456817684,-0.990784,0.291931,0.096313,0.304878,-5.487805,10.365854
1548456817692,-0.989929,0.292908,0.097595,-0.121951,-5.670732,10.853659
1548456817699,-0.989624,0.293396,0.102112,-0.365854,-5.975610,11.524390
1548456817714,-0.990845,0.295349,0.101624,-0.548781,-6.341464,12.195122
1548456817721,-0.992798,0.298096,0.102905,-0.792683,-6.707317,12.743903
1548456817729,-0.994812,0.301514,0.101807,-1.158537,-7.073171,13.414635
1548456817744,-0.994080,0.304199,0.102417,-1.219512,-7.256098,14.085366
1548456817751,-0.992371,0.308533,0.100159,-1.280488,-7.500000,14.573171
1548456817759,-0.989807,0.313538,0.102844,-1.280488,-7.743903,15.243903
1548456817774,-0.989502,0.313721,0.110107,-1.158537,-7.987805,15.914635
1548456817782,-0.987671,0.315613,0.109802,-0.792683,-8.231708,16.463415
1548456817789,-0.987122,0.316467,0.108276,-0.304878,-8.414635,17.073172
1548456817804,-0.986450,0.313721,0.110229,-0.304878,-8.780488,17.682928
1548456817811,-0.987915,0.320496,0.115845,-0.243902,-9.085366,18.170732
1548456817819,-0.989197,0.322449,0.117249,0.000000,-9.512196,18.658537
1548456817834,-0.990051,0.319519,0.117615,0.304878,-9.817074,19.146341
1548456817842,-0.987732,0.317261,0.119873,0.304878,-10.000000,19.512196
1548456817849,-0.985840,0.323608,0.121338,0.243902,-10.365854,19.817074
1548456817864,-0.985107,0.324524,0.120850,-0.121951,-10.670732,20.182928
1548456817871,-0.981506,0.326721,0.121582,-0.487805,-11.036586,20.548780
1548456817879,-0.980225,0.330811,0.121155,-0.731707,-11.158537,20.731709
1548456817894,-0.978821,0.328979,0.120300,-0.670732,-11.280488,21.036587
1548456817901,-0.979431,0.330566,0.120422,-0.670732,-11.341464,21.219513
1548456817909,-0.977905,0.334412,0.122925,-0.609756,-11.463415,21.402439
1548456817924,-0.976562,0.335632,0.121216,-0.487805,-11.585366,21.646341
1548456817932,-0.975891,0.337463,0.122559,-0.426829,-11.707317,21.768293
1548456817939,-0.975647,0.340759,0.125305,-0.548781,-11.829268,21.890244
1548456817954,-0.975952,0.342651,0.127319,-0.853659,-11.890244,21.829269
1548456817962,-0.973083,0.343323,0.126648,-1.036585,-11.829268,22.073172
1548456817969,-0.972046,0.345520,0.128540,-1.219512,-11.829268,22.256098
1548456817984,-0.970642,0.346619,0.130676,-1.341463,-11.707317,22.378050
1548456817992,-0.968018,0.344910,0.132324,-1.463415,-11.707317,22.378050
1548456817999,-0.964844,0.347961,0.131104,-1.646341,-11.707317,22.439024
1548456818014,-0.963989,0.353149,0.132507,-1.768293,-11.768293,22.317074
1548456818021,-0.961304,0.357178,0.136353,-1.890244,-11.829268,22.256098
1548456818029,-0.961487,0.364441,0.138794,-2.134146,-11.829268,22.195122
1548456818044,-0.959595,0.370911,0.137573,-2.256098,-11.707317,22.378050
1548456818052,-0.954956,0.381226,0.142456,-2.317073,-11.646341,22.317074
1548456818059,-0.948914,0.392822,0.148315,-2.195122,-11.707317,22.317074
1548456818074,-0.949829,0.399902,0.149719,-1.585366,-12.012196,22.378050
1548456818082,-0.948120,0.406189,0.153137,-1.036585,-12.317074,22.560976
1548456818089,-0.943604,0.411499,0.158508,-0.426829,-12.500000,22.926830
1548456818104,-0.940308,0.415710,0.164062,0.182927,-12.560976,23.292683
1548456818112,-0.940247,0.422424,0.167236,0.670732,-12.926829,23.658537
1548456818119,-0.940125,0.427429,0.172607,0.975610,-13.292684,23.902439
1548456818134,-0.939087,0.429504,0.179016,1.097561,-13.780488,24.024391
1548456818142,-0.938843,0.433105,0.180176,1.158537,-13.963415,24.451220
1548456818149,-0.937134,0.446167,0.178711,0.914634,-14.085366,24.878050
1548456818164,-0.932617,0.456360,0.179504,0.487805,-14.207317,25.365854
1548456818172,-0.926636,0.467407,0.181152,0.060976,-14.329268,26.097561
1548456818179,-0.920166,0.476562,0.188110,-0.121951,-14.573171,26.890245
1548456818194,-0.916626,0.483459,0.191895,-0.060976,-14.878049,27.682928
1548456818202,-0.914917,0.487122,0.195312,0.487805,-15.182927,28.414635
1548456818209,-0.915894,0.488647,0.201050,0.792683,-15.548780,29.207317
1548456818224,-0.914124,0.489380,0.205750,0.975610,-15.975610,29.939026
1548456818232,-0.912537,0.492249,0.210449,1.158537,-16.524391,30.487806
1548456818239,-0.911865,0.493835,0.214539,0.914634,-17.134148,31.158537
1548456818254,-0.911987,0.490417,0.216370,0.426829,-17.682928,31.951220
1548456818262,-0.911743,0.493591,0.217590,-0.121951,-17.987804,32.743904
1548456818269,-0.909363,0.497742,0.216125,-0.609756,-18.231709,33.475609
1548456818284,-0.908691,0.502380,0.215210,-1.219512,-18.414635,34.146343
1548456818292,-0.906555,0.505127,0.220703,-1.829268,-18.536585,34.817074
1548456818299,-0.903931,0.514038,0.223511,-1.951220,-18.841463,35.426830
1548456818314,-0.898499,0.523254,0.223450,-1.829268,-19.146341,35.975609
1548456818322,-0.891418,0.526245,0.223206,-1.768293,-19.451220,36.341465
1548456818329,-0.887085,0.523315,0.225159,-1.463415,-19.756098,36.646343
1548456818344,-0.883484,0.520935,0.228210,-1.158537,-20.060976,37.134148
1548456818352,-0.879578,0.521301,0.228333,-1.158537,-20.182928,37.560978
1548456818359,-0.873901,0.524353,0.231873,-1.219512,-20.243902,37.865856
1548456818374,-0.869629,0.535095,0.238281,-0.975610,-20.487804,38.048782
1548456818382,-0.867249,0.541870,0.240112,-0.792683,-20.792683,37.987804
1548456818389,-0.866333,0.546875,0.244568,-0.426829,-21.219513,37.804878
1548456818405,-0.862732,0.553345,0.244446,0.609756,-21.585367,38.231709
1548456818412,-0.859192,0.556274,0.247620,1.463415,-21.585367,38.597561
1548456818419,-0.852173,0.558411,0.248596,2.073171,-21.585367,38.597561
1548456818434,-0.847290,0.561035,0.253479,2.987805,-21.768293,38.414635
1548456818442,-0.843750,0.565063,0.254333,3.597561,-22.195122,38.231709
1548456818449,-0.842102,0.567322,0.254395,4.024390,-22.500000,38.414635
1548456818464,-0.838318,0.565674,0.252197,4.268293,-22.439024,38.536587
1548456818472,-0.835388,0.562927,0.249329,4.207317,-22.195122,38.658539
1548456818479,-0.834778,0.564819,0.250488,4.024390,-21.829269,38.414635
1548456818494,-0.832886,0.567444,0.253967,3.780488,-21.463415,37.987804
1548456818502,-0.826233,0.572693,0.257202,3.719512,-21.219513,37.682926
1548456818509,-0.825623,0.571838,0.253967,3.658537,-20.975611,37.317074
1548456818524,-0.814514,0.580627,0.256836,3.780488,-20.609756,36.890244
1548456818532,-0.805847,0.579895,0.256348,3.231707,-19.817074,36.646343
1548456818539,-0.803711,0.585510,0.258545,2.560976,-19.817074,36.646343
1548456818554,-0.799988,0.590027,0.259705,2.500000,-19.634148,36.280487
1548456818562,-0.794678,0.585815,0.260681,2.439024,-19.451220,35.914635
1548456818569,-0.790649,0.589539,0.264343,2.621951,-18.963415,35.670734
1548456818584,-0.788757,0.597351,0.265625,2.926829,-18.353659,35.304878
1548456818592,-0.783508,0.608643,0.265320,2.987805,-18.170732,34.634148
1548456818599,-0.771240,0.624268,0.264160,3.353659,-17.865854,33.963417
1548456818615,-0.758301,0.625916,0.263367,3.475610,-17.378050,33.536587
1548456818629,-0.754456,0.620056,0.263489,3.353659,-17.012196,33.536587
1548456818630,-0.758118,0.611572,0.264404,3.780488,-16.829269,33.414635
1548456818644,-0.759766,0.617798,0.270935,4.512195,-17.012196,32.500000
1548456818652,-0.748474,0.632874,0.276001,5.426829,-16.463415,31.646341
1548456818659,-0.737305,0.637695,0.271179,5.914634,-15.609756,31.280489
1548456818674,-0.729858,0.634644,0.272095,6.219512,-15.182927,31.036587
1548456818682,-0.722168,0.644775,0.273987,6.524390,-15.182927,30.731709
1548456818689,-0.722290,0.650879,0.275574,6.829268,-15.060976,30.243902
1548456818704,-0.717651,0.665100,0.280701,6.646342,-14.878049,29.756098
1548456818712,-0.710876,0.670898,0.279785,6.402439,-14.268293,29.573172
1548456818720,-0.711304,0.665588,0.279968,5.914634,-13.719513,29.512196
1548456818734,-0.713501,0.663025,0.282715,5.487805,-13.536586,29.329269
1548456818742,-0.709412,0.671021,0.290649,5.792683,-13.292684,28.719513
1548456818749,-0.702454,0.681763,0.295715,5.975610,-12.987805,28.353659
1548456818764,-0.694092,0.684326,0.295654,6.097561,-12.439025,27.926830
1548456818771,-0.686035,0.685120,0.292725,6.097561,-12.195122,27.743902
1548456818779,-0.681091,0.684998,0.295715,6.158537,-12.073171,27.621952
1548456818794,-0.679260,0.687744,0.301147,6.280488,-12.195122,27.439026
1548456818802,-0.677979,0.692566,0.303284,6.219512,-12.134147,26.951220
1548456818809,-0.676086,0.700745,0.306519,5.975610,-12.073171,26.707317
1548456818824,-0.669678,0.714050,0.309509,5.609756,-12.073171,26.402439
1548456818832,-0.660400,0.720215,0.310791,5.304878,-11.951220,26.219513
1548456818839,-0.655273,0.717224,0.313049,5.121951,-11.646341,26.402439
1548456818854,-0.651550,0.717468,0.315918,5.304878,-11.707317,26.463415
1548456818862,-0.650757,0.720642,0.317017,5.670732,-11.890244,26.158537
1548456818869,-0.647766,0.727722,0.320374,5.670732,-11.768293,25.975611
1548456818884,-0.643799,0.732239,0.321533,5.670732,-11.829268,25.914635
1548456818892,-0.640564,0.727783,0.321411,5.609756,-11.829268,25.853659
1548456818899,-0.638489,0.713928,0.322266,5.365854,-11.768293,25.914635
1548456818914,-0.639160,0.714172,0.322144,4.939024,-11.951220,25.609756
1548456818922,-0.633728,0.722412,0.323059,4.573171,-11.951220,25.121952
1548456818929,-0.627380,0.728271,0.318237,3.597561,-11.707317,24.756098
1548456818936,-0.621460,0.736572,0.317688,2.378049,-11.463415,24.573172
1548456818952,-0.611450,0.744263,0.320984,1.951220,-11.036586,24.512196
1548456818959,-0.604553,0.744080,0.319885,2.378049,-10.792684,24.512196
1548456818967,-0.600159,0.742920,0.320190,2.926829,-10.609756,24.268293
1548456818982,-0.599792,0.734375,0.318359,3.902439,-10.487805,23.963415
1548456818989,-0.602783,0.722290,0.318115,4.451220,-10.609756,23.841463
1548456818997,-0.604675,0.719849,0.319275,4.817073,-10.731708,23.292683
1548456819012,-0.599976,0.718018,0.310730,4.817073,-10.670732,22.500000
1548456819019,-0.596375,0.713928,0.307495,3.841464,-10.365854,21.890244
1548456819027,-0.592224,0.714600,0.303528,2.865854,-9.939025,21.097561
1548456819042,-0.586060,0.720886,0.297913,2.378049,-9.390244,20.304878
1548456819049,-0.576782,0.719971,0.293762,1.890244,-8.902439,19.451220
1548456819057,-0.571838,0.721741,0.292236,1.524390,-8.536586,17.804878
1548456819071,-0.572632,0.720337,0.293579,2.195122,-8.231708,16.585365
1548456819079,-0.582703,0.707886,0.295349,3.231707,-7.987805,16.280489
1548456819086,-0.590576,0.704895,0.295471,4.024390,-7.804878,15.914635
1548456819102,-0.588379,0.719055,0.295288,4.817073,-7.621952,14.634147
1548456819109,-0.575195,0.725647,0.290833,4.634146,-6.890244,13.658537
1548456819117,-0.566162,0.713928,0.284973,3.414634,-5.792683,12.682927
1548456819132,-0.566467,0.703308,0.288391,2.195122,-5.060976,11.097561
1548456819139,-0.567200,0.710327,0.288818,2.012195,-4.878049,9.817074
1548456819147,-0.568909,0.716797,0.288513,2.317073,-4.634146,8.780488
1548456819162,-0.567566,0.722778,0.285034,2.317073,-4.207317,7.560976
1548456819169,-0.564880,0.726624,0.282654,2.743902,-3.536585,6.646342
1548456819177,-0.559143,0.729858,0.287964,3.170732,-2.743902,5.914634
1548456819192,-0.553040,0.737793,0.292358,3.902439,-1.768293,5.365854
1548456819199,-0.548889,0.753174,0.299072,4.451220,-1.219512,4.695122
1548456819207,-0.546143,0.760437,0.298584,4.695122,-1.036585,4.024390
1548456819221,-0.547058,0.762207,0.300659,4.695122,-0.975610,3.597561
1548456819229,-0.548523,0.762573,0.304504,4.695122,-1.097561,3.170732
1548456819237,-0.549927,0.767029,0.310730,4.817073,-0.975610,2.682927
1548456819252,-0.548401,0.777771,0.315002,5.000000,-0.548781,2.317073
1548456819259,-0.548340,0.792664,0.315552,5.365854,-0.304878,2.134146
1548456819266,-0.547302,0.799561,0.313904,5.609756,-0.487805,2.012195
1548456819282,-0.546692,0.794434,0.316772,5.548780,-0.731707,1.951220
1548456819289,-0.551331,0.791565,0.319763,5.548780,-0.731707,1.890244
1548456819297,-0.552002,0.780457,0.316528,5.243903,-0.426829,1.768293
1548456819312,-0.549744,0.780945,0.317505,4.146341,-0.060976,1.646341
1548456819319,-0.548340,0.796509,0.319580,3.048780,0.060976,1.402439
1548456819327,-0.545105,0.801208,0.317383,2.073171,0.182927,1.341463
1548456819342,-0.542725,0.796143,0.320435,0.548781,0.182927,1.524390
1548456819349,-0.539307,0.803467,0.324463,0.000000,0.243902,1.463415
1548456819357,-0.538086,0.809082,0.323669,0.304878,0.304878,1.402439
1548456819372,-0.539001,0.802490,0.326294,-0.121951,0.365854,1.585366
1548456819379,-0.542603,0.796082,0.327332,-0.365854,0.060976,1.768293
1548456819387,-0.541809,0.799438,0.328186,0.060976,-0.365854,1.768293
1548456819402,-0.539062,0.798767,0.325623,0.304878,-0.548781,1.646341
1548456819409,-0.537842,0.797058,0.323730,0.121951,-0.548781,1.707317
1548456819417,-0.532288,0.800110,0.323059,0.182927,-0.609756,1.829268
1548456819439,-0.530945,0.801025,0.319946,0.487805,-0.853659,2.073171
1548456819440,-0.535706,0.796509,0.320557,0.731707,-0.975610,2.256098
1548456819447,-0.541992,0.777954,0.317688,1.158537,-1.341463,2.378049
1548456819462,-0.551575,0.754761,0.316101,1.219512,-1.524390,2.256098
1548456819470,-0.558777,0.742981,0.316528,1.036585,-1.585366,1.829268
1548456819477,-0.557617,0.753174,0.319397,0.670732,-1.280488,1.036585
1548456819492,-0.545898,0.780334,0.322571,0.060976,-0.792683,0.365854
1548456819499,-0.536133,0.784668,0.316101,-0.609756,-0.060976,0.121951
1548456819507,-0.535950,0.767883,0.308899,-1.524390,0.121951,-0.121951
1548456819522,-0.546448,0.759644,0.310547,-1.402439,-0.182927,-0.853659
1548456819529,-0.545837,0.769958,0.319458,-0.426829,-0.548781,-1.463415
1548456819536,-0.536804,0.797119,0.322815,-0.060976,-0.243902,-1.768293
1548456819552,-0.528015,0.806946,0.320923,-0.060976,0.182927,-1.524390
1548456819559,-0.530701,0.791260,0.316833,-0.121951,0.060976,-1.097561
1548456819567,-0.543457,0.775818,0.317200,0.182927,-0.731707,-1.280488
1548456819582,-0.558105,0.775269,0.315308,1.524390,-1.646341,-1.646341
1548456819589,-0.565186,0.778381,0.310120,2.256098,-1.951220,-2.012195
1548456819597,-0.560852,0.780701,0.309631,1.890244,-1.463415,-2.195122
1548456819612,-0.551270,0.788452,0.308289,1.707317,-0.731707,-2.560976
1548456819619,-0.537781,0.802490,0.308472,1.280488,0.121951,-2.865854
1548456819627,-0.527527,0.826111,0.308655,0.304878,0.670732,-2.926829
1548456819642,-0.526672,0.832336,0.306946,-0.426829,0.609756,-2.378049
1548456819649,-0.534302,0.822510,0.311035,-1.036585,0.000000,-1.890244
1548456819657,-0.540161,0.818726,0.316711,-0.609756,-0.426829,-1.646341
1548456819672,-0.543823,0.810059,0.321045,0.304878,-0.304878,-1.341463
1548456819679,-0.548279,0.797119,0.316589,0.792683,0.000000,-0.670732
1548456819687,-0.555664,0.788635,0.316650,0.731707,-0.365854,-0.365854
1548456819702,-0.559448,0.793274,0.319641,0.670732,-1.219512,-0.487805
1548456819709,-0.557251,0.798218,0.312988,0.121951,-1.402439,-0.731707
1548456819717,-0.552124,0.792419,0.307739,-0.792683,-0.792683,-0.670732
1548456819732,-0.549377,0.783691,0.304199,-1.280488,-0.121951,-0.792683
1548456819739,-0.551147,0.781128,0.303650,-1.280488,0.182927,-1.158537
1548456819746,-0.555115,0.777649,0.304626,-1.463415,0.182927,-1.280488
1548456819762,-0.553955,0.776489,0.310303,-1.890244,0.182927,-1.280488
1548456819769,-0.548584,0.773010,0.311218,-2.439024,0.426829,-1.341463
1548456819777,-0.544434,0.765076,0.310364,-3.353659,1.036585,-1.524390
1548456819792,-0.548279,0.764465,0.312256,-3.963415,1.280488,-2.012195
1548456819799,-0.552002,0.762756,0.314209,-3.170732,1.097561,-2.500000
1548456819807,-0.557129,0.757812,0.316956,-2.317073,0.853659,-2.743902
1548456819822,-0.559387,0.751221,0.313049,-1.768293,0.609756,-3.048780
1548456819829,-0.560425,0.748230,0.314148,-1.402439,0.609756,-3.475610
1548456819837,-0.558472,0.750977,0.316711,-1.097561,0.914634,-3.963415
1548456819852,-0.560669,0.746765,0.315186,-1.158537,0.975610,-4.573171
1548456819859,-0.561157,0.742737,0.313660,-1.402439,0.914634,-5.060976
1548456819867,-0.560974,0.742859,0.309570,-1.341463,1.036585,-5.792683
1548456819882,-0.556824,0.748596,0.309509,-1.219512,1.646341,-6.463415
1548456819889,-0.556519,0.740417,0.306091,-1.219512,2.317073,-6.951220
1548456819897,-0.562805,0.723328,0.306213,-1.585366,2.560976,-7.560976
1548456819912,-0.567261,0.710388,0.308350,-2.073171,2.743902,-8.597561
1548456819919,-0.576660,0.697144,0.305054,-2.256098,2.926829,-9.817074
1548456819927,-0.587769,0.673157,0.296509,-3.048780,3.170732,-10.914635
1548456819942,-0.595886,0.655945,0.291931,-4.695122,3.353659,-12.012196
1548456819949,-0.600464,0.655701,0.288269,-6.158537,4.024390,-13.536586
1548456819957,-0.599915,0.662842,0.288574,-7.560976,4.939024,-15.182927
1548456819972,-0.594055,0.689087,0.289062,-8.780488,5.792683,-17.073172
1548456819979,-0.583984,0.726379,0.290894,-8.658537,6.646342,-18.719513
1548456819987,-0.576965,0.747070,0.283752,-8.231708,7.439024,-19.695122
1548456820002,-0.578247,0.741272,0.281006,-7.073171,7.865854,-20.182928
1548456820010,-0.584839,0.738159,0.281311,-5.121951,8.292683,-20.914635
1548456820017,-0.593323,0.732422,0.281433,-2.621951,8.780488,-21.890244
1548456820032,-0.604248,0.738708,0.286743,-0.853659,8.902439,-22.621952
1548456820039,-0.612122,0.751770,0.288208,0.426829,8.597561,-23.231709
1548456820062,-0.620850,0.747559,0.291992,1.402439,8.658537,-23.536587
1548456820069,-0.631348,0.735229,0.289368,2.012195,9.085366,-23.719513
1548456820070,-0.637329,0.735291,0.290161,2.987805,9.268292,-24.390244
1548456820077,-0.638489,0.739563,0.290283,3.902439,9.695122,-25.000000
1548456820092,-0.642578,0.730469,0.289429,4.329268,10.365854,-25.060976
1548456820099,-0.645386,0.728699,0.287659,3.963415,10.731708,-25.182928
1548456820107,-0.643494,0.737671,0.290588,3.414634,10.914635,-25.426830
1548456820122,-0.638062,0.748718,0.290466,1.951220,11.341464,-25.426830
1548456820129,-0.634827,0.758728,0.289307,0.000000,12.317074,-25.487806
1548456820137,-0.635742,0.752625,0.290161,-1.341463,13.170732,-25.121952
1548456820152,-0.647949,0.729065,0.292969,-2.195122,13.658537,-24.817074
1548456820159,-0.658081,0.714905,0.299133,-2.743902,13.780488,-25.000000
1548456820167,-0.664429,0.706360,0.300903,-2.926829,13.719513,-25.487806
1548456820182,-0.673645,0.692566,0.296753,-3.414634,13.841464,-25.792683
1548456820189,-0.681580,0.673096,0.291931,-4.329268,13.780488,-26.036587
1548456820197,-0.688049,0.672119,0.289246,-5.548780,13.719513,-26.463415
1548456820212,-0.691711,0.672058,0.282593,-6.158537,14.024390,-27.073172
1548456820219,-0.693909,0.670288,0.277710,-6.524390,14.390244,-27.682928
1548456820226,-0.699036,0.681519,0.278931,-6.524390,14.634147,-28.292683
1548456820242,-0.694885,0.689270,0.276733,-5.426829,15.182927,-28.963415
1548456820249,-0.698853,0.665466,0.275024,-4.329268,15.792684,-29.268293
1548456820257,-0.708252,0.637695,0.278076,-2.743902,15.975610,-29.756098
1548456820272,-0.720703,0.606812,0.280701,-1.036585,15.975610,-30.670732
1548456820279,-0.737610,0.573059,0.276978,-0.304878,15.853659,-32.012196
1548456820287,-0.755310,0.536804,0.270081,-1.036585,16.158537,-33.597561
1548456820302,-0.769043,0.529663,0.268250,-2.926829,16.707317,-35.609756
1548456820309,-0.768372,0.560608,0.265930,-5.365854,17.378050,-37.560978
1548456820317,-0.753540,0.606079,0.260437,-7.865854,18.475611,-39.085365
1548456820332,-0.744019,0.625366,0.255371,-9.817074,19.329269,-39.512196
1548456820339,-0.743469,0.639099,0.253296,-10.243902,20.060976,-39.695122
1548456820347,-0.736206,0.677246,0.261353,-9.207317,20.487804,-40.060978
1548456820362,-0.733704,0.718262,0.270752,-7.195122,20.853659,-40.365856
1548456820376,-0.739929,0.714783,0.266235,-4.207317,20.670732,-40.060978
1548456820377,-0.749146,0.695862,0.266785,-0.853659,20.365854,-39.817074
1548456820392,-0.764709,0.671692,0.273438,2.256098,20.365854,-39.756100
1548456820399,-0.785522,0.661194,0.289917,4.512195,19.207317,-39.634148
1548456820407,-0.801575,0.670349,0.295715,6.829268,17.865854,-39.878048
1548456820422,-0.810181,0.669739,0.287476,8.048780,17.012196,-40.060978
1548456820429,-0.818481,0.653381,0.282715,7.621952,16.707317,-39.695122
1548456820437,-0.818848,0.647644,0.280640,6.585366,16.463415,-38.963417
1548456820452,-0.815796,0.660583,0.278015,5.975610,16.341463,-38.475609
1548456820459,-0.813293,0.676941,0.273560,4.878049,16.036585,-37.865856
1548456820467,-0.805481,0.683228,0.267700,3.292683,15.792684,-36.463417
1548456820482,-0.804688,0.677551,0.263733,1.951220,15.609756,-34.451221
1548456820489,-0.806274,0.678162,0.262817,0.609756,15.000000,-32.439026
1548456820497,-0.801941,0.668213,0.263123,-0.121951,15.060976,-31.158537
1548456820512,-0.799377,0.648804,0.260437,-1.524390,15.000000,-29.817074
1548456820519,-0.816711,0.606995,0.258911,-3.536585,14.024390,-27.987806
1548456820527,-0.828857,0.590210,0.258606,-4.817073,13.170732,-27.256098
1548456820542,-0.833191,0.592957,0.253784,-6.341464,13.109756,-26.768293
1548456820549,-0.829590,0.584106,0.245300,-8.353659,13.902439,-25.914635
1548456820557,-0.829468,0.569580,0.236633,-10.000000,14.146341,-24.817074
1548456820572,-0.842102,0.544189,0.227051,-10.914635,14.024390,-23.780489
1548456820579,-0.853271,0.516357,0.219666,-11.280488,13.475610,-23.353659
1548456820587,-0.859314,0.501953,0.217834,-10.609756,13.902439,-24.024391
1548456820602,-0.860779,0.492188,0.215576,-10.121951,14.390244,-24.756098
1548456820610,-0.871643,0.474609,0.210327,-9.695122,14.085366,-24.695122
1548456820617,-0.876343,0.476257,0.209900,-8.109756,13.597561,-25.365854
1548456820632,-0.872253,0.477051,0.202087,-6.768293,13.902439,-26.280489
1548456820639,-0.864990,0.482971,0.200928,-6.280488,14.329268,-27.134148
1548456820647,-0.868042,0.478821,0.196411,-5.670732,14.451220,-27.500000
1548456820662,-0.874084,0.481628,0.189941,-5.000000,14.146341,-27.926830
1548456820669,-0.878723,0.482605,0.186523,-3.719512,14.878049,-29.024391
1548456820677,-0.879578,0.484924,0.184692,-3.292683,15.365854,-29.939026
1548456820692,-0.883362,0.489075,0.186951,-2.621951,15.792684,-30.731709
1548456820699,-0.897034,0.485596,0.185120,-1.951220,15.670732,-31.280489
1548456820707,-0.902344,0.484985,0.189636,-0.365854,15.487805,-32.134148
1548456820722,-0.901489,0.475830,0.185852,1.280488,15.731708,-33.170731
1548456820730,-0.905029,0.468994,0.185425,2.439024,15.914635,-34.024391
1548456820737,-0.914307,0.465515,0.185608,3.780488,15.792684,-34.573170
1548456820752,-0.926392,0.466919,0.188660,4.451220,15.000000,-34.695122
1548456820759,-0.927490,0.473389,0.189270,6.158537,15.121951,-35.426830
1548456820767,-0.923096,0.476562,0.186829,7.012195,15.304878,-35.853661
1548456820782,-0.919800,0.488159,0.188354,7.195122,15.304878,-35.914635
1548456820789,-0.924255,0.483704,0.185181,6.890244,14.756098,-35.731709
1548456820797,-0.926880,0.483093,0.182556,6.158537,14.024390,-35.060978
1548456820812,-0.921753,0.478699,0.176941,5.914634,14.512196,-34.939026
1548456820819,-0.921753,0.477356,0.172791,4.451220,14.817074,-34.634148
1548456820827,-0.924133,0.476624,0.173645,2.500000,14.939025,-33.780487
1548456820842,-0.927673,0.471863,0.172302,1.219512,14.756098,-32.743904
1548456820849,-0.927551,0.467346,0.171631,0.243902,14.573171,-31.768293
1548456820857,-0.935181,0.456543,0.169556,-0.609756,14.573171,-30.792685
1548456820872,-0.940918,0.457031,0.171997,-1.524390,14.024390,-29.573172
1548456820879,-0.939270,0.458923,0.166687,-1.768293,14.329268,-28.902439
1548456820887,-0.937073,0.455200,0.161804,-2.439024,14.024390,-28.170732
1548456820902,-0.937866,0.443237,0.160889,-3.353659,13.902439,-27.195122
1548456820909,-0.941040,0.430786,0.161133,-3.658537,13.719513,-26.402439
1548456820917,-0.942871,0.418091,0.157410,-3.841464,13.597561,-25.731709
1548456820932,-0.942566,0.413330,0.157043,-4.207317,13.536586,-25.121952
1548456820939,-0.950989,0.405518,0.159058,-4.329268,13.414635,-24.329269
1548456820947,-0.954773,0.401367,0.156067,-4.085366,12.743903,-23.597561
1548456820962,-0.955933,0.396179,0.150513,-2.987805,12.743903,-23.414635
1548456820969,-0.952942,0.389221,0.151550,-2.439024,12.682927,-23.353659
1548456820977,-0.955688,0.382874,0.148071,-2.073171,12.378049,-22.987806
1548456820992,-0.957947,0.368835,0.146118,-1.585366,11.951220,-22.560976
1548456820999,-0.961487,0.359436,0.141846,-1.036585,11.585366,-22.621952
1548456821006,-0.967468,0.353638,0.141113,-0.853659,11.341464,-22.743902
1548456821022,-0.967773,0.357605,0.138550,-0.914634,11.158537,-22.560976
1548456821029,-0.973267,0.348083,0.133545,-0.853659,10.914635,-22.195122
1548456821037,-0.974731,0.350342,0.128601,-0.487805,10.609756,-22.073172
1548456821052,-0.976990,0.350708,0.125122,-0.182927,10.792684,-22.378050
1548456821059,-0.974915,0.343384,0.122131,-0.121951,10.731708,-22.317074
1548456821067,-0.975708,0.341614,0.121826,0.060976,10.548780,-22.073172
1548456821082,-0.979126,0.345764,0.124756,0.304878,10.365854,-22.012196
1548456821089,-0.980408,0.357117,0.123169,0.670732,10.182927,-21.951220
1548456821097,-0.981873,0.360779,0.118591,1.097561,9.878049,-21.646341
1548456821112,-0.977112,0.353333,0.118042,1.890244,9.695122,-21.219513
1548456821119,-0.975159,0.346130,0.117432,2.621951,9.512196,-20.975611
1548456821127,-0.974976,0.345215,0.119324,2.987805,9.329268,-20.853659
1548456821142,-0.975342,0.344666,0.123779,3.292683,8.841464,-20.487804
1548456821149,-0.978271,0.338562,0.119568,3.597561,8.292683,-19.878050
1548456821157,-0.978821,0.334473,0.114014,3.658537,7.743903,-19.207317
1548456821172,-0.981201,0.332825,0.114624,3.597561,7.378049,-18.597561
1548456821179,-0.985474,0.334412,0.118286,3.109756,7.195122,-18.048780
1548456821187,-0.985107,0.338928,0.115051,2.500000,6.707317,-17.317074
1548456821202,-0.982849,0.342041,0.112549,1.890244,6.341464,-16.463415
1548456821209,-0.983459,0.341919,0.111633,1.341463,6.158537,-15.670732
1548456821217,-0.982971,0.341309,0.107544,0.975610,5.975610,-14.756098
1548456821232,-0.982605,0.340515,0.108337,0.792683,5.792683,-13.902439
1548456821239,-0.980225,0.337097,0.105469,0.731707,5.487805,-13.048780
1548456821254,-0.981995,0.332520,0.103149,0.792683,5.243903,-12.073171
1548456821262,-0.981628,0.329956,0.104614,0.670732,5.060976,-11.097561
1548456821269,-0.980835,0.323792,0.105103,0.426829,4.634146,-10.182927
1548456821277,-0.984192,0.321106,0.102783,0.000000,4.329268,-9.390244
1548456821292,-0.983704,0.321655,0.102905,-0.487805,4.146341,-8.536586
1548456821299,-0.986694,0.322083,0.100830,-0.975610,3.902439,-7.621952
1548456821307,-0.987061,0.318115,0.097961,-1.402439,3.536585,-6.707317
1548456821322,-0.985840,0.311401,0.098389,-1.524390,3.231707,-5.731708
1548456821329,-0.987671,0.307495,0.099121,-1.463415,2.926829,-5.060976
1548456821337,-0.990784,0.303650,0.098206,-1.341463,2.621951,-4.451220
1548456821352,-0.992126,0.296021,0.100281,-1.402439,2.195122,-3.719512
1548456821359,-0.992188,0.290161,0.098450,-1.280488,1.829268,-3.109756
1548456821374,-0.995667,0.286438,0.094727,-1.341463,1.646341,-2.500000
1548456821382,-0.997192,0.283508,0.092896,-1.585366,1.463415,-2.073171
1548456821389,-0.996704,0.286438,0.094177,-1.768293,1.097561,-1.707317
1548456821397,-0.997803,0.289246,0.095886,-1.829268,0.914634,-1.402439
1548456821412,-0.997437,0.282104,0.092651,-1.585366,0.609756,-1.036585
1548456821419,-0.993958,0.276672,0.090820,-1.158537,0.243902,-0.609756
1548456821427,-0.993286,0.273071,0.091064,-1.097561,0.243902,-0.365854
1548456821442,-0.991882,0.271179,0.090942,-0.914634,0.182927,-0.304878
1548456821449,-0.995667,0.266724,0.090210,-0.609756,-0.060976,-0.243902
1548456821457,-0.995911,0.266418,0.089417,-0.487805,-0.365854,-0.243902
1548456821472,-0.994507,0.264038,0.084961,-0.487805,-0.487805,-0.182927
1548456821479,-0.992554,0.263000,0.087708,-0.487805,-0.304878,-0.060976
1548456821487,-0.992004,0.263428,0.084229,-0.609756,-0.304878,-0.060976
1548456821502,-0.994507,0.265686,0.082764,-0.670732,-0.365854,-0.182927
1548456821509,-0.998047,0.269531,0.084229,-0.609756,-0.365854,-0.182927
1548456821517,-1.000244,0.273621,0.085632,-0.548781,-0.365854,-0.121951
1548456821532,-0.996948,0.271240,0.081665,0.000000,-0.365854,-0.121951
1548456821539,-0.997314,0.268005,0.080994,0.426829,-0.487805,-0.121951
1548456821547,-0.995483,0.268127,0.083435,0.426829,-0.487805,-0.243902
1548456821562,-0.995422,0.267700,0.083008,0.731707,-0.609756,-0.426829
1548456821569,-0.996277,0.270813,0.082642,0.914634,-0.670732,-0.243902
1548456821577,-0.998779,0.269104,0.078918,0.853659,-0.670732,-0.121951
1548456821599,-1.000244,0.269104,0.076416,0.792683,-0.670732,-0.182927
1548456821600,-0.998108,0.271912,0.077576,0.792683,-0.731707,-0.121951
1548456821607,-0.997864,0.271301,0.082825,0.853659,-0.670732,-0.121951
1548456821622,-0.996765,0.272278,0.080933,0.853659,-0.670732,0.060976
1548456821629,-0.995483,0.274536,0.079712,0.731707,-0.609756,0.243902
1548456821637,-0.992554,0.274902,0.079468,0.670732,-0.609756,0.487805
1548456821652,-0.990173,0.274475,0.080688,0.609756,-0.670732,0.609756
1548456821659,-0.991150,0.274963,0.081848,0.609756,-0.670732,0.731707
1548456821667,-0.991455,0.275269,0.083069,0.426829,-0.853659,0.853659
1548456821689,-0.994690,0.276611,0.080688,0.304878,-0.914634,1.036585
1548456821690,-0.997131,0.271790,0.081299,0.365854,-0.853659,1.219512
1548456821697,-0.999023,0.272034,0.082947,0.426829,-0.731707,1.463415
1548456821712,-0.998352,0.273315,0.083374,0.182927,-0.853659,1.524390
1548456821719,-0.999084,0.273804,0.083557,0.000000,-0.853659,1.646341
1548456821727,-0.996216,0.274536,0.084167,-0.060976,-0.914634,1.707317
1548456821742,-0.996033,0.274414,0.082458,-0.182927,-1.036585,1.829268
1548456821749,-0.993469,0.272583,0.082031,-0.060976,-1.036585,1.951220
1548456821757,-0.991516,0.273865,0.084167,0.000000,-0.975610,2.134146
1548456821772,-0.992310,0.271240,0.083374,-0.060976,-0.975610,2.256098
1548456821779,-0.996033,0.270508,0.083679,-0.243902,-1.158537,2.378049
1548456821787,-0.997070,0.269714,0.081787,-0.426829,-1.158537,2.439024
1548456821809,-0.997925,0.272766,0.082947,-0.609756,-1.158537,2.378049
1548456821810,-0.995850,0.274414,0.083252,-0.670732,-1.158537,2.560976
1548456821817,-0.994446,0.272400,0.082764,-0.426829,-1.280488,2.804878
1548456821832,-0.994202,0.271118,0.086365,-0.121951,-1.341463,2.743902
1548456821839,-0.996033,0.271057,0.086304,-0.060976,-1.402439,2.500000
1548456821847,-0.993774,0.269226,0.085449,0.060976,-1.341463,2.439024
1548456821862,-0.995728,0.269348,0.083618,0.304878,-1.280488,2.621951
1548456821869,-0.997498,0.267761,0.082703,0.243902,-1.341463,2.682927
1548456821877,-0.995056,0.263977,0.085693,0.121951,-1.402439,2.439024
1548456821892,-0.992676,0.265076,0.087585,0.000000,-1.280488,2.256098
1548456821899,-0.994019,0.269043,0.085999,-0.060976,-1.280488,2.195122
1548456821907,-0.994080,0.269348,0.085449,-0.243902,-1.402439,2.134146
1548456821929,-0.993958,0.268677,0.087524,-0.487805,-1.280488,2.073171
1548456821930,-0.993713,0.270569,0.088501,-0.365854,-1.280488,2.012195
1548456821937,-0.994507,0.271912,0.087708,-0.304878,-1.402439,1.890244
1548456821952,-0.994385,0.272827,0.084961,-0.121951,-1.524390,1.768293
1548456821967,-0.995300,0.267761,0.085693,0.182927,-1.646341,1.646341
1548456821974,-0.995728,0.268433,0.083740,0.304878,-1.524390,1.524390
1548456821982,-0.995422,0.271729,0.080566,0.426829,-1.402439,1.524390
1548456821989,-0.991760,0.273682,0.080627,0.182927,-1.219512,1.585366
1548456821997,-0.989014,0.273376,0.082214,0.060976,-1.158537,1.646341
1548456822012,-0.988831,0.273254,0.080750,0.182927,-1.219512,1.524390
1548456822019,-0.986572,0.274109,0.081909,0.365854,-1.219512,1.463415
1548456822027,-0.990173,0.271729,0.080994,0.487805,-1.097561,1.524390
1548456822042,-0.992188,0.273560,0.081482,0.609756,-1.158537,1.585366
1548456822049,-0.993347,0.272583,0.081421,0.548781,-1.158537,1.646341
1548456822056,-0.997986,0.274170,0.081299,0.487805,-1.280488,1.463415
1548456822072,-1.001343,0.276550,0.081299,0.304878,-1.341463,1.402439
1548456822087,-0.999695,0.273682,0.080505,0.243902,-1.280488,1.402439
1548456822087,-0.998047,0.276184,0.079407,0.121951,-1.158537,1.341463
1548456822102,-0.996521,0.277344,0.080811,-0.060976,-0.975610,1.341463
1548456822109,-0.996521,0.278809,0.083374,0.060976,-0.914634,1.280488
1548456822117,-0.996704,0.280090,0.085693,0.243902,-1.036585,1.158537
1548456822132,-0.991577,0.279297,0.087402,0.243902,-1.036585,1.158537
1548456822139,-0.991211,0.278381,0.089294,0.487805,-1.036585,1.219512
1548456822147,-0.989990,0.278931,0.090088,0.914634,-1.219512,1.158537
1548456822162,-0.991394,0.275879,0.091492,1.036585,-1.402439,0.975610
1548456822169,-0.992371,0.275330,0.094055,0.853659,-1.463415,1.036585
1548456822177,-0.990784,0.275757,0.091309,0.609756,-1.402439,1.158537
1548456822192,-0.989929,0.279175,0.091858,0.121951,-1.463415,1.280488
1548456822206,-0.989380,0.281921,0.090515,-0.182927,-1.646341,1.280488
1548456822207,-0.989746,0.283447,0.090332,-0.243902,-1.646341,1.341463
1548456822222,-0.989685,0.285828,0.089355,-0.243902,-1.585366,1.463415
1548456822229,-0.990173,0.285461,0.089722,-0.121951,-1.524390,1.402439
1548456822244,-0.991333,0.286133,0.091125,0.121951,-1.402439,1.402439
1548456822259,-0.992981,0.283936,0.089111,0.609756,-1.402439,1.524390
1548456822260,-0.991638,0.282654,0.089111,0.548781,-1.585366,1.524390
1548456822267,-0.991028,0.282532,0.092407,0.365854,-1.585366,1.524390
1548456822282,-0.992676,0.281860,0.092529,0.121951,-1.463415,1.646341
1548456822289,-0.992981,0.283325,0.087891,0.060976,-1.646341,1.707317
1548456822297,-0.994019,0.285339,0.088440,-0.182927,-1.585366,1.646341
1548456822312,-0.988831,0.285400,0.087646,-0.243902,-1.402439,1.585366
1548456822319,-0.988220,0.284607,0.091614,-0.121951,-1.402439,1.707317
1548456822327,-0.988892,0.280762,0.090515,0.060976,-1.402439,1.829268
1548456822349,-0.988342,0.280212,0.092529,0.182927,-1.463415,1.585366
1548456822350,-0.988708,0.278442,0.093445,0.304878,-1.524390,1.646341
1548456822364,-0.990417,0.278442,0.092957,0.304878,-1.585366,1.768293
1548456822372,-0.992859,0.278076,0.096130,0.365854,-1.829268,1.829268
1548456822379,-0.994141,0.278931,0.098694,0.182927,-2.134146,1.768293
1548456822387,-0.994751,0.279846,0.097168,0.000000,-2.195122,1.646341
1548456822402,-0.995667,0.280273,0.096619,-0.182927,-2.317073,1.768293
1548456822409,-0.994751,0.281006,0.096497,-0.365854,-2.378049,1.707317
1548456822417,-0.996826,0.283264,0.097412,-0.304878,-2.439024,1.585366
1548456822432,-0.994690,0.285950,0.099060,-0.060976,-2.500000,1.585366
1548456822439,-0.989563,0.283325,0.097473,0.060976,-2.500000,1.646341
1548456822447,-0.987610,0.284241,0.097168,0.548781,-2.560976,1.463415
1548456822462,-0.984314,0.288269,0.093079,0.914634,-2.621951,1.463415
1548456822469,-0.981323,0.289490,0.091003,0.792683,-2.560976,1.463415
1548456822484,-0.979980,0.288574,0.090027,0.548781,-2.317073,1.524390
1548456822492,-0.982361,0.290283,0.090027,0.609756,-2.195122,1.707317
1548456822499,-0.984253,0.290771,0.088013,0.670732,-2.012195,1.890244
1548456822507,-0.986938,0.292358,0.086548,0.487805,-1.951220,1.951220
1548456822522,-0.987854,0.293640,0.086609,0.365854,-1.829268,2.134146
1548456822529,-0.986450,0.293823,0.083740,0.182927,-1.768293,2.134146
1548456822537,-0.988525,0.296448,0.087952,0.121951,-1.646341,2.256098
1548456822552,-0.989197,0.298279,0.087830,0.060976,-1.646341,2.500000
1548456822559,-0.991882,0.297668,0.091064,0.182927,-1.585366,2.560976
1548456822567,-0.991028,0.297852,0.091919,0.548781,-1.646341,2.682927
1548456822582,-0.992249,0.299377,0.090515,0.609756,-1.707317,2.682927
1548456822589,-0.993652,0.301880,0.095276,0.609756,-1.646341,2.682927
1548456822596,-0.990234,0.300232,0.096497,0.731707,-1.829268,2.804878
1548456822612,-0.988525,0.298096,0.096619,1.036585,-1.829268,2.987805
1548456822619,-0.987854,0.300964,0.099548,1.097561,-1.890244,3.109756
1548456822627,-0.988586,0.299744,0.100830,1.097561,-2.073171,3.292683
1548456822642,-0.986328,0.300110,0.101196,1.097561,-2.073171,3.475610
1548456822649,-0.983887,0.301147,0.101929,1.280488,-2.378049,3.597561
1548456822657,-0.984985,0.299194,0.106873,1.097561,-2.500000,3.780488
1548456822679,-0.982849,0.300232,0.105164,0.609756,-2.621951,3.963415
1548456822680,-0.984253,0.300842,0.104736,0.243902,-2.560976,4.207317
1548456822687,-0.984619,0.300415,0.105225,0.000000,-2.682927,4.390244
1548456822702,-0.986206,0.305176,0.108154,-0.121951,-2.804878,4.573171
1548456822709,-0.985229,0.309265,0.107483,-0.182927,-2.926829,4.756098
1548456822716,-0.988831,0.311401,0.108215,-0.243902,-3.048780,4.939024
1548456822732,-0.983337,0.311646,0.109192,0.060976,-3.170732,5.182927
1548456822739,-0.980896,0.315063,0.109985,0.121951,-3.231707,5.365854
1548456822746,-0.981140,0.318665,0.111938,0.304878,-3.353659,5.609756
1548456822762,-0.981140,0.319641,0.112854,0.548781,-3.719512,5.914634
1548456822769,-0.979675,0.319702,0.114563,0.792683,-3.963415,6.158537
1548456822777,-0.979675,0.322144,0.112976,0.975610,-3.902439,6.463415
1548456822792,-0.980042,0.324707,0.114380,1.036585,-4.085366,6.829268
1548456822799,-0.980164,0.326416,0.116089,0.975610,-4.268293,7.195122
1548456822807,-0.978394,0.330994,0.119141,0.853659,-4.329268,7.560976
1548456822822,-0.979126,0.330994,0.120300,1.036585,-4.634146,7.865854
1548456822829,-0.975769,0.334412,0.118530,1.036585,-4.939024,8.353659
1548456822837,-0.972168,0.341431,0.117676,0.792683,-5.182927,8.719512
1548456822852,-0.969788,0.343872,0.118042,0.792683,-5.487805,9.268292
1548456822859,-0.969604,0.350647,0.117676,0.792683,-5.731708,9.878049
1548456822867,-0.970215,0.354126,0.123474,0.792683,-6.036585,10.487805
1548456822882,-0.970764,0.352478,0.123596,1.097561,-6.341464,11.097561
1548456822889,-0.970947,0.353943,0.124084,1.280488,-6.585366,11.707317
1548456822896,-0.970398,0.355408,0.126282,1.097561,-6.646342,12.195122
1548456822912,-0.974792,0.354980,0.124451,0.975610,-7.012195,12.743903
1548456822919,-0.974243,0.359070,0.128052,0.792683,-7.378049,13.231708
1548456822927,-0.972229,0.362305,0.129395,0.426829,-7.560976,13.780488
1548456822942,-0.970520,0.366150,0.130371,0.304878,-7.743903,14.451220
1548456822949,-0.968323,0.366455,0.131653,0.121951,-8.048780,15.121951
1548456822957,-0.965942,0.372375,0.133606,-0.121951,-8.292683,15.609756
1548456822972,-0.961487,0.376221,0.135376,-0.365854,-8.536586,16.280489
1548456822979,-0.959900,0.379700,0.136047,-0.426829,-8.780488,16.951220
1548456822987,-0.960999,0.382263,0.135254,-0.609756,-9.085366,17.500000
1548456823001,-0.959534,0.377319,0.137329,-0.609756,-9.329268,18.170732
1548456823009,-0.959351,0.374939,0.139526,-0.487805,-9.573171,18.780489
1548456823017,-0.961792,0.377319,0.140442,-0.548781,-9.817074,19.268293
1548456823032,-0.964172,0.375244,0.141174,-0.670732,-10.000000,19.634148
1548456823039,-0.962158,0.378357,0.145142,-0.731707,-10.182927,20.000000
1548456823047,-0.960266,0.383301,0.145752,-1.036585,-10.365854,20.426830
1548456823062,-0.960815,0.389160,0.143311,-1.341463,-10.670732,20.792683
1548456823069,-0.956299,0.392700,0.146851,-1.707317,-10.853659,21.158537
1548456823077,-0.951660,0.396362,0.147095,-1.768293,-11.036586,21.585367
1548456823092,-0.950317,0.402344,0.145508,-1.524390,-11.219512,21.829269
1548456823099,-0.948730,0.407471,0.152588,-1.158537,-11.402439,22.134148
1548456823106,-0.947693,0.415466,0.157959,-0.609756,-11.585366,22.439024
1548456823121,-0.946594,0.418640,0.158508,0.121951,-11.951220,22.926830
1548456823129,-0.941650,0.418213,0.163391,1.036585,-12.256098,23.353659
1548456823136,-0.940857,0.418152,0.165710,1.707317,-12.621951,23.719513
1548456823152,-0.941406,0.421753,0.169678,1.951220,-13.048780,23.902439
1548456823159,-0.940918,0.423462,0.169128,2.012195,-13.414635,24.268293
1548456823167,-0.940796,0.425842,0.174316,1.829268,-13.780488,24.756098
1548456823182,-0.938660,0.425903,0.174377,1.707317,-13.963415,25.182928
1548456823189,-0.938293,0.428101,0.172241,1.280488,-14.024390,25.487806
1548456823197,-0.936951,0.432251,0.170776,0.487805,-13.963415,25.853659
1548456823212,-0.933228,0.437744,0.171692,-0.121951,-13.963415,26.158537
1548456823220,-0.931458,0.442078,0.174866,-0.548781,-14.024390,26.524391
1548456823263,-0.928833,0.448547,0.174377,-0.792683,-14.329268,26.707317
1548456823263,-0.926392,0.450500,0.173767,-0.914634,-14.329268,26.890245
1548456823263,-0.924927,0.451355,0.175171,-0.853659,-14.207317,27.073172
1548456823272,-0.922302,0.451904,0.179993,-0.609756,-14.268293,27.317074
1548456823279,-0.919861,0.454834,0.180725,-0.548781,-14.390244,27.500000
1548456823280,-0.917114,0.456116,0.183838,-0.670732,-14.634147,27.439026
1548456823287,-0.912048,0.455505,0.185852,-0.792683,-14.756098,27.439026
1548456823302,-0.911804,0.458130,0.188110,-0.853659,-14.878049,27.500000
1548456823309,-0.910950,0.459473,0.184265,-0.792683,-14.939025,27.500000
1548456823317,-0.907654,0.462036,0.186157,-0.731707,-14.939025,27.439026
1548456823332,-0.903809,0.470825,0.192871,-0.792683,-14.756098,27.439026
1548456823339,-0.897034,0.483765,0.194580,-0.670732,-14.634147,27.439026
1548456823347,-0.894470,0.490601,0.195374,0.060976,-14.817074,27.317074
1548456823362,-0.891785,0.494324,0.195923,0.975610,-15.060976,27.256098
1548456823369,-0.889404,0.495911,0.200317,1.707317,-15.060976,27.317074
1548456823377,-0.886597,0.501282,0.207825,2.439024,-15.182927,27.256098
1548456823392,-0.883911,0.507141,0.209717,3.048780,-15.426829,27.134148
1548456823399,-0.883423,0.511353,0.214661,3.658537,-15.792684,27.195122
1548456823407,-0.882935,0.511658,0.214539,3.841464,-15.975610,27.256098
1548456823422,-0.878174,0.516052,0.219971,3.597561,-15.975610,27.378050
1548456823429,-0.873474,0.520020,0.220886,3.353659,-15.853659,27.439026
1548456823437,-0.876404,0.522888,0.220642,3.170732,-16.036585,27.256098
1548456823453,-0.876526,0.525696,0.219116,2.865854,-16.280489,27.134148
1548456823460,-0.871643,0.530518,0.222290,2.621951,-16.097561,27.195122
1548456823467,-0.864807,0.529480,0.223877,2.378049,-15.731708,27.378050
1548456823482,-0.859497,0.527771,0.223633,2.073171,-15.365854,27.621952
1548456823489,-0.855408,0.529053,0.225342,2.073171,-15.426829,27.682928
1548456823497,-0.852783,0.531372,0.224731,1.829268,-15.426829,27.500000
1548456823512,-0.850891,0.530334,0.227356,1.402439,-15.304878,27.378050
1548456823519,-0.849487,0.538574,0.231812,0.975610,-15.304878,27.317074
1548456823527,-0.845703,0.543640,0.231445,0.670732,-15.182927,27.256098
1548456823542,-0.844360,0.544556,0.227783,0.365854,-14.939025,27.378050
1548456823549,-0.837524,0.546204,0.229553,-0.060976,-14.817074,27.378050
1548456823557,-0.835754,0.546265,0.233948,-0.548781,-14.512196,27.073172
1548456823572,-0.833435,0.543701,0.235291,-0.487805,-14.390244,26.829269
1548456823579,-0.831116,0.542480,0.238831,0.000000,-14.390244,26.402439
1548456823587,-0.828369,0.545105,0.239014,0.487805,-14.268293,25.853659
1548456823602,-0.820557,0.551758,0.243896,0.975610,-14.146341,25.304878
1548456823609,-0.812988,0.564026,0.243225,1.463415,-13.963415,25.000000
1548456823617,-0.808838,0.571411,0.237793,1.829268,-13.963415,24.695122
1548456823632,-0.806091,0.574280,0.238525,2.378049,-13.719513,24.451220
1548456823639,-0.805664,0.572327,0.239258,2.865854,-13.658537,24.085367
1548456823647,-0.805847,0.570068,0.243286,3.292683,-13.414635,23.597561
1548456823662,-0.805237,0.571655,0.245544,3.353659,-13.109756,23.048780
1548456823669,-0.807251,0.570129,0.249817,3.353659,-12.987805,22.500000
1548456823677,-0.800903,0.580444,0.254028,3.353659,-12.743903,21.951220
1548456823692,-0.788269,0.592102,0.251404,3.353659,-11.707317,21.341463
1548456823700,-0.786621,0.596558,0.250000,2.865854,-11.524390,21.341463
1548456823707,-0.785400,0.595520,0.253479,3.170732,-11.646341,21.219513
1548456823723,-0.789185,0.588989,0.251648,3.414634,-11.768293,21.158537
1548456823729,-0.788757,0.583557,0.253174,3.536585,-11.646341,20.609756
1548456823737,-0.789551,0.575623,0.256042,3.536585,-11.280488,20.060976
1548456823752,-0.782837,0.578369,0.257629,3.170732,-10.792684,19.390244
1548456823759,-0.774414,0.597107,0.257019,2.865854,-9.756098,18.475611
1548456823767,-0.773804,0.599854,0.257202,1.707317,-9.634147,18.475611
1548456823782,-0.766541,0.606567,0.259460,1.463415,-9.634147,18.414635
1548456823789,-0.760620,0.614380,0.260376,1.829268,-9.512196,17.987804
1548456823798,-0.760315,0.612671,0.262634,1.707317,-9.390244,17.500000
1548456823812,-0.761475,0.611267,0.264343,2.073171,-9.512196,17.256098
1548456823820,-0.754639,0.628845,0.271057,3.048780,-9.085366,16.585365
1548456823827,-0.747070,0.635254,0.267395,2.804878,-8.353659,16.402439
1548456823843,-0.747253,0.633789,0.272217,2.195122,-8.231708,16.524391
1548456823850,-0.749207,0.634521,0.276062,2.987805,-8.719512,16.341463
1548456823857,-0.748352,0.634460,0.276978,3.353659,-8.780488,15.975610
1548456823872,-0.752869,0.630005,0.276550,3.353659,-8.780488,15.792684
1548456823880,-0.745911,0.646484,0.282227,3.902439,-8.597561,15.609756
1548456823887,-0.737488,0.661743,0.280212,4.085366,-7.804878,15.487805
1548456823902,-0.733887,0.666687,0.279053,3.353659,-7.621952,15.487805
1548456823910,-0.733093,0.665894,0.282471,3.719512,-8.170732,15.670732
1548456823918,-0.731567,0.664307,0.285278,4.146341,-8.658537,15.914635
1548456823932,-0.733093,0.659363,0.287659,4.268293,-8.841464,15.853659
1548456823947,-0.733459,0.666626,0.295105,4.512195,-8.719512,15.975610
1548456823948,-0.719849,0.690002,0.295166,4.817073,-7.987805,15.853659
1548456823962,-0.709778,0.699707,0.292847,3.719512,-7.804878,16.341463
1548456823972,-0.710632,0.698547,0.296082,3.048780,-8.353659,16.890244
1548456823977,-0.713928,0.694153,0.296814,3.048780,-9.329268,17.378050
1548456823993,-0.715393,0.694702,0.298279,3.231707,-9.634147,17.804878
1548456824000,-0.715881,0.691284,0.294434,3.353659,-9.573171,18.170732
1548456824007,-0.722473,0.675049,0.293884,3.536585,-9.573171,18.353659
1548456824022,-0.723816,0.671692,0.295898,3.658537,-9.512196,18.414635
1548456824030,-0.719482,0.677002,0.295776,3.475610,-9.390244,18.353659
1548456824045,-0.709229,0.688660,0.295471,2.987805,-9.268292,18.170732
1548456824052,-0.698303,0.697937,0.296326,2.378049,-9.268292,18.353659
1548456824060,-0.691589,0.696411,0.297119,1.890244,-9.207317,18.780489
1548456824067,-0.691467,0.695435,0.297791,1.707317,-9.329268,18.963415
1548456824082,-0.689575,0.704834,0.296082,1.890244,-9.573171,18.963415
1548456824090,-0.684998,0.705872,0.297852,2.073171,-9.573171,19.024391
1548456824097,-0.681885,0.702576,0.300415,1.829268,-9.329268,19.268293
1548456824120,-0.682495,0.695618,0.296021,2.073171,-9.451220,19.451220
1548456824120,-0.684509,0.689331,0.297241,2.378049,-9.695122,19.451220
1548456824128,-0.683655,0.686829,0.301147,2.682927,-9.695122,19.146341
1548456824142,-0.683899,0.688110,0.305054,2.865854,-9.817074,18.841463
1548456824150,-0.680481,0.691833,0.299622,3.170732,-10.000000,18.597561
1548456824157,-0.673462,0.693665,0.294922,3.292683,-9.878049,18.353659
1548456824172,-0.670410,0.696289,0.291992,3.170732,-9.756098,18.109756
1548456824180,-0.668701,0.698181,0.288391,3.170732,-9.634147,17.926830
1548456824188,-0.667786,0.693970,0.291931,3.048780,-9.390244,17.560976
1548456824202,-0.669128,0.687805,0.294250,2.865854,-9.085366,17.256098
1548456824210,-0.665344,0.697693,0.295776,2.987805,-8.841464,16.890244
1548456824217,-0.658630,0.713440,0.298706,2.926829,-8.658537,16.341463
1548456824233,-0.648560,0.719177,0.294983,2.621951,-8.292683,16.219513
1548456824240,-0.647400,0.714111,0.293274,2.378049,-7.987805,16.219513
1548456824247,-0.651306,0.704224,0.296753,2.621951,-8.048780,16.158537
1548456824262,-0.655518,0.699463,0.301331,3.170732,-8.170732,15.792684
1548456824270,-0.656738,0.708252,0.300171,3.658537,-8.170732,15.121951
1548456824278,-0.650208,0.717285,0.300598,3.414634,-7.743903,14.756098
1548456824292,-0.643250,0.724487,0.298889,3.048780,-7.500000,14.573171
1548456824300,-0.636169,0.733582,0.300049,3.048780,-7.500000,14.451220
1548456824307,-0.626587,0.744934,0.301025,3.170732,-7.621952,14.207317
1548456824322,-0.626709,0.749329,0.301636,3.353659,-7.500000,14.268293
1548456824330,-0.625916,0.757324,0.303772,3.963415,-7.500000,14.451220
1548456824337,-0.624939,0.760498,0.301880,4.756098,-7.500000,14.390244
1548456824352,-0.620056,0.759888,0.302002,5.000000,-7.439024,14.512196
1548456824359,-0.619141,0.753967,0.306152,5.365854,-7.134147,14.756098
1548456824368,-0.619751,0.744324,0.310913,5.609756,-7.195122,15.000000
1548456824382,-0.621155,0.737305,0.310791,5.731708,-7.439024,15.000000
1548456824390,-0.618591,0.739014,0.313049,5.365854,-7.439024,14.817074
1548456824397,-0.613647,0.745667,0.310303,4.573171,-7.317073,14.634147
1548456824412,-0.610107,0.740295,0.305908,3.719512,-7.012195,14.695123
1548456824419,-0.607788,0.741577,0.305298,2.743902,-6.829268,14.634147
1548456824428,-0.604309,0.756592,0.310547,2.439024,-6.829268,14.390244
1548456824442,-0.599548,0.767944,0.309631,2.256098,-6.707317,14.207317
1548456824450,-0.597046,0.766968,0.306946,1.951220,-6.463415,14.451220
1548456824458,-0.598877,0.762146,0.306030,1.707317,-6.341464,14.573171
1548456824480,-0.598816,0.761475,0.311279,2.134146,-6.341464,14.390244
1548456824480,-0.595581,0.757690,0.313354,2.682927,-6.341464,14.207317
1548456824487,-0.592896,0.750366,0.317322,3.048780,-6.097561,14.024390
1548456824502,-0.593018,0.742981,0.318176,3.353659,-6.036585,13.963415
1548456824510,-0.590454,0.748901,0.318115,3.597561,-6.219512,13.780488
1548456824517,-0.584900,0.759827,0.314575,3.902439,-6.402439,13.414635
1548456824533,-0.584778,0.763123,0.308228,3.719512,-6.646342,13.292684
1548456824540,-0.589172,0.753235,0.305481,3.536585,-6.768293,13.292684
1548456824547,-0.591675,0.742065,0.310547,3.658537,-6.829268,13.109756
1548456824562,-0.590332,0.744873,0.314697,3.841464,-6.707317,12.439025
1548456824570,-0.582214,0.765686,0.313110,3.780488,-6.219512,11.707317
1548456824577,-0.574341,0.774536,0.309875,3.475610,-5.609756,11.646341
1548456824592,-0.564514,0.774963,0.311340,3.048780,-5.304878,11.707317
1548456824600,-0.560791,0.780334,0.312866,3.292683,-5.365854,11.402439
1548456824608,-0.561523,0.775513,0.312744,4.024390,-5.304878,11.524390
1548456824622,-0.567627,0.768066,0.310059,3.963415,-5.548780,11.768293
1548456824630,-0.571899,0.764526,0.309143,3.841464,-5.914634,11.646341
1548456824637,-0.570862,0.757507,0.313660,3.902439,-5.975610,11.097561
1548456824652,-0.569641,0.762939,0.313782,3.536585,-5.853659,10.609756
1548456824660,-0.563293,0.781616,0.313049,3.353659,-5.670732,10.243902
1548456824667,-0.554016,0.788391,0.310669,3.414634,-5.365854,10.182927
1548456824682,-0.551025,0.785828,0.307922,3.170732,-5.182927,10.304878
1548456824690,-0.550415,0.796204,0.309631,3.536585,-5.243903,10.243902
1548456824697,-0.548462,0.807068,0.310181,3.963415,-5.426829,10.060976
1548456824713,-0.544800,0.812805,0.310974,3.902439,-5.365854,10.243902
1548456824720,-0.545471,0.815430,0.311462,3.780488,-5.243903,10.304878
1548456824727,-0.543701,0.810364,0.309753,3.902439,-5.182927,10.609756
1548456824742,-0.546021,0.792908,0.306946,3.719512,-4.939024,10.792684
1548456824750,-0.552124,0.777588,0.308350,3.536585,-4.878049,10.914635
1548456824758,-0.556763,0.773438,0.310974,4.024390,-5.060976,10.914635
1548456824773,-0.553406,0.790588,0.310669,4.329268,-5.182927,10.670732
1548456824781,-0.542969,0.812622,0.306885,3.658537,-4.939024,10.426829
1548456824787,-0.535583,0.808228,0.302979,3.048780,-4.573171,10.609756
1548456824802,-0.539551,0.781433,0.301941,2.439024,-4.451220,10.853659
1548456824810,-0.548767,0.765076,0.310486,2.560976,-4.390244,10.609756
1548456824817,-0.546265,0.765198,0.310730,2.926829,-4.268293,9.939025
1548456824832,-0.538879,0.775208,0.307312,2.378049,-3.963415,9.451220
1548456824840,-0.531067,0.783508,0.302612,1.097561,-3.597561,9.146341
1548456824847,-0.523682,0.782349,0.301147,-0.182927,-3.292683,8.780488
1548456824862,-0.524353,0.771118,0.299500,-0.487805,-3.048780,8.475610
1548456824870,-0.527405,0.762512,0.303284,-0.121951,-3.109756,8.109756
1548456824877,-0.534485,0.760254,0.305115,0.426829,-3.109756,7.439024
1548456824892,-0.536255,0.751465,0.304199,0.670732,-2.987805,6.707317
1548456824900,-0.534851,0.752625,0.302917,0.609756,-2.865854,5.975610
1548456824908,-0.525391,0.764954,0.305298,0.426829,-2.560976,5.060976
1548456824922,-0.513123,0.780640,0.303406,0.243902,-2.073171,4.329268
1548456824930,-0.509583,0.786987,0.297302,0.121951,-1.524390,3.902439
1548456824937,-0.513306,0.783997,0.293579,0.365854,-1.524390,3.597561
1548456824952,-0.524414,0.761963,0.293213,1.219512,-1.768293,3.414634
1548456824960,-0.533997,0.757446,0.301147,2.073171,-1.829268,2.987805
1548456824967,-0.533203,0.774780,0.307556,2.865854,-1.646341,2.317073
1548456824982,-0.522400,0.803406,0.306702,2.926829,-0.975610,1.646341
1548456824990,-0.507874,0.825256,0.308289,2.439024,-0.365854,1.463415
1548456824997,-0.501770,0.828857,0.306763,2.560976,-0.121951,1.280488
1548456825012,-0.506409,0.812561,0.308777,3.658537,-0.121951,1.402439
1548456825020,-0.522034,0.792908,0.312500,4.939024,-0.548781,1.585366
1548456825027,-0.533447,0.786438,0.316345,5.792683,-1.097561,1.463415
1548456825042,-0.536255,0.789368,0.318237,5.914634,-1.280488,0.914634
1548456825050,-0.532349,0.786682,0.309204,4.512195,-1.097561,0.548781
1548456825057,-0.526062,0.785706,0.305786,2.195122,-0.853659,0.304878
1548456825073,-0.517334,0.803284,0.305420,0.548781,-0.487805,-0.243902
1548456825080,-0.513733,0.815002,0.307007,-0.365854,0.000000,-0.548781
1548456825088,-0.517273,0.810791,0.303955,-1.158537,0.548781,-0.670732
1548456825102,-0.520935,0.802612,0.300415,-1.219512,0.426829,-0.792683
1548456825115,-0.518555,0.805481,0.302246,-0.731707,0.365854,-1.097561
1548456825131,-0.509644,0.803589,0.306213,-0.060976,0.975610,-1.280488
1548456825134,-0.505066,0.795410,0.307068,-0.121951,1.585366,-1.158537
1548456825140,-0.510193,0.783325,0.309631,-0.304878,1.341463,-0.975610
1548456825147,-0.521790,0.789246,0.315735,-0.182927,0.365854,-1.036585
1548456825162,-0.518677,0.818359,0.315186,0.426829,-0.548781,-1.585366
1548456825169,-0.513733,0.820801,0.306091,0.731707,-0.548781,-1.524390
1548456825177,-0.519409,0.795532,0.301453,0.426829,0.000000,-1.036585
1548456825192,-0.529175,0.781250,0.304077,1.097561,-0.304878,-1.280488
1548456825199,-0.533569,0.785339,0.310303,2.378049,-0.548781,-1.829268
1548456825207,-0.531921,0.799377,0.314636,2.256098,-0.182927,-2.073171
1548456825222,-0.523376,0.808716,0.308838,1.280488,0.304878,-2.256098
1548456825229,-0.513794,0.816833,0.308350,0.000000,0.609756,-2.439024
1548456825237,-0.512573,0.808105,0.307434,-0.609756,0.853659,-2.621951
1548456825252,-0.523682,0.791748,0.307861,-0.914634,0.853659,-2.560976
1548456825266,-0.532776,0.790039,0.311829,-0.731707,0.487805,-2.560976
1548456825267,-0.533203,0.798279,0.315552,-0.304878,0.304878,-2.682927
1548456825282,-0.524597,0.810486,0.314697,-0.792683,0.670732,-2.804878
1548456825289,-0.521179,0.809448,0.313599,-1.402439,0.792683,-2.804878
1548456825297,-0.521851,0.800903,0.308960,-1.646341,0.731707,-2.743902
1548456825312,-0.527161,0.797302,0.307312,-1.219512,0.365854,-3.048780
1548456825319,-0.531860,0.800171,0.307434,-0.670732,0.182927,-3.292683
1548456825327,-0.534546,0.795471,0.308289,-0.304878,0.365854,-3.231707
1548456825342,-0.532104,0.789551,0.307190,-0.426829,0.548781,-3.353659
1548456825349,-0.529846,0.790710,0.306458,-0.731707,0.609756,-3.658537
1548456825357,-0.526184,0.798279,0.309326,-1.219512,0.914634,-3.902439
1548456825372,-0.521423,0.805420,0.308533,-1.402439,1.036585,-3.902439
1548456825379,-0.526611,0.794373,0.306885,-1.524390,1.097561,-3.841464
1548456825387,-0.535645,0.773926,0.307739,-1.402439,0.914634,-3.902439
1548456825402,-0.541382,0.775513,0.317139,-0.853659,0.609756,-4.207317
1548456825409,-0.539795,0.787109,0.316772,-0.365854,0.548781,-4.512195
1548456825417,-0.541138,0.776978,0.310913,-1.097561,0.853659,-4.512195
1548456825432,-0.544006,0.754822,0.312012,-2.317073,0.853659,-4.756098
1548456825439,-0.542847,0.752747,0.317139,-2.926829,0.792683,-5.670732
1548456825447,-0.540527,0.768066,0.322205,-2.987805,0.914634,-6.707317
1548456825462,-0.540344,0.777100,0.323547,-3.475610,0.914634,-6.951220
1548456825470,-0.540710,0.768982,0.323486,-3.536585,1.036585,-7.012195
1548456825477,-0.542236,0.753113,0.325928,-3.170732,0.914634,-7.560976
1548456825492,-0.542725,0.751648,0.328796,-2.804878,0.792683,-8.231708
1548456825500,-0.544617,0.757935,0.328979,-2.621951,0.609756,-8.719512
1548456825507,-0.552002,0.759583,0.318115,-3.292683,0.304878,-9.085366
1548456825523,-0.558716,0.752625,0.306702,-4.329268,-0.060976,-9.695122
1548456825530,-0.564575,0.747009,0.306763,-5.487805,0.060976,-10.426829
1548456825537,-0.559937,0.759216,0.312012,-5.914634,0.853659,-11.097561
1548456825552,-0.554199,0.781982,0.311279,-5.182927,2.012195,-11.646341
1548456825560,-0.552490,0.779175,0.303284,-4.329268,2.621951,-11.768293
1548456825567,-0.561401,0.754883,0.296021,-3.780488,2.500000,-11.951220
1548456825582,-0.567810,0.753113,0.303406,-2.926829,2.012195,-12.682927
1548456825590,-0.566895,0.763367,0.307922,-1.768293,2.195122,-13.414635
1548456825597,-0.565186,0.759888,0.300720,-2.012195,2.926829,-13.597561
1548456825612,-0.568604,0.753479,0.299866,-3.231707,3.353659,-13.780488
1548456825620,-0.574524,0.756042,0.299500,-4.390244,3.048780,-14.390244
1548456825627,-0.575195,0.772827,0.300781,-4.878049,2.926829,-15.000000
1548456825642,-0.571838,0.789246,0.301514,-4.817073,3.292683,-15.487805
1548456825650,-0.572693,0.785034,0.296753,-4.207317,3.780488,-15.365854
1548456825658,-0.575256,0.770630,0.292725,-3.109756,4.085366,-15.304878
1548456825672,-0.582703,0.754211,0.293640,-1.951220,4.207317,-15.426829
1548456825680,-0.592407,0.733093,0.300842,-1.585366,4.207317,-15.609756
1548456825688,-0.604431,0.716492,0.299255,-1.951220,4.268293,-15.792684
1548456825702,-0.611389,0.713806,0.296265,-3.353659,4.268293,-16.219513
1548456825710,-0.615723,0.723267,0.289246,-5.548780,4.573171,-16.951220
1548456825717,-0.609802,0.732239,0.285828,-7.560976,5.487805,-17.500000
1548456825732,-0.597900,0.745300,0.287231,-8.841464,6.707317,-18.048780
1548456825740,-0.593689,0.759766,0.285583,-8.841464,7.682927,-18.414635
1548456825748,-0.595215,0.758545,0.285706,-7.682927,8.170732,-18.414635
1548456825762,-0.604248,0.738892,0.287415,-6.158537,8.475610,-18.597561
1548456825770,-0.617432,0.716125,0.289612,-4.451220,8.597561,-18.902439
1548456825778,-0.627258,0.703979,0.294800,-3.048780,8.658537,-19.573172
1548456825792,-0.632812,0.705750,0.297424,-2.195122,8.719512,-20.426830
1548456825800,-0.637573,0.703735,0.289856,-1.951220,9.085366,-20.975611
1548456825807,-0.639526,0.696899,0.286194,-2.134146,9.573171,-21.463415
1548456825822,-0.641602,0.689941,0.284607,-2.073171,10.000000,-22.195122
1548456825830,-0.645081,0.693848,0.287537,-1.707317,10.487805,-23.170732
1548456825837,-0.645386,0.713318,0.289062,-1.158537,10.731708,-23.963415
1548456825853,-0.641785,0.728516,0.285706,-0.487805,11.036586,-24.573172
1548456825860,-0.642578,0.732117,0.286987,-0.304878,11.585366,-24.695122
1548456825867,-0.644287,0.733459,0.294861,0.060976,12.073171,-24.634148
1548456825882,-0.641174,0.737671,0.298096,1.158537,12.378049,-24.817074
1548456825890,-0.651062,0.723877,0.298096,1.707317,12.378049,-24.878050
1548456825898,-0.664490,0.699951,0.302612,1.646341,12.195122,-24.939026
1548456825912,-0.683411,0.681763,0.301636,1.768293,11.951220,-25.121952
1548456825920,-0.696167,0.670959,0.303833,1.402439,11.951220,-25.670732
1548456825928,-0.698975,0.673340,0.302917,0.426829,12.439025,-26.280489
1548456825942,-0.697388,0.698059,0.303345,-0.609756,12.926829,-26.707317
1548456825950,-0.689941,0.718506,0.298706,-1.219512,13.109756,-26.829269
1548456825957,-0.681396,0.724915,0.292297,-1.707317,13.536586,-26.585367
1548456825972,-0.679321,0.724243,0.292603,-1.646341,13.963415,-26.341463
1548456825980,-0.678833,0.733582,0.299683,-0.914634,13.841464,-26.158537
1548456825987,-0.675720,0.741577,0.305176,0.304878,13.536586,-26.036587
1548456826003,-0.684387,0.715454,0.303833,0.365854,13.414635,-25.121952
1548456826010,-0.706055,0.685242,0.306763,0.304878,12.621951,-24.512196
1548456826017,-0.722046,0.677734,0.310669,0.914634,11.707317,-24.817074
1548456826033,-0.730286,0.684998,0.311523,0.731707,11.402439,-25.121952
1548456826040,-0.726013,0.693787,0.312073,-0.243902,11.707317,-24.939026
1548456826047,-0.723633,0.693420,0.304016,-1.219512,11.890244,-24.329269
1548456826062,-0.725952,0.692017,0.296143,-1.768293,11.585366,-23.963415
1548456826070,-0.720032,0.691345,0.293335,-2.134146,11.463415,-23.841463
1548456826078,-0.729614,0.676392,0.285461,-2.500000,11.158537,-23.414635
1548456826092,-0.740173,0.662781,0.287231,-2.195122,10.731708,-23.353659
1548456826100,-0.744568,0.655518,0.287720,-1.646341,10.609756,-23.353659
1548456826107,-0.747986,0.648132,0.283081,-1.890244,10.792684,-23.353659
1548456826122,-0.751282,0.645203,0.281006,-2.378049,10.914635,-23.414635
1548456826130,-0.750366,0.644470,0.280640,-3.231707,11.158537,-23.597561
1548456826137,-0.747375,0.647827,0.279114,-3.963415,11.585366,-23.475611
1548456826152,-0.745056,0.653931,0.274841,-4.390244,11.463415,-23.414635
1548456826160,-0.744873,0.653870,0.275879,-4.085366,11.219512,-23.109756
1548456826168,-0.747131,0.640808,0.272461,-3.719512,11.158537,-22.865854
1548456826182,-0.757690,0.615112,0.268494,-3.536585,10.548780,-22.560976
1548456826190,-0.776306,0.601685,0.265381,-2.865854,10.000000,-22.926830
1548456826197,-0.785889,0.597595,0.259216,-2.682927,10.121951,-23.475611
1548456826212,-0.787415,0.594238,0.252747,-3.109756,10.853659,-23.963415
1548456826221,-0.790588,0.583679,0.246033,-4.085366,11.402439,-24.268293
1548456826227,-0.793518,0.587646,0.250244,-4.634146,11.158537,-24.573172
1548456826242,-0.791260,0.596985,0.246094,-4.146341,11.219512,-25.304878
1548456826250,-0.789917,0.594116,0.239990,-3.902439,11.463415,-25.487806
1548456826294,-0.787415,0.590576,0.236206,-3.170732,12.134147,-25.609756
1548456826294,-0.789734,0.590210,0.233337,-2.682927,12.560976,-25.975611
1548456826294,-0.802002,0.577698,0.232361,-2.500000,12.317074,-26.341463
1548456826295,-0.804138,0.581177,0.231750,-1.341463,12.804878,-27.134148
1548456826302,-0.803528,0.580688,0.232239,-1.341463,13.414635,-27.865854
1548456826309,-0.801086,0.580566,0.232727,-1.707317,13.963415,-28.048780
1548456826317,-0.817566,0.559082,0.230652,-1.768293,13.841464,-27.743902
1548456826332,-0.826477,0.559448,0.230469,-1.280488,13.292684,-28.048780
1548456826340,-0.824402,0.561951,0.224915,-0.487805,13.902439,-29.268293
1548456826347,-0.831604,0.539734,0.220093,-1.097561,14.268293,-29.817074
1548456826362,-0.848206,0.516968,0.219055,-1.585366,13.902439,-29.573172
1548456826369,-0.855408,0.520020,0.218323,-1.097561,14.329268,-30.548780
1548456826377,-0.854248,0.535645,0.215820,-1.707317,15.304878,-32.073170
1548456826392,-0.855286,0.549988,0.207581,-2.926829,15.853659,-32.621952
1548456826399,-0.856873,0.557556,0.200806,-3.048780,16.036585,-32.378048
1548456826407,-0.857239,0.548096,0.193298,-2.621951,16.402439,-32.317074
1548456826422,-0.856750,0.532837,0.188416,-2.195122,17.134148,-32.560978
1548456826429,-0.873840,0.502930,0.187683,-2.317073,17.621952,-32.439026
1548456826437,-0.880920,0.502808,0.194397,-1.768293,17.926830,-33.109756
1548456826451,-0.882935,0.504578,0.192505,-0.792683,18.902439,-34.573170
1548456826459,-0.882385,0.512390,0.190125,-1.524390,19.329269,-35.182926
1548456826467,-0.888123,0.515503,0.186096,-1.890244,19.451220,-34.756100
1548456826482,-0.886841,0.516724,0.182983,-1.646341,19.390244,-34.634148
1548456826491,-0.882812,0.514832,0.183716,-1.341463,19.878050,-34.756100
1548456826497,-0.882751,0.522217,0.189697,-1.219512,20.365854,-34.878048
1548456826512,-0.883240,0.534851,0.196594,-0.792683,20.426830,-34.878048
1548456826521,-0.882324,0.545654,0.199158,0.243902,20.121952,-34.451221
1548456826527,-0.880981,0.546265,0.198120,2.012195,19.695122,-33.780487
1548456826543,-0.884094,0.536804,0.203186,3.780488,19.146341,-33.231709
1548456826550,-0.895508,0.525024,0.208984,5.000000,18.231709,-32.378048
1548456826557,-0.895203,0.528687,0.211548,6.341464,17.621952,-32.195122
1548456826580,-0.899963,0.520264,0.215210,6.951220,17.134148,-31.829269
1548456826580,-0.912109,0.511780,0.217102,6.463415,15.914635,-30.548780
1548456826587,-0.917725,0.512817,0.217834,6.707317,15.182927,-29.817074
1548456826602,-0.905457,0.529541,0.216187,6.036585,15.060976,-29.329269
1548456826610,-0.920471,0.504211,0.206482,4.268293,14.390244,-27.865854
1548456826617,-0.929199,0.501343,0.208191,3.231707,12.560976,-26.097561
1548456826640,-0.923462,0.497375,0.202576,3.536585,13.353659,-25.853659
1548456826640,-0.912354,0.487671,0.203247,1.707317,13.963415,-25.365854
1548456826647,-0.920776,0.467468,0.202454,0.121951,13.841464,-23.902439
1548456826662,-0.927551,0.462524,0.199341,-0.670732,12.743903,-22.682928
1548456826678,-0.926819,0.454346,0.195374,-1.219512,12.804878,-22.378050
1548456826679,-0.927368,0.447388,0.190796,-2.500000,12.682927,-21.707317
1548456826701,-0.927673,0.442322,0.190125,-3.841464,12.317074,-20.731709
1548456826701,-0.928345,0.434814,0.189209,-4.634146,11.890244,-19.878050
1548456826707,-0.925415,0.425354,0.180847,-5.121951,11.524390,-19.390244
1548456826723,-0.929138,0.419617,0.177063,-5.670732,11.280488,-19.024391
1548456826730,-0.930969,0.416260,0.176147,-5.792683,10.975610,-18.719513
1548456826738,-0.931946,0.413147,0.173584,-5.548780,10.609756,-18.231709
1548456826753,-0.934631,0.409424,0.166199,-4.878049,10.060976,-17.804878
1548456826760,-0.939575,0.402466,0.161804,-4.085366,9.451220,-17.743902
1548456826768,-0.945923,0.394226,0.155884,-3.353659,8.963415,-17.804878
1548456826782,-0.951416,0.386169,0.146545,-2.743902,8.475610,-17.865854
1548456826790,-0.953613,0.381104,0.140320,-2.500000,8.231708,-17.987804
1548456826797,-0.957092,0.382141,0.138245,-2.256098,8.231708,-18.109756
1548456826813,-0.958618,0.385864,0.134460,-1.890244,8.048780,-18.231709
1548456826820,-0.961731,0.380371,0.131653,-1.341463,7.926829,-18.353659
1548456826827,-0.962097,0.371399,0.128357,-0.304878,8.048780,-18.536585
1548456826850,-0.960205,0.364136,0.123901,0.853659,8.048780,-18.841463
1548456826851,-0.963501,0.363342,0.122437,1.402439,7.804878,-19.207317
1548456826858,-0.961426,0.374512,0.119629,1.829268,7.804878,-19.573172
1548456826873,-0.958252,0.375183,0.111694,1.707317,7.926829,-19.817074
1548456826880,-0.957520,0.367493,0.106750,1.707317,7.987805,-19.756098
1548456826887,-0.957153,0.357239,0.105286,1.524390,8.109756,-19.634148
1548456826902,-0.961121,0.352417,0.102539,1.158537,8.475610,-20.000000
1548456826910,-0.965759,0.356323,0.103760,0.731707,8.719512,-20.243902
1548456826918,-0.968750,0.362793,0.106506,0.609756,8.841464,-20.243902
1548456826932,-0.969177,0.363220,0.103027,0.914634,8.902439,-20.060976
1548456826940,-0.969971,0.356750,0.102112,1.768293,8.780488,-19.878050
1548456826947,-0.967651,0.351318,0.101990,2.195122,8.963415,-19.756098
1548456826962,-0.969238,0.351440,0.101196,2.073171,8.963415,-19.573172
1548456826971,-0.972900,0.358032,0.105225,1.707317,8.963415,-19.390244
1548456826977,-0.973145,0.361511,0.104675,1.097561,8.963415,-18.963415
1548456826993,-0.972473,0.357300,0.104675,1.097561,9.024390,-18.414635
1548456827001,-0.973083,0.355103,0.104431,1.341463,8.902439,-18.231709
1548456827008,-0.974915,0.355835,0.102905,1.768293,8.780488,-17.987804
1548456827023,-0.975281,0.358154,0.102234,2.012195,8.658537,-17.621952
1548456827030,-0.976562,0.354858,0.105347,2.134146,8.414635,-17.012196
1548456827037,-0.974426,0.348999,0.107971,2.439024,8.109756,-16.280489
1548456827052,-0.977844,0.346436,0.108093,2.560976,7.987805,-15.914635
1548456827060,-0.979492,0.345642,0.109985,2.439024,7.865854,-15.487805
1548456827068,-0.977722,0.345642,0.111328,2.195122,7.560976,-14.878049
1548456827082,-0.978638,0.344238,0.111755,2.317073,7.195122,-14.146341
1548456827091,-0.979431,0.339844,0.111938,2.195122,6.707317,-13.353659
1548456827097,-0.981323,0.334473,0.110779,2.134146,6.402439,-12.865854
1548456827112,-0.979431,0.331726,0.111572,1.707317,6.402439,-12.378049
1548456827120,-0.978394,0.333801,0.109253,1.158537,6.219512,-11.646341
1548456827127,-0.979370,0.335632,0.109985,0.548781,5.914634,-10.853659
1548456827142,-0.981140,0.338623,0.109436,-0.121951,5.609756,-10.000000
1548456827149,-0.979553,0.335205,0.110107,-0.243902,5.182927,-9.024390
1548456827157,-0.979919,0.331360,0.111816,0.060976,4.756098,-8.109756
1548456827172,-0.981384,0.328491,0.109924,0.304878,4.329268,-7.439024
1548456827179,-0.983948,0.321350,0.109009,0.243902,3.658537,-6.890244
1548456827187,-0.987122,0.313721,0.106567,0.000000,3.170732,-6.402439
1548456827202,-0.991577,0.309937,0.106628,-0.304878,2.560976,-5.792683
1548456827210,-0.993164,0.303528,0.102722,-0.304878,2.134146,-5.182927
1548456827217,-0.993347,0.296204,0.098450,-0.426829,1.829268,-4.634146
1548456827232,-0.993225,0.288635,0.098694,-0.853659,1.768293,-4.146341
1548456827239,-0.993652,0.283386,0.094482,-1.158537,1.524390,-3.841464
1548456827247,-0.993896,0.279480,0.089050,-1.463415,1.341463,-3.780488
1548456827262,-0.992004,0.274292,0.085144,-1.768293,1.341463,-3.658537
1548456827269,-0.990540,0.271423,0.082458,-2.073171,1.219512,-3.658537
1548456827277,-0.991760,0.273682,0.077881,-2.073171,1.219512,-3.658537
1548456827292,-0.993042,0.274719,0.077209,-2.012195,1.219512,-3.780488
1548456827299,-0.991821,0.276123,0.076660,-1.890244,1.280488,-3.780488
1548456827307,-0.991333,0.274292,0.074829,-1.463415,1.280488,-3.780488
1548456827322,-0.990906,0.268188,0.074829,-0.975610,1.158537,-3.841464
1548456827329,-0.992249,0.263855,0.073486,-0.609756,1.158537,-4.207317
1548456827337,-0.993225,0.267395,0.072449,-0.670732,1.280488,-4.512195
1548456827359,-0.993347,0.269226,0.070862,-0.853659,1.280488,-4.756098
1548456827360,-0.995300,0.272522,0.066956,-0.914634,1.341463,-4.878049
1548456827367,-0.996521,0.278564,0.066101,-0.609756,1.402439,-4.939024
1548456827382,-0.995972,0.277466,0.067078,-0.060976,1.463415,-5.060976
1548456827390,-0.998901,0.277222,0.065918,0.731707,1.463415,-5.182927
1548456827399,-0.998657,0.275452,0.067200,1.524390,1.463415,-5.365854
1548456827412,-0.997009,0.272034,0.068665,2.195122,1.463415,-5.365854
1548456827420,-0.996765,0.271118,0.069397,2.378049,1.341463,-5.426829
1548456827435,-0.998474,0.274048,0.071228,2.256098,1.341463,-5.304878
1548456827442,-0.999023,0.274597,0.070557,2.134146,1.524390,-5.182927
1548456827450,-0.998413,0.276978,0.069885,1.768293,1.524390,-5.060976
1548456827458,-0.995911,0.278198,0.073242,1.524390,1.463415,-4.756098
1548456827472,-0.994080,0.280334,0.073242,1.341463,1.402439,-4.512195
1548456827480,-0.992188,0.281921,0.075134,1.280488,1.402439,-4.329268
1548456827487,-0.989380,0.282043,0.077759,1.036585,1.280488,-4.085366
1548456827503,-0.991455,0.283569,0.075195,0.914634,1.280488,-3.963415
1548456827510,-0.994263,0.282898,0.078857,0.731707,1.158537,-3.658537
1548456827518,-0.996155,0.285156,0.079773,0.609756,0.914634,-3.231707
1548456827533,-0.996948,0.286255,0.078308,0.487805,0.792683,-2.987805
1548456827540,-0.997314,0.286255,0.076904,0.243902,0.670732,-2.621951
1548456827547,-0.994507,0.285950,0.077576,0.060976,0.670732,-2.073171
1548456827564,-0.992432,0.284668,0.082214,0.000000,0.487805,-1.585366
1548456827570,-0.994812,0.284241,0.079956,-0.060976,0.426829,-1.097561
1548456827577,-0.994812,0.282959,0.078430,0.000000,0.243902,-0.548781
1548456827592,-0.993896,0.283936,0.080505,0.060976,-0.060976,-0.060976
1548456827599,-0.995789,0.282349,0.080872,0.000000,-0.243902,0.487805
1548456827607,-0.996277,0.278931,0.082092,-0.182927,-0.487805,0.975610
1548456827622,-0.998291,0.276123,0.078735,-0.426829,-0.609756,1.219512
1548456827637,-0.999146,0.274109,0.078552,-0.670732,-0.670732,1.646341
1548456827637,-0.999878,0.272522,0.078613,-0.731707,-0.914634,1.951220
1548456827652,-1.001587,0.269531,0.080688,-0.670732,-1.158537,2.195122
1548456827659,-1.003723,0.269287,0.078125,-0.731707,-1.280488,2.317073
1548456827667,-1.000244,0.267334,0.077026,-0.731707,-1.402439,2.439024
1548456827682,-0.997192,0.265137,0.077087,-0.670732,-1.524390,2.560976
1548456827690,-0.994812,0.262878,0.072754,-0.670732,-1.646341,2.621951
1548456827697,-0.995422,0.262085,0.071655,-0.731707,-1.524390,2.621951
1548456827712,-0.994629,0.260681,0.071533,-0.914634,-1.524390,2.682927
1548456827720,-0.995850,0.258850,0.073181,-0.792683,-1.524390,2.743902
1548456827727,-0.999023,0.257996,0.070496,-0.792683,-1.524390,2.682927
1548456827742,-0.999146,0.255371,0.068176,-0.792683,-1.524390,2.439024
1548456827757,-0.999146,0.253540,0.067749,-0.609756,-1.524390,2.317073
1548456827757,-0.997253,0.251160,0.067627,-0.609756,-1.524390,2.134146
1548456827772,-1.000488,0.253235,0.068481,-0.670732,-1.463415,1.951220
1548456827780,-0.999268,0.254517,0.066162,-0.487805,-1.341463,1.890244
1548456827795,-1.000244,0.253906,0.065735,-0.182927,-1.341463,1.768293
1548456827803,-0.999329,0.255188,0.065796,0.121951,-1.402439,1.402439
1548456827810,-0.998840,0.256287,0.066589,0.304878,-1.280488,1.036585
1548456827817,-1.000244,0.256226,0.065002,0.487805,-1.036585,0.975610
1548456827832,-0.997803,0.255554,0.060303,0.792683,-0.975610,0.792683
1548456827840,-0.999512,0.254822,0.058472,0.731707,-0.853659,0.548781
1548456827847,-1.001221,0.256409,0.063293,0.670732,-0.609756,0.365854
1548456827862,-1.003235,0.256287,0.065186,0.792683,-0.609756,0.182927
1548456827871,-1.001221,0.256897,0.066040,0.792683,-0.670732,0.060976
1548456827878,-0.999329,0.257812,0.067627,0.670732,-0.609756,0.000000
1548456827893,-0.999329,0.260864,0.064392,0.487805,-0.609756,-0.243902
1548456827900,-1.001587,0.264771,0.068542,0.487805,-0.609756,-0.609756
1548456827916,-1.001831,0.264771,0.071655,0.487805,-0.548781,-0.670732
1548456827922,-0.998901,0.264526,0.072510,0.365854,-0.609756,-0.487805
1548456827930,-0.996704,0.264954,0.070129,0.365854,-0.548781,-0.548781
1548456827937,-0.996948,0.268921,0.070618,-0.060976,-0.304878,-0.548781
1548456827952,-0.995728,0.268311,0.073486,-0.548781,-0.182927,-0.487805
1548456827961,-0.996582,0.269104,0.074402,-0.487805,-0.182927,-0.609756
1548456827968,-0.996521,0.274536,0.071960,-0.243902,-0.365854,-0.487805
1548456827983,-0.999573,0.274597,0.071167,-0.304878,-0.487805,-0.487805
1548456827990,-0.994873,0.272278,0.074219,-0.243902,-0.365854,-0.365854
1548456827997,-0.993835,0.270020,0.073975,0.304878,-0.426829,-0.182927
1548456828012,-0.995544,0.270447,0.072815,0.975610,-0.548781,0.000000
1548456828020,-0.996582,0.269836,0.075806,1.158537,-0.670732,0.060976
1548456828027,-0.992737,0.267700,0.079895,0.975610,-0.731707,0.121951
1548456828042,-0.994019,0.269714,0.076782,0.975610,-0.731707,0.365854
1548456828050,-0.994873,0.272400,0.074219,0.975610,-0.975610,0.487805
1548456828058,-0.993958,0.270142,0.075317,0.548781,-0.975610,0.487805
1548456828072,-0.996094,0.268433,0.076721,0.304878,-0.792683,0.548781
1548456828080,-0.996826,0.270020,0.075317,0.365854,-0.731707,0.914634
1548456828087,-1.001221,0.269531,0.073303,0.243902,-0.792683,1.036585
1548456828102,-1.001160,0.268555,0.073730,-0.060976,-0.792683,1.036585
1548456828109,-0.996948,0.267273,0.076660,-0.060976,-0.853659,1.402439
1548456828117,-0.997803,0.266602,0.075684,0.121951,-1.036585,1.524390
1548456828132,-0.997742,0.266235,0.073730,-0.060976,-1.097561,1.280488
1548456828140,-0.997070,0.269043,0.073059,-0.121951,-1.158537,1.280488
1548456828147,-0.999207,0.269714,0.075623,0.000000,-1.402439,1.402439
1548456828162,-1.000183,0.272949,0.073853,0.426829,-1.707317,1.219512
1548456828170,-0.998169,0.271179,0.070557,0.792683,-1.829268,1.158537
1548456828192,-0.997375,0.267517,0.069763,1.097561,-1.768293,1.158537
1548456828192,-0.994995,0.265320,0.072449,1.341463,-1.524390,1.158537
1548456828199,-0.996765,0.264160,0.073242,1.524390,-1.463415,1.097561
1548456828207,-0.998108,0.262146,0.074951,1.219512,-1.463415,1.280488
1548456828222,-0.995178,0.261414,0.074890,0.731707,-1.463415,1.341463
1548456828229,-0.996948,0.263977,0.074768,0.304878,-1.402439,1.280488
1548456828237,-0.998291,0.268372,0.072693,-0.060976,-1.402439,1.341463
1548456828252,-0.997314,0.268555,0.074951,-0.304878,-1.341463,1.402439
1548456828259,-0.995361,0.266113,0.074219,-0.365854,-1.219512,1.524390
1548456828267,-0.993591,0.267395,0.071899,-0.304878,-1.158537,1.524390
1548456828282,-0.994507,0.268372,0.072144,-0.121951,-1.219512,1.585366
1548456828290,-0.995117,0.269958,0.070862,0.060976,-1.280488,1.524390
1548456828312,-0.997253,0.268860,0.067078,0.304878,-1.280488,1.341463
1548456828312,-0.998535,0.267700,0.069946,0.548781,-1.219512,1.219512
1548456828320,-0.999390,0.268127,0.070312,0.670732,-1.158537,1.280488
1548456828327,-0.999939,0.268677,0.071960,0.731707,-1.219512,1.219512
1548456828349,-1.000183,0.267822,0.072388,0.853659,-1.280488,0.975610
1548456828350,-0.998779,0.267578,0.071350,0.548781,-1.341463,1.036585
1548456828357,-0.996643,0.268921,0.074890,0.487805,-1.463415,0.914634
1548456828373,-0.996033,0.268921,0.077148,0.487805,-1.524390,0.975610
1548456828380,-0.994812,0.268799,0.075317,0.304878,-1.280488,1.097561
1548456828387,-0.993958,0.267944,0.073853,0.304878,-1.036585,1.036585
1548456828402,-0.994446,0.267822,0.075317,0.487805,-1.097561,0.975610
1548456828410,-0.995483,0.269104,0.078613,0.426829,-1.219512,1.036585
1548456828418,-0.995911,0.267456,0.076416,0.365854,-1.280488,0.853659
1548456828433,-0.995972,0.267517,0.072632,0.243902,-1.341463,0.731707
1548456828440,-0.996399,0.269531,0.072449,0.060976,-1.219512,0.853659
1548456828447,-0.994141,0.268494,0.074219,-0.121951,-1.097561,0.853659
1548456828471,-0.996094,0.270447,0.076965,0.000000,-1.158537,0.731707
1548456828471,-0.996338,0.272583,0.074463,0.000000,-1.158537,0.792683
1548456828477,-0.994080,0.270447,0.073120,0.060976,-1.219512,0.670732
1548456828492,-0.994812,0.270386,0.071289,0.060976,-1.097561,0.670732
1548456828500,-0.997498,0.271790,0.069641,0.000000,-1.097561,0.670732
1548456828507,-0.998108,0.274353,0.070496,-0.060976,-1.158537,0.670732
1548456828523,-0.996887,0.271240,0.074219,-0.182927,-1.097561,0.670732
1548456828530,-0.996460,0.269958,0.075317,-0.243902,-0.914634,0.670732
1548456828538,-0.994446,0.270569,0.075806,0.000000,-1.097561,0.731707
1548456828552,-0.993958,0.273560,0.075317,0.060976,-1.036585,0.792683
1548456828560,-0.995056,0.270630,0.074402,0.182927,-0.975610,0.792683
