timestamp, accel_x, accel_y, accel_z, gyro_x, gyro_y, gyro_z
1549416540738,-0.200684,-0.837280,-0.550720,2.865854,-3.841464,-1.829268
1549416540753,-0.205078,-0.848572,-0.546509,2.317073,-4.207317,-1.890244
1549416540760,-0.204712,-0.844482,-0.536987,1.707317,-4.085366,-1.463415
1549416540768,-0.207397,-0.840332,-0.531555,1.158537,-3.963415,-1.036585
1549416540783,-0.209839,-0.836731,-0.528442,0.792683,-3.658537,-0.792683
1549416540790,-0.208008,-0.835693,-0.527100,0.731707,-2.926829,-0.487805
1549416540798,-0.207275,-0.835449,-0.527283,0.914634,-2.317073,-0.243902
1549416540813,-0.208252,-0.839050,-0.530884,1.158537,-1.585366,-0.121951
1549416540820,-0.208130,-0.842957,-0.536743,1.280488,-0.975610,-0.060976
1549416540828,-0.206177,-0.841248,-0.539734,1.280488,-0.426829,0.121951
1549416540843,-0.207764,-0.842346,-0.540527,0.975610,-0.121951,0.243902
1549416540858,-0.207153,-0.839661,-0.545410,0.609756,0.000000,0.304878
1549416540858,-0.205383,-0.834534,-0.548706,0.182927,0.121951,0.304878
1549416540873,-0.208557,-0.830872,-0.549561,-0.121951,0.243902,0.609756
1549416540895,-0.208435,-0.827820,-0.552429,-0.304878,0.121951,0.670732
1549416540896,-0.206421,-0.826294,-0.554626,-0.426829,-0.060976,0.548781
1549416540896,-0.205322,-0.826477,-0.555908,-0.304878,-0.121951,0.426829
1549416540910,-0.206787,-0.826660,-0.555054,-0.121951,-0.365854,0.304878
1549416540918,-0.204102,-0.828796,-0.553894,-0.121951,-0.670732,0.121951
1549416540933,-0.202026,-0.830994,-0.551147,-0.304878,-0.914634,-0.121951
1549416540948,-0.204224,-0.834412,-0.550720,-0.487805,-1.036585,-0.243902
1549416540948,-0.203369,-0.833679,-0.552246,-0.548781,-0.914634,-0.243902
1549416540963,-0.203918,-0.829834,-0.551758,-0.426829,-0.792683,-0.121951
1549416540970,-0.204285,-0.831116,-0.551819,-0.487805,-0.914634,0.121951
1549416540978,-0.201538,-0.831543,-0.550903,-0.670732,-0.914634,0.121951
1549416540993,-0.203918,-0.827271,-0.550232,-0.670732,-0.670732,0.304878
1549416541000,-0.204773,-0.827759,-0.547913,-0.426829,-0.548781,0.365854
1549416541008,-0.201538,-0.832092,-0.545166,-0.182927,-0.487805,0.487805
1549416541023,-0.201965,-0.831848,-0.547974,-0.060976,-0.304878,0.426829
1549416541030,-0.204529,-0.833557,-0.552612,0.121951,-0.121951,0.426829
1549416541038,-0.200378,-0.839661,-0.561462,0.426829,-0.121951,0.487805
1549416541053,-0.197021,-0.842041,-0.570251,0.548781,-0.121951,0.670732
1549416541060,-0.202332,-0.842407,-0.572266,0.670732,-0.792683,1.036585
1549416541068,-0.201111,-0.842834,-0.570496,0.121951,-1.890244,1.402439
1549416541083,-0.196289,-0.835327,-0.571655,-0.731707,-2.439024,1.646341
1549416541090,-0.197876,-0.828918,-0.568604,-1.097561,-3.048780,1.768293
1549416541098,-0.201416,-0.829651,-0.566101,-1.097561,-3.963415,1.707317
1549416541113,-0.199341,-0.833984,-0.569214,-0.731707,-4.573171,1.585366
1549416541120,-0.199585,-0.837708,-0.565002,-0.548781,-5.060976,1.463415
1549416541128,-0.202148,-0.839600,-0.562805,-0.914634,-5.731708,1.524390
1549416541143,-0.205444,-0.841003,-0.561890,-1.524390,-6.402439,1.707317
1549416541150,-0.207886,-0.845215,-0.567017,-2.195122,-6.768293,1.768293
1549416541158,-0.205444,-0.848328,-0.575623,-2.987805,-7.073171,1.890244
1549416541173,-0.203369,-0.844299,-0.581909,-3.109756,-7.560976,2.500000
1549416541180,-0.202332,-0.835449,-0.582214,-3.536585,-8.597561,3.231707
1549416541187,-0.202576,-0.829041,-0.579895,-4.207317,-9.634147,3.719512
1549416541203,-0.202759,-0.823303,-0.576599,-4.756098,-10.182927,3.536585
1549416541210,-0.209167,-0.821960,-0.574036,-4.817073,-10.792684,3.170732
1549416541218,-0.215027,-0.823547,-0.570679,-4.390244,-11.890244,2.682927
1549416541233,-0.216553,-0.821289,-0.565125,-4.329268,-12.743903,2.682927
1549416541240,-0.222656,-0.823486,-0.557678,-4.817073,-13.414635,2.743902
1549416541248,-0.225159,-0.827148,-0.553284,-5.487805,-13.963415,2.500000
1549416541263,-0.229919,-0.826416,-0.546265,-6.097561,-14.024390,2.256098
1549416541270,-0.233032,-0.822083,-0.548706,-6.402439,-13.841464,2.256098
1549416541278,-0.231201,-0.820923,-0.545837,-6.585366,-13.719513,2.439024
1549416541293,-0.233398,-0.821411,-0.543457,-6.402439,-13.292684,2.500000
1549416541300,-0.232788,-0.822815,-0.541138,-6.158537,-12.804878,2.378049
1549416541308,-0.234924,-0.818787,-0.542297,-5.792683,-12.500000,2.439024
1549416541323,-0.235352,-0.815979,-0.541260,-5.365854,-12.073171,2.682927
1549416541330,-0.240906,-0.819763,-0.536926,-4.634146,-11.463415,2.682927
1549416541338,-0.244995,-0.821777,-0.534851,-3.902439,-10.853659,2.560976
1549416541353,-0.246521,-0.820251,-0.534851,-3.048780,-10.000000,2.682927
1549416541360,-0.245361,-0.826233,-0.538086,-2.195122,-9.268292,3.170732
1549416541368,-0.244019,-0.830322,-0.541504,-2.134146,-8.719512,3.475610
1549416541383,-0.242493,-0.827759,-0.544739,-2.317073,-7.987805,3.780488
1549416541390,-0.245422,-0.820557,-0.542419,-2.439024,-7.378049,4.451220
1549416541398,-0.250793,-0.815125,-0.544434,-2.500000,-7.012195,5.000000
1549416541413,-0.249878,-0.814026,-0.549622,-2.500000,-6.646342,5.060976
1549416541420,-0.248596,-0.813293,-0.552856,-2.743902,-5.975610,4.878049
1549416541428,-0.246338,-0.814331,-0.558167,-2.256098,-5.792683,4.817073
1549416541443,-0.243469,-0.815857,-0.560913,-1.707317,-5.975610,5.060976
1549416541450,-0.243286,-0.820312,-0.558533,-1.585366,-6.219512,5.060976
1549416541458,-0.247498,-0.820557,-0.559448,-2.743902,-6.280488,4.756098
1549416541473,-0.247925,-0.810608,-0.563721,-4.024390,-6.280488,4.512195
1549416541480,-0.249390,-0.802490,-0.571106,-4.207317,-6.219512,4.451220
1549416541488,-0.252502,-0.808594,-0.572083,-3.536585,-6.524390,4.512195
1549416541504,-0.252380,-0.815613,-0.569214,-2.987805,-6.890244,4.451220
1549416541510,-0.253906,-0.814270,-0.572693,-2.926829,-7.256098,4.390244
1549416541518,-0.257019,-0.809570,-0.564209,-3.597561,-7.500000,4.451220
1549416541533,-0.263245,-0.811096,-0.561707,-4.268293,-7.743903,4.390244
1549416541540,-0.264221,-0.810486,-0.565552,-4.268293,-7.926829,4.268293
1549416541548,-0.264709,-0.804565,-0.568848,-3.841464,-7.682927,4.268293
1549416541563,-0.266479,-0.809937,-0.566162,-3.536585,-7.743903,4.329268
1549416541570,-0.265503,-0.813293,-0.567566,-3.597561,-7.865854,4.146341
1549416541578,-0.263611,-0.809814,-0.568604,-3.597561,-8.048780,3.841464
1549416541593,-0.267456,-0.806946,-0.565063,-3.597561,-8.170732,3.719512
1549416541600,-0.273865,-0.807373,-0.563110,-3.597561,-8.353659,3.841464
1549416541608,-0.273682,-0.811035,-0.563049,-3.292683,-8.292683,3.719512
1549416541623,-0.271912,-0.812744,-0.568787,-3.170732,-7.987805,3.780488
1549416541630,-0.272400,-0.808472,-0.566467,-3.292683,-8.048780,4.329268
1549416541638,-0.275085,-0.805786,-0.562561,-3.536585,-8.231708,5.000000
1549416541653,-0.275940,-0.804932,-0.558899,-3.780488,-8.353659,5.365854
1549416541660,-0.277405,-0.799500,-0.561279,-4.268293,-8.170732,5.487805
1549416541668,-0.278076,-0.800720,-0.563538,-4.634146,-7.865854,5.243903
1549416541683,-0.277466,-0.805847,-0.570740,-4.634146,-7.560976,5.121951
1549416541690,-0.278381,-0.809204,-0.572083,-4.146341,-7.621952,5.304878
1549416541698,-0.278442,-0.810791,-0.571167,-4.024390,-7.804878,5.731708
1549416541713,-0.280823,-0.806885,-0.572571,-4.024390,-7.743903,6.036585
1549416541720,-0.283569,-0.801514,-0.571045,-4.024390,-7.926829,6.219512
1549416541728,-0.287170,-0.803894,-0.567810,-4.085366,-8.048780,6.402439
1549416541743,-0.290649,-0.802979,-0.567078,-3.963415,-7.987805,6.463415
1549416541751,-0.290039,-0.801270,-0.569702,-3.109756,-8.170732,6.890244
1549416541758,-0.291748,-0.812744,-0.572205,-1.585366,-8.353659,7.865854
1549416541773,-0.289490,-0.814880,-0.575439,-1.280488,-8.414635,8.475610
1549416541781,-0.291992,-0.808289,-0.572388,-1.707317,-8.353659,8.719512
1549416541788,-0.296875,-0.804504,-0.571655,-2.621951,-8.658537,9.268292
1549416541803,-0.300354,-0.802185,-0.572937,-3.353659,-8.841464,9.634147
1549416541811,-0.300232,-0.803772,-0.571716,-3.658537,-8.658537,9.573171
1549416541818,-0.304871,-0.800842,-0.567383,-4.329268,-8.841464,9.817074
1549416541833,-0.308289,-0.798401,-0.565063,-4.756098,-8.963415,10.000000
1549416541840,-0.308899,-0.797791,-0.560181,-4.939024,-9.024390,10.243902
1549416541848,-0.311890,-0.799622,-0.560486,-5.243903,-8.719512,10.365854
1549416541863,-0.312805,-0.797058,-0.565063,-5.853659,-8.536586,10.121951
1549416541870,-0.314636,-0.798096,-0.569580,-6.280488,-8.414635,10.304878
1549416541878,-0.315918,-0.802979,-0.571228,-5.609756,-8.414635,11.036586
1549416541893,-0.319336,-0.798035,-0.576050,-4.939024,-8.597561,11.707317
1549416541900,-0.321777,-0.795532,-0.574219,-4.390244,-8.780488,12.378049
1549416541908,-0.322815,-0.803162,-0.572754,-3.963415,-8.841464,12.987805
1549416541923,-0.322998,-0.803040,-0.570374,-4.695122,-8.475610,12.987805
1549416541930,-0.325745,-0.795959,-0.573914,-5.914634,-8.231708,13.292684
1549416541938,-0.333252,-0.791870,-0.571838,-6.829268,-8.231708,13.719513
1549416541953,-0.334351,-0.794189,-0.571777,-6.951220,-8.231708,14.390244
1549416541960,-0.336914,-0.791382,-0.567444,-6.524390,-8.109756,15.060976
1549416541968,-0.341370,-0.793152,-0.565308,-6.158537,-8.109756,16.158537
1549416541983,-0.343445,-0.798401,-0.572693,-6.463415,-7.987805,16.707317
1549416541990,-0.346008,-0.791016,-0.576416,-7.865854,-7.439024,16.646341
1549416541998,-0.354797,-0.781555,-0.568054,-8.597561,-7.195122,16.890244
1549416542013,-0.360107,-0.782837,-0.568176,-7.378049,-7.560976,18.170732
1549416542020,-0.361145,-0.768860,-0.565796,-7.195122,-7.682927,19.207317
1549416542028,-0.361572,-0.771057,-0.567505,-4.695122,-6.951220,20.000000
1549416542043,-0.361206,-0.769836,-0.573425,-4.634146,-6.707317,20.609756
1549416542050,-0.367615,-0.752258,-0.564880,-6.463415,-6.219512,19.878050
1549416542058,-0.375183,-0.727844,-0.563354,-6.463415,-5.914634,19.390244
1549416542073,-0.375671,-0.714233,-0.561707,-6.524390,-5.914634,20.243902
1549416542080,-0.380188,-0.696655,-0.551880,-8.292683,-5.121951,18.658537
1549416542088,-0.387451,-0.673584,-0.542236,-7.560976,-4.390244,17.012196
1549416542103,-0.394775,-0.655823,-0.535950,-2.682927,-3.902439,17.134148
1549416542110,-0.395386,-0.665894,-0.530823,2.987805,-2.804878,16.524391
1549416542118,-0.395752,-0.677307,-0.529053,4.878049,-1.036585,13.475610
1549416542133,-0.399109,-0.660095,-0.533936,4.451220,0.914634,10.304878
1549416542140,-0.398193,-0.642395,-0.537476,4.146341,2.804878,8.292683
1549416542147,-0.398071,-0.628113,-0.534424,3.170732,4.146341,5.365854
1549416542173,-0.397034,-0.623474,-0.533569,3.963415,5.182927,1.951220
1549416542173,-0.394104,-0.621521,-0.541138,7.378049,6.219512,-1.036585
1549416542177,-0.390137,-0.622375,-0.550110,11.707317,7.682927,-3.841464
1549416542192,-0.385986,-0.632507,-0.544922,15.609756,9.085366,-7.134147
1549416542200,-0.384827,-0.649597,-0.548523,19.085367,10.121951,-10.304878
1549416542207,-0.380005,-0.674744,-0.558105,21.951220,10.792684,-13.109756
1549416542222,-0.367859,-0.704712,-0.566101,22.682928,11.707317,-15.914635
1549416542230,-0.361450,-0.735779,-0.578674,20.609756,12.439025,-19.329269
1549416542237,-0.352051,-0.770508,-0.581055,16.463415,12.560976,-23.475611
1549416542252,-0.345215,-0.783447,-0.588074,12.743903,12.317074,-25.426830
1549416542260,-0.339294,-0.781494,-0.594055,10.914635,11.829268,-25.304878
1549416542267,-0.330383,-0.782471,-0.599365,10.365854,11.158537,-25.000000
1549416542283,-0.321167,-0.783936,-0.605591,10.365854,10.548780,-25.182928
1549416542290,-0.313599,-0.788757,-0.616516,11.341464,9.695122,-25.243902
1549416542298,-0.309387,-0.804810,-0.622009,11.768293,7.865854,-25.182928
1549416542305,-0.305603,-0.820679,-0.625366,11.585366,5.548780,-25.609756
1549416542321,-0.302551,-0.830688,-0.624878,10.426829,3.231707,-25.365854
1549416542328,-0.306580,-0.834534,-0.629333,7.926829,0.609756,-24.756098
1549416542335,-0.308472,-0.836853,-0.627441,5.000000,-2.134146,-24.329269
1549416542350,-0.310852,-0.839600,-0.630432,2.804878,-4.329268,-23.719513
1549416542358,-0.308655,-0.835449,-0.636902,0.914634,-6.646342,-22.439024
1549416542373,-0.301392,-0.830261,-0.628723,-0.304878,-8.841464,-21.158537
1549416542381,-0.296875,-0.824585,-0.614319,-1.707317,-11.158537,-20.182928
1549416542388,-0.290833,-0.828796,-0.605652,-3.841464,-13.353659,-19.268293
1549416542395,-0.283020,-0.819153,-0.606018,-5.914634,-15.426829,-18.963415
1549416542411,-0.280151,-0.800659,-0.599609,-7.560976,-16.829269,-18.414635
1549416542418,-0.285645,-0.787781,-0.594299,-9.573171,-18.353659,-17.926830
1549416542425,-0.289124,-0.785278,-0.591736,-11.097561,-19.878050,-18.475611
1549416542440,-0.289001,-0.789612,-0.584656,-11.585366,-20.853659,-19.695122
1549416542448,-0.287720,-0.785156,-0.578552,-11.463415,-21.646341,-20.548780
1549416542455,-0.291016,-0.771790,-0.570496,-10.792684,-22.682928,-20.243902
1549416542470,-0.295471,-0.765808,-0.560425,-9.573171,-23.475611,-20.304878
1549416542478,-0.296387,-0.774902,-0.555359,-8.231708,-23.536587,-20.975611
1549416542485,-0.296936,-0.785278,-0.561401,-7.195122,-23.353659,-22.317074
1549416542500,-0.300049,-0.783875,-0.557312,-6.890244,-23.780489,-23.597561
1549416542508,-0.301758,-0.788818,-0.542358,-7.195122,-24.085367,-24.207317
1549416542515,-0.301453,-0.800049,-0.531250,-8.414635,-23.719513,-24.695122
1549416542530,-0.303467,-0.813232,-0.541687,-10.000000,-23.658537,-25.121952
1549416542538,-0.295105,-0.824036,-0.560303,-11.890244,-22.865854,-25.609756
1549416542545,-0.284668,-0.831299,-0.570679,-14.085366,-21.280489,-25.487806
1549416542560,-0.285217,-0.829407,-0.571167,-15.609756,-21.158537,-24.634148
1549416542575,-0.284119,-0.815308,-0.582092,-16.768293,-21.890244,-23.353659
1549416542576,-0.271362,-0.794189,-0.589722,-17.317074,-22.134148,-21.890244
1549416542590,-0.266663,-0.776917,-0.586792,-16.890244,-22.195122,-20.914635
1549416542598,-0.271973,-0.771240,-0.585693,-16.036585,-23.414635,-21.158537
1549416542605,-0.273132,-0.765991,-0.585449,-14.695123,-24.756098,-22.926830
1549416542621,-0.277039,-0.764038,-0.573792,-12.500000,-24.756098,-24.268293
1549416542628,-0.283203,-0.773315,-0.562073,-10.060976,-24.634148,-24.878050
1549416542636,-0.287170,-0.785828,-0.560852,-7.804878,-25.000000,-25.609756
1549416542650,-0.281921,-0.792786,-0.569275,-5.487805,-25.000000,-26.097561
1549416542658,-0.281616,-0.807251,-0.565369,-4.024390,-25.182928,-26.219513
1549416542665,-0.284485,-0.827515,-0.568665,-3.292683,-26.158537,-26.219513
1549416542680,-0.286011,-0.832764,-0.576782,-3.902439,-27.012196,-26.219513
1549416542688,-0.282043,-0.829346,-0.582642,-5.609756,-27.256098,-26.219513
1549416542695,-0.282654,-0.833679,-0.586731,-7.865854,-27.682928,-26.036587
1549416542710,-0.280457,-0.838745,-0.584778,-9.756098,-28.414635,-25.853659
1549416542718,-0.280884,-0.839355,-0.581421,-10.853659,-29.207317,-25.548780
1549416542725,-0.281738,-0.825439,-0.584473,-11.829268,-30.365854,-24.939026
1549416542740,-0.282776,-0.812073,-0.582214,-12.865854,-31.219513,-24.146341
1549416542748,-0.283997,-0.805237,-0.574524,-13.475610,-32.073170,-23.902439
1549416542755,-0.288330,-0.811462,-0.570923,-13.658537,-33.536587,-24.573172
1549416542770,-0.291260,-0.828613,-0.568970,-13.780488,-35.365856,-25.853659
1549416542778,-0.291199,-0.842834,-0.571716,-14.390244,-37.073170,-26.585367
1549416542785,-0.289246,-0.843506,-0.570679,-15.914635,-38.597561,-26.280489
1549416542800,-0.291565,-0.832886,-0.558594,-17.987804,-40.060978,-25.426830
1549416542808,-0.300415,-0.816650,-0.552002,-20.121952,-41.341465,-25.182928
1549416542815,-0.304077,-0.806213,-0.558899,-22.804878,-41.890244,-25.670732
1549416542830,-0.304443,-0.802246,-0.561523,-25.548780,-41.890244,-27.256098
1549416542838,-0.309937,-0.801575,-0.558594,-27.926830,-42.195122,-28.841465
1549416542845,-0.317932,-0.796448,-0.553284,-29.756098,-42.865856,-29.939026
1549416542860,-0.320496,-0.795776,-0.548523,-31.158537,-42.926830,-30.670732
1549416542868,-0.319824,-0.801819,-0.551575,-31.829269,-42.134148,-31.707317
1549416542875,-0.311096,-0.802490,-0.554138,-31.463415,-40.914635,-32.743904
1549416542891,-0.294495,-0.782166,-0.546387,-30.121952,-39.817074,-33.231709
1549416542898,-0.277649,-0.761658,-0.524719,-28.170732,-39.817074,-32.865856
1549416542905,-0.265564,-0.748718,-0.512878,-25.000000,-41.463417,-32.256100
1549416542928,-0.252808,-0.743896,-0.503052,-19.756098,-43.353661,-32.682926
1549416542928,-0.247681,-0.745361,-0.493408,-12.317074,-44.512196,-34.573170
1549416542935,-0.248657,-0.750671,-0.491760,-4.451220,-45.121952,-37.195122
1549416542950,-0.244934,-0.775818,-0.492310,3.231707,-45.365856,-40.000000
1549416542958,-0.235229,-0.800720,-0.498596,10.609756,-45.365856,-42.195122
1549416542965,-0.217285,-0.822754,-0.505188,17.439024,-46.158539,-43.292683
1549416542980,-0.205444,-0.842163,-0.516724,22.865854,-47.743904,-42.317074
1549416542988,-0.197205,-0.844482,-0.523560,26.463415,-49.329269,-40.365856
1549416542996,-0.190430,-0.832275,-0.520447,27.926830,-49.512196,-38.353661
1549416543011,-0.198120,-0.817261,-0.521484,26.646341,-50.060978,-37.378048
1549416543018,-0.203430,-0.806702,-0.525757,24.207317,-51.219513,-37.804878
1549416543026,-0.195618,-0.805420,-0.533691,22.134148,-51.158539,-38.292683
1549416543041,-0.182007,-0.819580,-0.537842,21.158537,-51.036587,-38.292683
1549416543048,-0.182129,-0.830750,-0.537354,21.768293,-52.682926,-37.256100
1549416543056,-0.179626,-0.835388,-0.523926,22.804878,-55.914635,-34.939026
1549416543070,-0.179565,-0.838928,-0.510559,22.865854,-58.719513,-32.378048
1549416543078,-0.177795,-0.841675,-0.508545,22.195122,-60.670734,-30.365854
1549416543086,-0.168579,-0.843079,-0.503052,21.036587,-62.073174,-29.268293
1549416543100,-0.160461,-0.842712,-0.490601,20.426830,-64.085365,-28.048780
1549416543108,-0.168335,-0.830688,-0.483459,20.853659,-67.865852,-26.402439
1549416543115,-0.168030,-0.773132,-0.474670,22.682928,-71.829269,-24.451220
1549416543130,-0.162659,-0.723572,-0.441772,26.341463,-74.451218,-21.829269
1549416543138,-0.145264,-0.721558,-0.423218,31.097561,-77.073174,-20.731709
1549416543145,-0.127808,-0.733826,-0.413940,38.109756,-80.182930,-21.707317
1549416543160,-0.115967,-0.750854,-0.389099,45.853661,-83.292686,-22.621952
1549416543168,-0.106140,-0.755310,-0.355957,51.768295,-86.890244,-22.256098
1549416543176,-0.093567,-0.740479,-0.332764,56.890244,-90.243904,-19.817074
1549416543190,-0.088806,-0.704590,-0.324341,63.231709,-93.048782,-16.707317
1549416543198,-0.096863,-0.674927,-0.299866,72.439026,-94.634148,-15.182927
1549416543205,-0.132812,-0.686523,-0.275269,84.390244,-95.060974,-16.036585
1549416543220,-0.181213,-0.746399,-0.274902,96.524391,-96.219513,-19.817074
1549416543228,-0.202515,-0.813049,-0.287659,103.963417,-95.609756,-24.939026
1549416543235,-0.214966,-0.866638,-0.301880,102.865852,-92.743904,-29.756098
1549416543250,-0.238220,-0.888062,-0.320068,94.573174,-90.365852,-33.780487
1549416543258,-0.267273,-0.903320,-0.315735,84.451225,-88.475609,-36.219513
1549416543265,-0.292358,-0.928955,-0.284302,74.695122,-87.256096,-38.475609
1549416543280,-0.324646,-0.950073,-0.276306,67.073174,-87.012199,-41.951221
1549416543288,-0.358215,-0.950500,-0.267761,61.646343,-85.548782,-45.792683
1549416543295,-0.386536,-0.951355,-0.245422,56.158539,-82.012199,-49.329269
1549416543310,-0.410706,-0.967102,-0.228943,50.182926,-78.780487,-52.621952
1549416543318,-0.421631,-0.985718,-0.237122,45.000000,-75.548782,-55.426830
1549416543325,-0.411072,-1.019104,-0.258789,40.243904,-70.853661,-57.012196
1549416543340,-0.388367,-1.065735,-0.262451,34.878048,-66.158539,-56.890244
1549416543348,-0.384460,-1.089661,-0.253357,29.817074,-63.292683,-54.939026
1549416543355,-0.388916,-1.071899,-0.239319,26.707317,-62.256100,-51.707317
1549416543370,-0.385620,-1.046997,-0.218018,23.292683,-61.341465,-47.743904
1549416543378,-0.377258,-1.040527,-0.220825,17.682928,-59.207317,-44.207317
1549416543393,-0.402771,-1.040100,-0.251648,11.646341,-54.573174,-41.463417
1549416543400,-0.483521,-1.047424,-0.289429,7.804878,-48.841465,-39.817074
1549416543408,-0.566772,-1.071350,-0.301880,7.256098,-41.219513,-39.634148
1549416543415,-0.610779,-1.101990,-0.309326,8.109756,-30.487806,-40.609756
1549416543430,-0.611389,-1.128296,-0.295898,6.707317,-19.817074,-40.426830
1549416543438,-0.566223,-1.138794,-0.283264,3.048780,-13.109756,-37.256100
1549416543445,-0.478699,-1.142761,-0.258789,-2.378049,-9.512196,-30.304878
1549416543460,-0.378418,-1.147339,-0.221497,-8.048780,-8.597561,-22.012196
1549416543468,-0.300659,-1.130676,-0.180786,-12.560976,-10.853659,-14.146341
1549416543475,-0.252686,-1.079773,-0.133484,-16.951220,-14.695123,-7.317073
1549416543490,-0.220703,-1.012573,-0.086792,-22.560976,-17.804878,-2.621951
1549416543498,-0.191772,-0.956787,-0.068176,-27.317074,-19.329269,-0.487805
1549416543505,-0.160522,-0.934204,-0.066101,-28.170732,-18.353659,-0.731707
1549416543520,-0.145447,-0.940735,-0.076416,-22.378050,-16.707317,-1.768293
1549416543528,-0.152710,-0.966431,-0.097229,-11.402439,-16.890244,-2.378049
1549416543535,-0.172363,-0.988831,-0.101868,-0.670732,-18.414635,-2.012195
1549416543550,-0.189636,-0.998779,-0.098328,3.597561,-20.121952,-1.829268
1549416543558,-0.197571,-0.988342,-0.106079,0.121951,-20.853659,-2.926829
1549416543565,-0.210144,-0.972656,-0.115784,-6.036585,-20.060976,-4.512195
1549416543580,-0.229919,-0.971863,-0.119934,-10.121951,-19.207317,-6.646342
1549416543595,-0.243408,-0.987549,-0.131042,-11.219512,-18.597561,-8.536586
1549416543603,-0.247986,-1.006348,-0.142761,-10.609756,-17.256098,-9.634147
1549416543610,-0.247681,-1.011353,-0.151062,-9.878049,-15.365854,-10.182927
1549416543618,-0.252319,-0.996643,-0.159424,-10.365854,-13.841464,-9.878049
1549416543625,-0.245178,-0.978882,-0.160095,-11.524390,-12.317074,-9.146341
1549416543641,-0.234314,-0.972900,-0.153259,-12.987805,-10.487805,-8.902439
1549416543648,-0.224487,-0.967773,-0.150818,-13.780488,-8.780488,-9.329268
1549416543656,-0.213074,-0.947693,-0.150635,-13.475610,-7.317073,-9.512196
1549416543671,-0.193848,-0.930603,-0.158936,-12.439025,-5.365854,-9.573171
1549416543678,-0.174438,-0.935425,-0.166565,-10.548780,-3.475610,-10.304878
1549416543686,-0.165222,-0.952637,-0.176086,-7.317073,-2.560976,-11.707317
1549416543701,-0.163086,-0.959412,-0.182861,-3.536585,-2.682927,-12.804878
1549416543708,-0.169556,-0.956238,-0.178223,-0.548781,-2.926829,-12.804878
1549416543715,-0.181091,-0.952087,-0.181152,1.280488,-3.048780,-12.865854
1549416543730,-0.181519,-0.928528,-0.196716,2.500000,-2.195122,-14.024390
1549416543738,-0.176331,-0.917847,-0.204590,3.902439,-0.426829,-15.853659
1549416543745,-0.177185,-0.949524,-0.208496,4.573171,0.182927,-18.170732
1549416543760,-0.179382,-0.982483,-0.215637,5.670732,-0.609756,-19.878050
1549416543768,-0.182678,-1.000183,-0.210449,6.646342,-2.012195,-19.878050
1549416543775,-0.195557,-0.996887,-0.199219,5.426829,-3.414634,-18.353659
1549416543790,-0.202820,-0.980042,-0.190552,2.926829,-3.780488,-16.768293
1549416543798,-0.207092,-0.960327,-0.192810,0.670732,-2.682927,-16.707317
1549416543805,-0.212280,-0.947449,-0.185669,-0.365854,-1.768293,-17.621952
1549416543820,-0.213745,-0.940552,-0.173828,0.182927,-1.280488,-18.414635
1549416543828,-0.186462,-0.997314,-0.177368,2.256098,-0.853659,-18.536585
1549416543835,-0.168396,-1.113525,-0.177673,4.878049,0.304878,-17.804878
1549416543850,-0.172119,-1.254150,-0.183228,6.341464,-1.036585,-14.939025
1549416543858,-0.144409,-1.329407,-0.209412,5.060976,-0.060976,-9.573171
1549416543865,-0.144226,-1.220520,-0.229614,1.524390,3.414634,-2.682927
1549416543880,-0.176025,-1.016907,-0.210815,-4.268293,3.353659,5.182927
1549416543888,-0.187439,-0.897827,-0.189453,-7.500000,2.195122,11.524390
1549416543895,-0.193542,-0.893738,-0.181274,-2.378049,2.682927,11.829268
1549416543910,-0.189331,-0.943420,-0.166138,6.158537,2.560976,8.658537
1549416543918,-0.160767,-0.973206,-0.167725,12.317074,3.597561,7.256098
1549416543925,-0.142395,-0.966125,-0.176392,15.060976,5.609756,8.597561
1549416543940,-0.136230,-0.950012,-0.180786,13.902439,6.463415,10.060976
1549416543948,-0.134766,-0.965881,-0.198486,11.280488,7.195122,9.756098
1549416543955,-0.143311,-1.000671,-0.220093,9.146341,8.048780,6.524390
1549416543970,-0.153809,-1.020081,-0.231934,7.865854,8.475610,4.146341
1549416543978,-0.154480,-1.019653,-0.229675,6.890244,8.292683,3.780488
1549416543985,-0.163330,-0.999268,-0.220703,5.548780,7.256098,4.268293
1549416544000,-0.175537,-0.980469,-0.203369,3.414634,6.219512,4.268293
1549416544008,-0.177063,-0.976440,-0.200500,-0.304878,6.036585,3.170732
1549416544015,-0.170288,-0.985046,-0.202698,-3.475610,6.524390,1.646341
1549416544030,-0.167664,-1.000061,-0.205994,-5.365854,6.524390,0.365854
1549416544038,-0.172424,-1.006592,-0.208618,-5.182927,5.731708,-0.121951
1549416544045,-0.169983,-0.992676,-0.205444,-3.536585,4.695122,0.731707
1549416544062,-0.166992,-0.973450,-0.197021,-1.829268,3.719512,2.378049
1549416544069,-0.167908,-0.956848,-0.195374,-0.426829,2.560976,2.560976
1549416544075,-0.168335,-0.955688,-0.190186,0.975610,2.500000,1.646341
1549416544090,-0.162048,-0.973999,-0.189514,1.890244,2.439024,0.609756
1549416544098,-0.168518,-1.008728,-0.195435,1.768293,2.865854,-0.792683
1549416544105,-0.167236,-1.020020,-0.194580,1.280488,3.109756,-1.524390
1549416544120,-0.164917,-1.014587,-0.188782,0.304878,2.865854,0.121951
1549416544128,-0.165833,-0.998657,-0.186340,-1.402439,2.134146,1.768293
1549416544135,-0.162476,-0.973999,-0.186584,-2.804878,2.439024,2.195122
1549416544150,-0.175476,-0.964111,-0.183167,-3.902439,2.865854,1.097561
1549416544158,-0.190369,-0.970764,-0.186218,-3.719512,3.170732,-0.975610
1549416544166,-0.195435,-0.983215,-0.191284,-2.804878,4.085366,-1.890244
1549416544180,-0.188660,-0.983765,-0.188110,-1.219512,3.963415,-1.585366
1549416544187,-0.184570,-0.991516,-0.187012,-0.060976,3.780488,-0.792683
1549416544195,-0.177368,-0.992004,-0.190430,-0.121951,4.024390,-0.670732
1549416544210,-0.184448,-0.985474,-0.194153,-0.121951,4.390244,-0.853659
1549416544217,-0.171692,-0.973572,-0.194946,0.243902,4.390244,-0.609756
1549416544226,-0.181458,-0.977478,-0.192871,0.731707,4.085366,-0.121951
1549416544240,-0.175171,-0.974548,-0.197815,0.853659,3.902439,-0.670732
1549416544247,-0.170898,-0.980530,-0.197449,2.317073,4.268293,-0.670732
1549416544255,-0.167847,-0.985596,-0.200562,3.475610,3.780488,-0.670732
1549416544270,-0.175537,-0.990051,-0.197998,4.329268,3.719512,-0.304878
1549416544277,-0.172241,-0.994934,-0.197815,4.573171,3.292683,-0.121951
1549416544285,-0.159180,-0.994995,-0.197144,4.512195,3.048780,0.243902
1549416544300,-0.164978,-0.994812,-0.195007,4.451220,2.621951,0.609756
1549416544315,-0.158691,-0.983887,-0.193420,4.085366,2.012195,0.365854
1549416544315,-0.146912,-0.974854,-0.192749,3.292683,2.256098,0.060976
1549416544330,-0.159546,-0.989807,-0.190979,2.865854,2.378049,-0.548781
1549416544338,-0.158203,-0.994446,-0.195923,2.865854,2.317073,-1.829268
1549416544345,-0.148560,-0.994019,-0.191406,3.597561,2.987805,-2.012195
1549416544360,-0.149231,-0.996033,-0.190491,3.719512,2.804878,-1.768293
1549416544368,-0.138611,-0.995667,-0.192200,3.658537,2.621951,-1.280488
1549416544376,-0.149353,-0.994690,-0.191833,3.109756,3.231707,-1.585366
1549416544390,-0.146057,-0.977905,-0.189087,2.560976,3.658537,-1.646341
1549416544398,-0.152344,-0.977173,-0.183838,2.073171,3.475610,-1.036585
1549416544405,-0.165833,-0.989441,-0.187378,1.097561,3.780488,-2.317073
1549416544420,-0.159302,-0.984497,-0.185913,1.036585,4.451220,-2.865854
1549416544428,-0.149658,-0.975525,-0.177612,0.670732,3.963415,-2.012195
1549416544436,-0.155823,-0.980591,-0.184265,0.121951,3.902439,-2.560976
1549416544450,-0.163391,-0.989502,-0.192383,0.182927,5.000000,-3.780488
1549416544458,-0.160461,-0.984619,-0.190491,1.646341,4.695122,-3.841464
1549416544465,-0.154846,-0.977539,-0.180481,2.682927,4.085366,-3.109756
1549416544480,-0.153992,-0.960938,-0.172058,3.292683,4.024390,-4.268293
1549416544488,-0.172302,-0.961975,-0.162109,4.207317,3.719512,-5.853659
1549416544495,-0.182739,-0.981567,-0.169922,4.817073,2.621951,-8.414635
1549416544518,-0.170044,-1.007019,-0.171814,6.646342,2.012195,-12.195122
1549416544518,-0.151001,-1.024963,-0.174438,8.353659,1.341463,-15.365854
1549416544526,-0.138123,-1.021912,-0.174622,9.451220,0.731707,-17.621952
1549416544540,-0.093445,-0.980164,-0.181274,9.390244,0.243902,-16.524391
1549416544548,-0.093628,-0.965820,-0.184326,8.719512,0.426829,-14.634147
1549416544555,-0.100342,-0.949463,-0.188171,8.353659,2.012195,-13.170732
1549416544570,-0.128845,-0.953613,-0.183655,8.536586,2.743902,-9.756098
1549416544578,-0.144470,-0.973328,-0.182434,8.414635,2.073171,-6.829268
1549416544585,-0.143921,-0.998840,-0.180115,7.378049,3.719512,-4.634146
1549416544600,-0.137756,-1.012634,-0.180725,5.609756,4.756098,-3.841464
1549416544608,-0.136169,-1.020142,-0.182861,3.963415,5.548780,-3.597561
1549416544615,-0.140686,-1.008057,-0.177002,2.743902,5.914634,-3.414634
1549416544630,-0.149475,-0.985352,-0.173584,1.463415,5.731708,-2.560976
1549416544638,-0.148560,-0.977295,-0.171631,1.036585,5.243903,-2.134146
1549416544646,-0.144592,-0.973877,-0.167053,1.097561,4.756098,-2.073171
1549416544668,-0.118225,-0.966003,-0.155151,2.073171,4.207317,-1.524390
1549416544668,-0.114807,-0.995239,-0.143616,3.414634,3.170732,-1.158537
1549416544675,-0.110046,-1.018066,-0.152954,4.268293,2.682927,-1.219512
1549416544690,-0.117859,-1.015198,-0.155396,3.597561,2.073171,0.548781
1549416544705,-0.130188,-1.009705,-0.163757,1.768293,0.487805,2.256098
1549416544706,-0.132568,-0.989502,-0.167786,0.304878,-0.182927,3.841464
1549416544720,-0.138611,-0.972351,-0.167114,-0.487805,-1.585366,5.182927
1549416544728,-0.130127,-0.967896,-0.162903,-0.487805,-2.439024,5.975610
1549416544735,-0.127014,-0.979736,-0.154236,0.487805,-2.560976,6.524390
1549416544751,-0.125793,-0.991516,-0.151489,1.890244,-3.475610,7.500000
1549416544758,-0.127625,-0.999939,-0.153015,2.500000,-4.024390,8.963415
1549416544765,-0.126404,-1.002380,-0.158936,1.890244,-3.902439,10.304878
1549416544780,-0.128601,-0.989685,-0.159546,0.792683,-3.658537,11.524390
1549416544788,-0.138855,-0.981140,-0.160034,0.182927,-3.231707,12.134147
1549416544797,-0.146606,-0.978699,-0.164001,0.000000,-2.987805,11.829268
1549416544810,-0.138550,-0.981506,-0.171997,-0.243902,-2.865854,10.975610
1549416544818,-0.143250,-0.989319,-0.179810,-0.731707,-2.500000,9.756098
1549416544825,-0.143433,-0.998047,-0.182922,-1.707317,-2.804878,9.146341
1549416544840,-0.139771,-0.992249,-0.184204,-3.963415,-3.902439,9.146341
1549416544848,-0.139771,-0.985229,-0.180603,-5.792683,-4.878049,9.451220
1549416544855,-0.136353,-0.984375,-0.169373,-6.646342,-5.731708,9.878049
1549416544870,-0.138550,-0.982178,-0.160645,-6.768293,-7.195122,10.060976
1549416544878,-0.135986,-0.981934,-0.156250,-6.341464,-8.231708,10.365854
1549416544885,-0.137817,-0.984375,-0.149109,-5.914634,-8.658537,10.853659
1549416544900,-0.135925,-0.990417,-0.145935,-5.182927,-9.207317,11.341464
1549416544908,-0.130737,-0.995605,-0.145630,-4.268293,-9.695122,11.768293
1549416544916,-0.137207,-0.998230,-0.143311,-3.170732,-9.939025,12.073171
1549416544931,-0.145508,-0.996155,-0.146545,-2.256098,-9.695122,12.256098
1549416544938,-0.162476,-0.995300,-0.154846,-0.975610,-9.329268,12.012196
1549416544946,-0.170410,-0.985291,-0.164246,-0.426829,-8.780488,11.402439
1549416544961,-0.179443,-0.979065,-0.174194,0.365854,-7.682927,10.365854
1549416544968,-0.193115,-0.983643,-0.191040,0.792683,-7.134147,8.780488
1549416544975,-0.198792,-0.993591,-0.204102,0.060976,-5.975610,7.439024
1549416544990,-0.203796,-1.015808,-0.206116,0.060976,-4.756098,7.317073
1549416544998,-0.203369,-1.015198,-0.201050,0.487805,-3.719512,8.353659
1549416545005,-0.201538,-0.984314,-0.185974,2.134146,-2.560976,9.268292
1549416545020,-0.201416,-0.953918,-0.169373,3.597561,-0.792683,8.963415
1549416545028,-0.192139,-0.951660,-0.163635,5.182927,0.670732,7.195122
1549416545035,-0.177551,-0.967224,-0.169373,6.341464,2.256098,4.817073
1549416545050,-0.172791,-0.984619,-0.179077,6.158537,2.865854,3.109756
1549416545058,-0.174316,-0.996399,-0.186157,5.365854,2.500000,3.048780
1549416545073,-0.180969,-1.001221,-0.183167,4.085366,1.585366,4.390244
1549416545080,-0.189392,-0.992981,-0.178833,2.621951,0.304878,5.731708
1549416545088,-0.195923,-0.977722,-0.179260,1.951220,-0.670732,7.012195
1549416545095,-0.201111,-0.978333,-0.175537,1.829268,-1.158537,7.743903
1549416545110,-0.201416,-0.983398,-0.169128,1.524390,-1.829268,7.926829
1549416545118,-0.193909,-0.984497,-0.168640,0.487805,-2.621951,7.804878
1549416545125,-0.190857,-0.986633,-0.165405,-2.073171,-3.658537,7.743903
1549416545140,-0.186707,-0.984619,-0.171387,-4.634146,-4.939024,7.743903
1549416545148,-0.194153,-0.984619,-0.168701,-5.914634,-6.219512,8.048780
1549416545155,-0.193542,-0.988464,-0.167175,-6.524390,-8.170732,9.329268
1549416545170,-0.195618,-0.993652,-0.167053,-6.951220,-8.841464,10.121951
1549416545178,-0.191345,-0.988037,-0.163086,-6.951220,-10.000000,11.158537
1549416545185,-0.184814,-0.989502,-0.154419,-6.402439,-10.670732,12.073171
1549416545200,-0.171265,-0.990723,-0.145447,-5.000000,-11.158537,11.646341
1549416545208,-0.168701,-0.981506,-0.132874,-2.682927,-10.853659,10.426829
1549416545215,-0.163818,-0.978394,-0.146484,0.182927,-10.914635,8.536586
1549416545230,-0.163208,-0.983032,-0.169434,4.207317,-9.573171,5.975610
1549416545238,-0.168884,-1.030090,-0.176575,9.329268,-7.500000,3.170732
1549416545245,-0.169678,-1.056946,-0.191833,13.536586,-6.097561,1.646341
1549416545261,-0.166077,-1.033875,-0.183777,15.975610,-6.585366,3.292683
1549416545268,-0.167053,-0.999084,-0.183899,14.573171,-8.292683,6.524390
1549416545276,-0.173279,-1.004089,-0.183472,9.573171,-9.085366,7.865854
1549416545290,-0.185486,-1.018921,-0.184937,5.060976,-8.841464,7.926829
1549416545298,-0.189880,-0.988525,-0.203674,3.292683,-9.085366,8.658537
1549416545305,-0.189636,-0.949158,-0.217773,2.012195,-9.268292,10.426829
1549416545320,-0.190918,-0.936707,-0.224548,0.975610,-8.597561,10.609756
1549416545328,-0.210327,-0.960754,-0.239441,2.500000,-8.414635,9.024390
1549416545335,-0.230530,-0.986816,-0.248901,5.121951,-8.292683,5.548780
1549416545350,-0.246277,-0.989197,-0.240601,5.792683,-9.024390,2.439024
1549416545358,-0.262451,-0.973877,-0.223145,3.841464,-10.975610,2.073171
1549416545365,-0.265259,-0.954956,-0.215271,1.402439,-12.682927,2.500000
1549416545380,-0.263000,-0.939819,-0.208069,-0.792683,-13.048780,1.707317
1549416545388,-0.259399,-0.928162,-0.205139,-1.829268,-14.329268,0.182927
1549416545395,-0.252625,-0.915955,-0.210205,-1.768293,-16.280489,-1.524390
1549416545410,-0.242554,-0.912109,-0.204285,-0.853659,-18.353659,-2.743902
1549416545425,-0.238159,-0.934387,-0.187012,0.121951,-21.280489,-3.536585
1549416545426,-0.235962,-0.954895,-0.173767,0.548781,-25.121952,-4.634146
1549416545440,-0.232910,-0.962769,-0.165161,-0.426829,-27.926830,-5.670732
1549416545448,-0.230591,-0.967041,-0.152466,-2.987805,-29.085367,-6.524390
1549416545455,-0.231018,-0.972168,-0.133118,-5.060976,-29.695122,-6.890244
1549416545470,-0.237061,-0.986206,-0.119873,-5.975610,-30.365854,-7.195122
1549416545478,-0.239624,-0.999146,-0.117310,-5.853659,-29.939026,-7.439024
1549416545485,-0.230713,-1.001648,-0.114563,-5.365854,-27.987806,-7.195122
1549416545500,-0.225830,-0.993347,-0.107300,-4.634146,-26.341463,-6.219512
1549416545508,-0.223083,-0.984436,-0.102356,-3.841464,-25.487806,-5.243903
1549416545515,-0.225098,-0.972473,-0.093994,-3.414634,-24.390244,-4.878049
1549416545530,-0.230896,-0.967773,-0.086548,-3.292683,-22.682928,-5.365854
1549416545538,-0.236694,-0.964294,-0.080322,-3.353659,-20.670732,-6.158537
1549416545546,-0.241943,-0.959961,-0.074158,-2.804878,-18.414635,-6.463415
1549416545561,-0.246887,-0.958069,-0.066772,-1.524390,-16.219513,-6.463415
1549416545568,-0.248474,-0.969299,-0.060608,-0.060976,-13.963415,-6.341464
1549416545576,-0.245544,-0.985413,-0.067261,1.402439,-11.402439,-6.707317
1549416545591,-0.245544,-0.995483,-0.076721,2.865854,-8.658537,-7.012195
1549416545598,-0.242188,-0.988464,-0.082031,4.695122,-6.097561,-6.768293
1549416545606,-0.246277,-0.987610,-0.119751,6.280488,-4.207317,-6.036585
1549416545621,-0.245239,-1.011230,-0.135620,7.256098,-2.500000,-5.426829
1549416545628,-0.252625,-1.039246,-0.119507,9.024390,-0.243902,-5.548780
1549416545636,-0.244263,-1.038818,-0.119568,8.780488,-0.365854,-5.304878
1549416545651,-0.216797,-0.995178,-0.100037,5.182927,-0.487805,-2.500000
1549416545665,-0.200989,-0.960571,-0.066040,-0.182927,0.365854,0.304878
1549416545666,-0.189087,-0.950562,-0.079651,-4.268293,1.219512,0.426829
1549416545681,-0.171326,-0.974121,-0.115845,-6.158537,4.390244,-1.890244
1549416545688,-0.166138,-0.996155,-0.142761,-5.731708,9.024390,-4.268293
1549416545695,-0.181274,-1.002319,-0.160645,-2.621951,10.670732,-3.780488
1549416545710,-0.197021,-1.007141,-0.172607,0.975610,9.512196,-1.463415
1549416545718,-0.199402,-1.004822,-0.185669,2.500000,8.231708,0.182927
1549416545725,-0.200134,-1.000061,-0.191223,1.768293,7.804878,0.487805
1549416545740,-0.199036,-0.994080,-0.189453,-0.914634,6.646342,0.060976
1549416545748,-0.204895,-0.986694,-0.186584,-3.963415,5.304878,-0.182927
1549416545755,-0.213013,-0.981140,-0.181213,-5.914634,4.695122,-0.487805
1549416545770,-0.221802,-0.988770,-0.178040,-6.341464,4.329268,-0.914634
1549416545778,-0.230530,-0.996094,-0.165833,-5.792683,3.475610,-1.036585
1549416545785,-0.231323,-0.995361,-0.151184,-4.817073,2.134146,-0.426829
1549416545801,-0.225281,-0.990845,-0.144287,-3.658537,1.280488,0.426829
1549416545808,-0.216858,-0.984131,-0.146851,-2.743902,0.914634,1.097561
1549416545816,-0.211609,-0.980774,-0.141418,-1.829268,0.548781,1.158537
1549416545830,-0.211670,-0.982605,-0.142151,-1.097561,0.000000,1.036585
1549416545838,-0.211365,-0.985107,-0.143860,-0.914634,-0.243902,0.853659
1549416545853,-0.210022,-0.989136,-0.151367,-1.402439,0.000000,0.609756
1549416545860,-0.207764,-0.991638,-0.155029,-2.378049,0.487805,0.487805
1549416545868,-0.207153,-0.992126,-0.157654,-3.170732,0.426829,0.426829
1549416545875,-0.205994,-0.991333,-0.161011,-3.536585,0.182927,0.365854
1549416545890,-0.206299,-0.990356,-0.163513,-3.170732,0.000000,0.365854
1549416545898,-0.208252,-0.986389,-0.164001,-2.560976,-0.121951,0.304878
1549416545905,-0.210876,-0.983765,-0.164062,-2.012195,-0.365854,0.060976
1549416545920,-0.206055,-0.982666,-0.168640,-1.341463,-0.548781,-0.304878
1549416545928,-0.205933,-0.982239,-0.171936,-0.670732,-0.792683,-0.487805
1549416545935,-0.204834,-0.980225,-0.170715,0.121951,-0.975610,-0.548781
1549416545950,-0.202454,-0.979980,-0.165527,0.609756,-1.219512,-0.487805
1549416545958,-0.201050,-0.983215,-0.164490,0.487805,-1.402439,-0.487805
1549416545965,-0.202148,-0.981873,-0.161377,0.304878,-1.341463,-0.731707
1549416545980,-0.205444,-0.978577,-0.157898,0.304878,-1.524390,-0.975610
1549416545988,-0.208069,-0.978455,-0.158752,0.670732,-1.768293,-1.036585
1549416545995,-0.210022,-0.976929,-0.157837,0.853659,-1.646341,-1.158537
1549416546010,-0.210144,-0.977600,-0.153503,1.158537,-1.707317,-1.280488
1549416546018,-0.210144,-0.981995,-0.154053,1.524390,-1.646341,-1.097561
1549416546025,-0.210510,-0.982239,-0.153320,1.646341,-1.280488,-0.487805
1549416546040,-0.210632,-0.979675,-0.152771,1.280488,-0.975610,-0.121951
1549416546048,-0.211731,-0.980042,-0.158264,0.792683,-0.731707,0.121951
1549416546055,-0.211182,-0.979919,-0.163269,0.121951,-0.304878,0.609756
1549416546070,-0.212280,-0.982300,-0.163269,-0.304878,-0.243902,0.853659
1549416546078,-0.210205,-0.974487,-0.161865,-0.426829,-0.487805,1.158537
1549416546085,-0.210205,-0.960327,-0.159058,-0.670732,-0.609756,1.585366
1549416546101,-0.211365,-0.965454,-0.151367,-1.097561,-0.670732,1.463415
1549416546108,-0.210938,-0.994263,-0.157104,-1.219512,-0.121951,0.731707
1549416546115,-0.210632,-1.014771,-0.162170,-0.853659,0.792683,0.060976
1549416546130,-0.215393,-1.005005,-0.158997,-0.914634,0.853659,0.609756
1549416546138,-0.219849,-0.975769,-0.148682,-1.524390,-0.243902,1.585366
1549416546145,-0.217163,-0.957092,-0.144958,-2.439024,-0.609756,1.768293
1549416546160,-0.214355,-0.967285,-0.145508,-2.439024,-0.121951,0.853659
1549416546168,-0.212341,-0.986206,-0.151855,-1.585366,0.304878,-0.182927
1549416546175,-0.209839,-0.995789,-0.157227,-0.853659,0.304878,-0.426829
1549416546190,-0.207458,-0.994690,-0.161255,-1.097561,0.243902,0.182927
1549416546198,-0.209106,-0.990723,-0.155945,-2.134146,0.243902,0.670732
1549416546206,-0.207153,-0.985291,-0.156311,-3.414634,0.243902,0.731707
1549416546221,-0.207886,-0.975830,-0.153015,-4.329268,0.487805,0.548781
1549416546228,-0.211060,-0.972900,-0.156006,-4.756098,0.792683,0.487805
1549416546236,-0.212341,-0.978638,-0.157349,-4.146341,1.280488,0.243902
1549416546258,-0.209229,-0.992371,-0.159790,-3.170732,2.012195,-0.243902
1549416546258,-0.204346,-1.003540,-0.152100,-2.926829,2.560976,-0.548781
1549416546266,-0.202637,-1.001831,-0.147217,-3.414634,2.682927,-0.304878
1549416546280,-0.204529,-0.980713,-0.146179,-4.146341,2.743902,0.426829
1549416546288,-0.210205,-0.966614,-0.141968,-3.719512,3.231707,1.036585
1549416546295,-0.212158,-0.969055,-0.147888,-2.256098,4.207317,0.731707
1549416546310,-0.209534,-0.981934,-0.150513,-0.426829,5.853659,0.243902
1549416546318,-0.209106,-0.995239,-0.138306,0.548781,6.768293,0.121951
1549416546325,-0.209106,-1.000244,-0.128235,-0.365854,6.768293,0.426829
1549416546340,-0.203613,-0.992493,-0.132019,-2.195122,7.500000,1.158537
1549416546348,-0.202759,-0.980896,-0.138123,-2.682927,8.902439,1.707317
1549416546355,-0.213196,-0.982300,-0.136719,-2.134146,10.060976,1.768293
1549416546370,-0.218140,-0.986145,-0.135742,-0.853659,11.097561,1.524390
1549416546378,-0.218445,-0.987244,-0.135254,0.731707,12.682927,1.524390
1549416546386,-0.217285,-0.991394,-0.137634,1.768293,14.390244,1.829268
1549416546400,-0.213135,-0.995178,-0.134705,1.890244,16.097561,2.317073
1549416546408,-0.213684,-0.988831,-0.131104,1.463415,17.865854,2.560976
1549416546415,-0.210938,-0.986694,-0.134094,1.097561,19.573172,2.439024
1549416546431,-0.207397,-0.986877,-0.139954,1.097561,21.158537,2.195122
1549416546438,-0.208435,-0.981384,-0.142029,1.951220,22.865854,2.012195
1549416546445,-0.210449,-0.982117,-0.140503,3.475610,23.902439,2.134146
1549416546460,-0.212708,-0.985962,-0.136658,5.000000,24.451220,2.256098
1549416546468,-0.215027,-0.985168,-0.131226,6.097561,25.609756,2.317073
1549416546483,-0.215942,-0.982422,-0.116577,6.646342,27.012196,2.560976
1549416546490,-0.217834,-0.979126,-0.111572,6.890244,28.536587,2.804878
1549416546498,-0.217102,-0.979675,-0.114075,7.439024,30.426830,2.987805
1549416546505,-0.217224,-0.979858,-0.117737,8.597561,32.926830,3.170732
1549416546520,-0.219299,-0.979004,-0.125183,10.060976,35.304878,3.231707
1549416546528,-0.220581,-0.976746,-0.130859,10.853659,36.829269,3.475610
1549416546535,-0.212158,-0.969421,-0.136108,11.524390,38.292683,3.841464
1549416546550,-0.206299,-0.972717,-0.145264,12.073171,39.451221,4.146341
1549416546558,-0.200623,-0.982666,-0.149597,11.707317,40.243904,4.085366
1549416546565,-0.196777,-0.987549,-0.150024,10.853659,41.036587,4.268293
1549416546580,-0.196045,-0.985229,-0.144836,9.024390,41.707317,4.756098
1549416546588,-0.192993,-0.979553,-0.138123,6.646342,42.317074,5.243903
1549416546595,-0.194214,-0.974609,-0.135559,4.634146,43.109756,5.487805
1549416546610,-0.187927,-0.968689,-0.140503,3.414634,44.390244,4.939024
1549416546618,-0.184937,-0.953979,-0.152466,3.963415,45.548782,4.512195
1549416546625,-0.184509,-0.971191,-0.176147,5.975610,45.853661,3.963415
1549416546640,-0.179810,-1.012817,-0.189514,7.073171,45.182926,3.048780
1549416546648,-0.183411,-1.017090,-0.186096,4.451220,42.256100,3.719512
1549416546655,-0.183777,-0.997437,-0.191833,0.365854,39.512196,5.487805
1549416546670,-0.188843,-0.998047,-0.205444,-6.097561,38.597561,4.878049
1549416546678,-0.193481,-1.021667,-0.233032,-12.987805,37.134148,3.414634
1549416546685,-0.187378,-1.050232,-0.252380,-20.000000,35.304878,3.597561
1549416546700,-0.181213,-1.066223,-0.258118,-31.219513,32.560978,5.000000
1549416546708,-0.181152,-1.054443,-0.263000,-47.560978,29.390245,5.792683
1549416546716,-0.184570,-1.014282,-0.271179,-64.878052,26.341463,6.097561
1549416546730,-0.189575,-0.962036,-0.283142,-78.109756,24.268293,6.707317
1549416546738,-0.190796,-0.917419,-0.299866,-83.597565,23.109756,7.500000
1549416546745,-0.179993,-0.892395,-0.313965,-81.341469,22.682928,7.682927
1549416546760,-0.169434,-0.892761,-0.327698,-73.292686,22.256098,7.012195
1549416546768,-0.159546,-0.906189,-0.346497,-64.146339,21.036587,6.280488
1549416546775,-0.155396,-0.912292,-0.368408,-56.341465,19.573172,5.487805
1549416546790,-0.153992,-0.913391,-0.386292,-50.000000,17.743902,4.634146
1549416546798,-0.155396,-0.906128,-0.401794,-45.304878,15.426829,3.902439
1549416546805,-0.154602,-0.890137,-0.412720,-40.487804,13.109756,3.353659
1549416546820,-0.151917,-0.875671,-0.412964,-34.207317,10.365854,2.378049
1549416546828,-0.155884,-0.872375,-0.418213,-26.768293,6.890244,1.524390
1549416546836,-0.158325,-0.886230,-0.429504,-18.048780,3.475610,0.548781
1549416546851,-0.159668,-0.909912,-0.426453,-8.780488,0.487805,-0.426829
1549416546858,-0.176575,-0.935303,-0.384216,-1.402439,-2.743902,-1.463415
1549416546866,-0.200012,-0.946838,-0.341431,2.926829,-6.402439,-2.134146
1549416546881,-0.203796,-0.947937,-0.333008,5.792683,-7.926829,-1.768293
1549416546888,-0.195740,-0.953491,-0.330078,9.024390,-6.768293,-0.731707
1549416546896,-0.194885,-0.958862,-0.325073,12.560976,-5.975610,0.304878
1549416546911,-0.201477,-0.964233,-0.315247,15.000000,-6.402439,0.548781
1549416546918,-0.208984,-0.961670,-0.299011,15.792684,-6.524390,0.121951
1549416546926,-0.208191,-0.957764,-0.287598,15.609756,-6.097561,0.182927
1549416546940,-0.200134,-0.954712,-0.285095,14.756098,-5.243903,0.792683
1549416546948,-0.195801,-0.958740,-0.276001,13.902439,-4.024390,0.914634
1549416546955,-0.202148,-0.970032,-0.265991,12.500000,-3.475610,0.731707
1549416546970,-0.202148,-0.966675,-0.273132,10.121951,-2.804878,0.670732
1549416546978,-0.199280,-0.953796,-0.281616,8.109756,-1.585366,0.914634
1549416546985,-0.195862,-0.945129,-0.287598,6.341464,-0.609756,1.524390
1549416547000,-0.192688,-0.952881,-0.290039,4.695122,-0.304878,1.524390
1549416547008,-0.189758,-0.959717,-0.293152,3.841464,0.060976,1.097561
1549416547015,-0.182983,-0.960510,-0.299011,3.719512,0.487805,1.219512
1549416547030,-0.181152,-0.952454,-0.296814,3.475610,0.487805,1.707317
1549416547038,-0.181274,-0.929565,-0.293640,3.963415,0.000000,2.439024
1549416547045,-0.177917,-0.934937,-0.295288,4.756098,-0.243902,2.865854
1549416547060,-0.184326,-0.952820,-0.296570,4.878049,0.182927,2.012195
1549416547068,-0.193420,-0.957886,-0.296387,5.121951,0.182927,1.585366
1549416547075,-0.197571,-0.982788,-0.294861,4.329268,0.304878,1.890244
1549416547090,-0.209900,-1.001160,-0.270813,2.682927,0.548781,1.402439
1549416547098,-0.230042,-0.993652,-0.280151,3.414634,0.182927,0.853659
1549416547105,-0.217346,-0.965332,-0.330933,6.829268,0.548781,1.829268
1549416547120,-0.198730,-0.964478,-0.334473,10.975610,2.317073,3.475610
1549416547128,-0.188782,-0.963379,-0.314270,13.536586,1.951220,5.670732
1549416547136,-0.183167,-0.940430,-0.306580,14.634147,0.914634,6.341464
1549416547150,-0.191406,-0.918152,-0.294983,14.878049,0.487805,5.243903
1549416547158,-0.209045,-0.927002,-0.283936,15.792684,-0.304878,3.536585
1549416547165,-0.210327,-0.954163,-0.285767,17.926830,-1.158537,2.134146
1549416547180,-0.203308,-0.985229,-0.277954,20.792683,-0.731707,1.890244
1549416547188,-0.207397,-1.010193,-0.251038,22.743902,-0.487805,3.109756
1549416547195,-0.205994,-1.014465,-0.251038,22.682928,0.000000,4.573171
1549416547210,-0.199951,-0.999207,-0.267212,22.256098,1.524390,6.097561
1549416547218,-0.198853,-0.976624,-0.269714,22.256098,2.621951,7.926829
1549416547225,-0.199341,-0.962402,-0.261963,22.560976,2.317073,9.268292
1549416547240,-0.206970,-0.960815,-0.251099,23.109756,1.646341,9.024390
1549416547248,-0.211487,-0.959595,-0.251160,22.682928,0.365854,7.743903
1549416547255,-0.211365,-0.947083,-0.264221,22.073172,-0.487805,7.378049
1549416547270,-0.202515,-0.936218,-0.267761,21.402439,-0.853659,7.865854
1549416547278,-0.202271,-0.944580,-0.261353,20.792683,-1.707317,8.170732
1549416547285,-0.219727,-0.960876,-0.240479,20.243902,-4.878049,8.475610
1549416547300,-0.219421,-0.963379,-0.235901,19.573172,-8.109756,9.939025
1549416547308,-0.226013,-0.955933,-0.226562,17.987804,-8.597561,10.853659
1549416547315,-0.212646,-0.943115,-0.217896,15.914635,-9.817074,12.317074
1549416547330,-0.214294,-0.936707,-0.210449,13.414635,-9.329268,12.682927
1549416547338,-0.221130,-0.936768,-0.214600,11.707317,-9.451220,11.951220
1549416547345,-0.234070,-0.928040,-0.192505,10.060976,-10.060976,10.853659
1549416547360,-0.228271,-0.922485,-0.198975,9.939025,-9.451220,10.731708
1549416547368,-0.238525,-0.942810,-0.197266,10.487805,-6.707317,8.231708
1549416547375,-0.239502,-0.960327,-0.195129,10.304878,-6.951220,6.097561
1549416547390,-0.241333,-0.964050,-0.194885,10.304878,-5.914634,4.634146
1549416547398,-0.239258,-0.964722,-0.201294,9.268292,-6.097561,4.634146
1549416547406,-0.228577,-0.959900,-0.194702,7.865854,-5.609756,5.000000
1549416547420,-0.223511,-0.966797,-0.196350,6.524390,-4.329268,4.634146
1549416547428,-0.237366,-0.979309,-0.194702,5.000000,-3.963415,2.378049
1549416547435,-0.233887,-0.982605,-0.195740,2.804878,-4.085366,1.646341
1549416547450,-0.236694,-0.973206,-0.197510,1.158537,-2.439024,1.402439
1549416547458,-0.239685,-0.959595,-0.201599,1.768293,-2.439024,1.951220
1549416547465,-0.240112,-0.958496,-0.210693,3.170732,-2.378049,2.500000
1549416547481,-0.246948,-0.953308,-0.206543,3.963415,-2.621951,2.439024
1549416547488,-0.246765,-0.946899,-0.209900,3.841464,-3.048780,2.743902
1549416547495,-0.250305,-0.944275,-0.204834,3.292683,-3.292683,2.256098
1549416547511,-0.240784,-0.940186,-0.209229,2.317073,-3.719512,1.707317
1549416547518,-0.235413,-0.943054,-0.217102,2.012195,-3.109756,0.365854
1549416547526,-0.230713,-0.961365,-0.213257,2.865854,-3.353659,-0.731707
1549416547541,-0.229553,-0.982727,-0.198853,3.658537,-4.207317,-1.158537
1549416547548,-0.226685,-0.987549,-0.193665,3.902439,-4.573171,-0.914634
1549416547555,-0.226746,-0.986572,-0.197998,3.902439,-3.719512,-0.365854
1549416547570,-0.235657,-0.986755,-0.195068,3.109756,-2.560976,-0.182927
1549416547578,-0.252502,-0.991028,-0.187927,2.256098,-2.500000,0.060976
1549416547585,-0.250671,-1.004333,-0.195007,2.073171,-2.560976,0.000000
1549416547600,-0.243042,-1.014587,-0.192505,2.317073,-1.890244,-0.182927
1549416547608,-0.235962,-1.007935,-0.187561,2.378049,-1.707317,0.609756
1549416547615,-0.234863,-0.994080,-0.190430,2.073171,-1.402439,1.768293
1549416547630,-0.239624,-0.978516,-0.191406,1.768293,-1.341463,2.621951
1549416547638,-0.240784,-0.970642,-0.189331,1.829268,-1.585366,3.109756
1549416547645,-0.237915,-0.983276,-0.190430,2.317073,-0.792683,3.109756
1549416547660,-0.240601,-0.991455,-0.198120,2.317073,-0.426829,2.743902
1549416547668,-0.244080,-0.984375,-0.193726,1.280488,-0.792683,3.353659
1549416547675,-0.237671,-0.975342,-0.190369,-0.243902,-0.670732,4.390244
1549416547690,-0.241455,-0.976318,-0.199951,-0.609756,0.914634,4.024390
1549416547698,-0.252991,-0.988281,-0.211304,0.365854,0.975610,3.170732
1549416547705,-0.243042,-0.990540,-0.221863,2.073171,0.670732,3.841464
1549416547720,-0.244690,-0.990784,-0.219177,4.268293,1.158537,4.878049
1549416547728,-0.248352,-0.998413,-0.211975,4.573171,0.000000,5.670732
1549416547735,-0.254578,-0.997131,-0.210938,2.987805,-0.182927,5.426829
1549416547758,-0.264221,-0.986389,-0.200134,1.463415,-0.609756,5.426829
1549416547758,-0.266296,-0.986877,-0.192017,0.548781,-0.609756,6.036585
1549416547765,-0.270447,-0.993591,-0.196533,1.097561,0.060976,6.097561
1549416547780,-0.273865,-1.006042,-0.202026,3.109756,0.243902,6.158537
1549416547796,-0.278748,-1.017334,-0.199097,4.817073,0.000000,6.768293
1549416547796,-0.284302,-1.020569,-0.187866,7.439024,-1.341463,8.597561
1549416547810,-0.289185,-1.028748,-0.177063,10.548780,-2.134146,11.219512
1549416547818,-0.275024,-1.030457,-0.200012,13.597561,-0.243902,12.926829
1549416547825,-0.288086,-1.032043,-0.227478,15.975610,3.109756,13.048780
1549416547840,-0.327576,-1.031128,-0.228760,14.390244,1.646341,14.207317
1549416547848,-0.337585,-0.992615,-0.227539,7.621952,-2.439024,18.048780
1549416547855,-0.312317,-0.951599,-0.249390,1.219512,-2.439024,21.890244
1549416547870,-0.314819,-0.963501,-0.262268,-0.731707,-0.243902,20.670732
1549416547878,-0.342957,-0.986511,-0.246277,-0.670732,-4.268293,17.621952
1549416547885,-0.368591,-0.959290,-0.222412,-0.426829,-10.243902,17.865854
1549416547900,-0.386414,-0.922241,-0.206665,0.487805,-12.865854,20.365854
1549416547908,-0.387146,-0.918091,-0.214783,2.378049,-12.865854,21.463415
1549416547915,-0.366699,-0.921326,-0.222656,3.292683,-10.731708,20.731709
1549416547930,-0.349854,-0.914551,-0.229736,2.621951,-8.658537,19.817074
1549416547938,-0.349731,-0.870789,-0.222534,0.304878,-9.146341,20.548780
1549416547945,-0.342468,-0.844727,-0.188293,-0.548781,-11.402439,22.439024
1549416547960,-0.354431,-0.869690,-0.168213,1.341463,-10.914635,21.768293
1549416547968,-0.369568,-0.922852,-0.162476,7.256098,-9.878049,18.292683
1549416547975,-0.399292,-0.962524,-0.171936,15.304878,-6.951220,14.512196
1549416547990,-0.437378,-0.995667,-0.183167,23.475611,-6.219512,13.353659
1549416547998,-0.486694,-1.015198,-0.186523,29.634148,-7.804878,14.451220
1549416548005,-0.535583,-1.032654,-0.185730,31.951220,-9.878049,16.402439
1549416548020,-0.578430,-1.025269,-0.185974,29.024391,-10.670732,17.012196
1549416548028,-0.597046,-0.993408,-0.178223,20.731709,-9.451220,16.463415
1549416548035,-0.601440,-0.945984,-0.170227,8.353659,-7.378049,15.975610
1549416548050,-0.569946,-0.904297,-0.172302,-2.560976,-5.426829,15.304878
1549416548058,-0.549072,-0.871338,-0.178894,-7.012195,-1.768293,14.512196
1549416548066,-0.573120,-0.858521,-0.173523,-4.878049,1.890244,13.292684
1549416548080,-0.576904,-0.896606,-0.165894,1.280488,4.817073,9.695122
1549416548088,-0.569763,-0.914124,-0.028870,8.963415,10.487805,6.463415
1549416548095,-0.343140,-0.807129,-0.028748,17.439024,21.951220,3.414634
1549416548110,-0.212280,-0.984375,-0.329895,24.207317,86.585365,-38.902439
1549416548118,-0.622009,-1.318298,-0.385071,32.500000,80.853661,-90.975609
1549416548126,-0.786438,-1.211243,-0.149170,44.268295,-17.804878,-22.926830
1549416548141,-0.592896,-1.017883,0.202515,52.500000,-49.756100,76.463417
1549416548148,-0.449341,-0.530823,0.192017,54.268295,-5.426829,77.012199
1549416548156,-0.192383,-0.761536,-0.221008,56.341465,73.292686,12.073171
1549416548171,-0.213501,-1.284119,-0.385132,39.573174,112.682930,-68.109756
1549416548178,-0.538452,-1.320190,-0.279785,37.865856,59.024391,-74.451218
1549416548186,-0.655579,-1.179138,-0.014648,50.182926,-13.292684,9.512196
1549416548201,-0.584412,-0.902649,0.183472,53.231709,-27.926830,58.719513
1549416548208,-0.223694,-0.786499,-0.103271,58.963417,16.219513,46.341465
1549416548216,-0.235962,-1.170959,-0.214600,37.987804,83.597565,-11.463415
1549416548231,-0.280518,-1.101135,-0.166809,16.707317,36.097561,-24.695122
1549416548238,-0.282471,-0.972290,-0.138062,27.439026,41.219513,-0.182927
1549416548245,-0.348022,-0.989441,-0.078186,23.414635,30.975611,-3.597561
1549416548261,-0.387329,-0.909546,-0.050537,21.402439,10.182927,-6.036585
1549416548268,-0.344849,-0.876892,-0.015625,29.939026,7.500000,3.170732
1549416548276,-0.300781,-0.865234,-0.016357,37.804878,9.695122,2.378049
1549416548291,-0.258057,-0.849670,-0.018921,48.414635,10.914635,2.012195
1549416548298,-0.204102,-0.876282,-0.031006,62.012196,10.121951,-1.463415
1549416548306,-0.173035,-0.881409,-0.016785,70.853661,6.585366,-7.621952
1549416548321,-0.155334,-0.896606,0.004333,79.207321,-3.719512,-12.682927
1549416548328,-0.151184,-0.875549,0.029785,83.292686,-14.512196,-15.304878
1549416548336,-0.147156,-0.848938,0.063232,87.865852,-23.353659,-16.097561
1549416548351,-0.142395,-0.833557,0.104370,92.926834,-28.048780,-16.768293
1549416548358,-0.119507,-0.833801,0.110474,99.451225,-28.475611,-17.682928
1549416548366,-0.073914,-0.863037,0.126770,105.975609,-26.036587,-19.085367
1549416548381,-0.042664,-0.894409,0.122803,112.500000,-24.573172,-21.280489
1549416548388,-0.029785,-0.930420,0.135925,113.414635,-26.097561,-22.439024
1549416548396,-0.041687,-0.967651,0.163147,110.365860,-32.012196,-22.500000
1549416548410,-0.042480,-0.969055,0.194519,100.000000,-37.987804,-23.475611
1549416548418,-0.041321,-0.966919,0.219299,84.939026,-40.121952,-24.085367
1549416548426,-0.033386,-0.964539,0.232666,67.743904,-39.451221,-24.024391
1549416548440,-0.017273,-0.990723,0.263184,51.463417,-37.926830,-24.817074
1549416548448,-0.022095,-1.005005,0.332581,39.939026,-36.768295,-24.695122
1549416548455,-0.057373,-0.952393,0.363586,33.902439,-36.402439,-22.195122
1549416548471,-0.113037,-0.951355,0.374023,30.060976,-35.243904,-18.719513
1549416548478,-0.129944,-0.951111,0.373779,28.963415,-28.963415,-15.853659
1549416548486,-0.129761,-0.963318,0.349670,32.256100,-17.804878,-11.768293
1549416548501,-0.139526,-0.971130,0.323425,32.439026,-10.609756,-7.134147
1549416548508,-0.158752,-0.952759,0.300293,28.780489,-8.231708,-2.560976
1549416548516,-0.180481,-0.921570,0.256531,27.256098,-7.865854,-0.182927
1549416548531,-0.186829,-0.883240,0.204712,30.121952,-7.317073,1.036585
1549416548538,-0.179077,-0.871521,0.163391,34.573170,-6.097561,1.219512
1549416548546,-0.172546,-0.894165,0.169250,38.597561,-6.951220,0.426829
1549416548561,-0.194397,-0.949219,0.198792,40.304878,-11.829268,-1.402439
1549416548568,-0.211670,-0.999512,0.222717,37.500000,-18.109756,-3.536585
1549416548576,-0.217834,-1.029175,0.236511,31.341465,-20.670732,-5.060976
1549416548591,-0.209595,-1.045044,0.268433,19.756098,-21.036587,-6.280488
1549416548598,-0.205261,-1.045471,0.304749,8.292683,-20.853659,-6.646342
1549416548606,-0.201477,-1.025818,0.325378,0.914634,-19.695122,-6.219512
1549416548621,-0.200562,-0.999512,0.311279,-2.134146,-17.073172,-5.000000
1549416548628,-0.203918,-0.962646,0.283508,-1.463415,-12.865854,-2.865854
1549416548636,-0.202637,-0.935852,0.270569,-0.121951,-8.719512,-1.524390
1549416548650,-0.209229,-0.943970,0.274475,-1.585366,-7.073171,-2.804878
1549416548658,-0.211853,-0.954834,0.264526,-3.170732,-7.012195,-5.548780
1549416548665,-0.200745,-0.949707,0.254089,-3.902439,-7.012195,-6.890244
1549416548680,-0.194580,-0.938965,0.251160,-5.121951,-7.560976,-6.829268
1549416548688,-0.201782,-0.936096,0.253906,-6.097561,-8.536586,-6.951220
1549416548696,-0.213379,-0.939392,0.247925,-6.524390,-9.085366,-8.353659
1549416548710,-0.217285,-0.953552,0.242554,-6.219512,-9.146341,-10.243902
1549416548718,-0.207947,-0.960632,0.244324,-6.646342,-9.024390,-11.280488
1549416548725,-0.198669,-0.956177,0.248108,-7.439024,-9.695122,-11.097561
1549416548741,-0.187195,-0.942932,0.254822,-8.536586,-10.914635,-10.365854
1549416548748,-0.178528,-0.926758,0.255310,-8.231708,-11.585366,-9.878049
1549416548756,-0.174927,-0.922485,0.252136,-5.853659,-11.158537,-9.878049
1549416548771,-0.171631,-0.921509,0.248352,-2.378049,-10.243902,-10.670732
1549416548778,-0.171936,-0.916870,0.244141,0.975610,-9.634147,-11.463415
1549416548786,-0.153503,-0.895813,0.224548,3.536585,-8.902439,-12.378049
1549416548801,-0.131531,-0.896362,0.222107,3.902439,-7.378049,-13.475610
1549416548808,-0.143860,-0.919189,0.238647,2.560976,-7.439024,-15.304878
1549416548816,-0.162720,-0.925110,0.250061,1.097561,-9.634147,-16.524391
1549416548831,-0.153198,-0.915894,0.251465,0.000000,-10.487805,-16.585365
1549416548838,-0.132446,-0.913940,0.255188,-0.182927,-9.512196,-16.219513
1549416548846,-0.120605,-0.919250,0.271973,-0.304878,-9.207317,-16.280489
1549416548861,-0.118774,-0.929504,0.293823,-0.609756,-9.207317,-17.073172
1549416548868,-0.115601,-0.929932,0.305054,-0.060976,-8.231708,-18.048780
1549416548876,-0.090393,-0.921509,0.292725,1.097561,-5.792683,-17.560976
1549416548891,-0.052246,-0.922180,0.302185,4.024390,-3.292683,-15.914635
1549416548899,-0.066162,-1.010620,0.387451,9.634147,-2.073171,-15.000000
1549416548906,-0.098816,-0.988159,0.322815,12.012196,-1.890244,-14.573171
1549416548921,-0.069885,-0.893372,0.249695,14.085366,3.292683,-12.134147
1549416548928,-0.050415,-0.856445,0.226440,13.658537,8.536586,-11.524390
1549416548936,-0.111145,-0.907776,0.240417,16.951220,8.292683,-11.585366
1549416548951,-0.175842,-0.968933,0.279114,19.634148,3.475610,-13.658537
1549416548958,-0.163086,-1.029236,0.277649,15.243903,0.304878,-15.304878
1549416548966,-0.097900,-1.002258,0.239746,9.939025,0.914634,-14.207317
1549416548980,-0.083435,-0.891968,0.294373,7.134147,1.829268,-11.036586
1549416548988,-0.131714,-0.841797,0.362061,4.024390,-1.341463,-12.012196
1549416548996,-0.141968,-0.839539,0.338074,13.048780,0.609756,-14.817074
1549416549011,-0.142395,-0.930481,0.348145,30.853659,6.463415,-17.317074
1549416549018,-0.170227,-1.006836,0.369751,43.963417,5.792683,-17.987804
1549416549026,-0.192505,-0.985840,0.320923,44.695122,2.743902,-14.512196
1549416549040,-0.192993,-0.874451,0.296448,36.036587,2.804878,-12.987805
1549416549048,-0.158936,-0.829041,0.263794,29.634148,5.609756,-14.268293
1549416549056,-0.144531,-0.875488,0.277710,27.378050,4.329268,-18.292683
1549416549071,-0.151123,-0.909790,0.331238,29.024391,-3.414634,-20.670732
1549416549078,-0.130554,-1.011230,0.389893,31.036587,-11.158537,-20.304878
1549416549086,-0.146667,-1.149048,0.452881,33.170731,-13.109756,-18.658537
1549416549101,-0.187683,-1.108765,0.459839,32.743904,-10.914635,-13.536586
1549416549108,-0.187317,-1.046997,0.467407,27.195122,-9.268292,-8.475610
1549416549116,-0.169556,-0.991089,0.419373,30.853659,-5.548780,-3.963415
1549416549131,-0.179138,-0.955811,0.408630,39.756100,-0.304878,1.036585
1549416549138,-0.176758,-0.993835,0.400269,41.280487,0.548781,0.000000
1549416549146,-0.129578,-1.018555,0.381470,40.548782,2.195122,-2.926829
1549416549160,-0.111023,-1.063477,0.423401,34.207317,3.353659,-2.560976
1549416549168,-0.119019,-1.091492,0.408447,22.317074,-0.243902,-2.682927
1549416549176,-0.119812,-1.045349,0.392517,16.158537,1.158537,0.670732
1549416549191,-0.128540,-0.979492,0.430237,11.341464,3.048780,3.780488
1549416549198,-0.121948,-0.930969,0.436157,12.804878,2.865854,5.426829
1549416549206,-0.105408,-0.928345,0.432251,23.536587,5.670732,6.646342
1549416549221,-0.099670,-0.950989,0.423645,35.609756,8.719512,5.914634
1549416549228,-0.091736,-0.973755,0.399414,42.256100,10.792684,5.487805
1549416549236,-0.100464,-0.945068,0.380066,42.195122,11.707317,5.487805
1549416549250,-0.114502,-0.888611,0.409912,35.853661,10.609756,5.121951
1549416549258,-0.098022,-0.883789,0.423767,23.414635,8.231708,1.585366
1549416549266,-0.100891,-0.894958,0.428345,15.975610,7.987805,-2.804878
1549416549281,-0.110840,-0.897888,0.412109,10.243902,6.768293,-5.365854
1549416549288,-0.091980,-0.885864,0.372437,5.000000,4.695122,-6.524390
1549416549296,-0.076965,-0.882141,0.379517,4.573171,4.573171,-6.097561
1549416549311,-0.078064,-0.916443,0.340698,4.451220,1.097561,-5.609756
1549416549318,-0.065735,-0.980957,0.310974,3.353659,-2.317073,-4.573171
1549416549326,-0.089233,-1.034546,0.332397,1.646341,-4.573171,-3.414634
1549416549341,-0.111389,-0.978455,0.347107,-4.939024,-10.304878,-1.463415
1549416549348,-0.102295,-0.899414,0.380188,-13.963415,-14.756098,-1.341463
1549416549356,-0.094360,-0.915405,0.408752,-18.353659,-14.756098,-3.963415
1549416549370,-0.101379,-0.953003,0.447327,-20.548780,-14.390244,-6.280488
1549416549378,-0.088623,-0.920532,0.447571,-23.048780,-13.963415,-6.219512
1549416549386,-0.075500,-0.880249,0.436096,-20.731709,-10.487805,-5.304878
1549416549401,-0.084229,-0.878235,0.435181,-12.317074,-6.219512,-4.817073
1549416549408,-0.089172,-0.911743,0.441345,-2.012195,-4.512195,-4.756098
1549416549416,-0.088196,-0.947754,0.432495,5.487805,-3.536585,-3.902439
1549416549431,-0.092834,-0.942200,0.425598,5.548780,-1.951220,-2.500000
1549416549438,-0.110352,-0.922302,0.437378,0.182927,-0.060976,-1.951220
1549416549446,-0.104675,-0.911560,0.422607,-5.000000,1.036585,-2.500000
1549416549461,-0.109924,-0.945557,0.427002,-4.573171,2.012195,-2.804878
1549416549468,-0.123169,-0.985779,0.403015,-1.890244,1.768293,-2.317073
1549416549476,-0.120850,-0.988403,0.370605,-0.731707,1.341463,-0.853659
1549416549483,-0.125549,-0.976624,0.399536,-0.548781,0.548781,1.524390
1549416549498,-0.135498,-0.991455,0.424622,-2.865854,-2.743902,3.170732
1549416549506,-0.132324,-0.982361,0.412476,-6.280488,-4.207317,3.780488
1549416549513,-0.114990,-0.946960,0.385315,-9.573171,-2.926829,3.841464
1549416549528,-0.096558,-0.906738,0.376892,-12.073171,-2.560976,3.475610
1549416549536,-0.092407,-0.891296,0.396851,-13.048780,-4.024390,2.804878
1549416549543,-0.094788,-0.886597,0.419373,-12.195122,-5.853659,1.097561
1549416549558,-0.110107,-0.885559,0.433899,-9.268292,-5.975610,-1.158537
1549416549566,-0.143005,-0.930786,0.458130,-6.768293,-5.182927,-3.536585
1549416549574,-0.145996,-1.010620,0.367798,-5.792683,-4.207317,-5.243903
1549416549588,-0.113708,-0.895203,0.345093,-2.682927,-2.743902,-4.207317
1549416549596,-0.122375,-0.853516,0.509277,-2.560976,-5.792683,-1.219512
1549416549603,-0.116577,-0.868713,0.483521,-6.829268,-14.512196,-2.865854
1549416549618,-0.043091,-0.930481,0.453308,2.195122,-9.085366,-2.012195
1549416549626,-0.075562,-1.021240,0.493896,10.060976,-3.963415,-2.500000
1549416549633,-0.135437,-0.971680,0.501709,11.402439,-7.621952,2.195122
1549416549648,-0.099854,-0.880859,0.445251,11.280488,-6.890244,6.341464
1549416549656,-0.084534,-0.899048,0.370789,16.829269,0.914634,7.012195
1549416549663,-0.118164,-0.967712,0.353577,19.146341,1.890244,5.365854
1549416549678,-0.120667,-0.989258,0.363037,12.926829,-3.963415,4.451220
1549416549685,-0.103638,-1.027588,0.382080,2.987805,-8.231708,5.426829
1549416549693,-0.117126,-1.019043,0.421448,-4.085366,-9.451220,6.585366
1549416549708,-0.126160,-0.902283,0.476501,-10.243902,-9.756098,8.353659
1549416549716,-0.095154,-0.873291,0.448792,-14.268293,-9.146341,7.804878
1549416549723,-0.080566,-0.916687,0.390930,-6.341464,-3.658537,6.341464
1549416549738,-0.089050,-0.953552,0.374084,2.621951,0.121951,4.878049
1549416549746,-0.081970,-0.936035,0.364990,3.719512,-1.829268,4.573171
1549416549753,-0.066467,-0.915466,0.389465,2.743902,-2.500000,5.731708
1549416549768,-0.092712,-0.913269,0.420532,2.560976,-2.439024,5.792683
1549416549776,-0.112793,-0.915039,0.437317,1.219512,-3.780488,5.121951
1549416549783,-0.105286,-0.928894,0.428955,0.487805,-3.780488,4.268293
1549416549798,-0.098145,-0.936768,0.424011,1.646341,-2.378049,4.146341
1549416549806,-0.105957,-0.928040,0.429626,5.000000,-1.829268,5.060976
1549416549813,-0.102905,-0.933777,0.434570,9.817074,-1.951220,6.097561
1549416549828,-0.097656,-0.955017,0.421387,15.609756,-0.609756,6.646342
1549416549836,-0.108643,-0.957336,0.418945,18.170732,0.731707,7.073171
1549416549843,-0.127869,-0.952271,0.446472,17.134148,1.402439,7.439024
1549416549858,-0.136047,-0.951660,0.447754,14.024390,2.439024,7.134147
1549416549866,-0.121521,-0.938904,0.407043,11.646341,4.756098,6.951220
1549416549873,-0.107971,-0.937927,0.395325,10.426829,7.378049,7.195122
1549416549888,-0.113220,-0.954224,0.396179,8.841464,7.195122,8.048780
1549416549896,-0.119751,-0.929138,0.412598,5.182927,5.731708,8.963415
1549416549903,-0.138916,-0.928528,0.422363,2.012195,5.426829,9.329268
1549416549918,-0.129150,-0.948364,0.378296,2.987805,6.097561,9.207317
1549416549926,-0.127136,-0.980652,0.441589,5.121951,7.804878,10.548780
1549416549933,-0.174683,-0.939270,0.456482,-1.402439,4.573171,10.670732
1549416549948,-0.117432,-0.882141,0.413269,-7.560976,3.597561,10.548780
1549416549956,-0.092041,-0.852417,0.418030,-11.280488,9.451220,8.963415
1549416549963,-0.098572,-0.870422,0.397217,-12.195122,10.975610,7.743903
1549416549978,-0.091125,-0.902100,0.364319,-13.414635,8.353659,5.609756
1549416549986,-0.096680,-0.931396,0.397583,-15.304878,8.475610,3.536585
1549416549993,-0.136108,-0.964355,0.433899,-19.207317,7.621952,0.975610
1549416550008,-0.168030,-0.953796,0.468323,-23.170732,7.195122,0.060976
1549416550015,-0.161621,-0.938721,0.460815,-25.792683,9.268292,1.097561
1549416550023,-0.133911,-0.943848,0.396545,-25.000000,12.621951,2.621951
1549416550038,-0.123901,-0.998779,0.280762,-19.817074,15.060976,5.000000
1549416550046,-0.195923,-1.208130,-0.085815,-12.743903,14.634147,6.951220
1549416550053,-0.242615,-1.453979,-0.138245,7.195122,13.048780,7.256098
1549416550068,-0.203613,-1.464111,-0.251587,25.731709,0.060976,12.317074
1549416550076,-0.069580,-1.185608,-0.282043,28.475611,-25.060976,32.804878
1549416550083,-0.024658,-1.156799,-0.054749,22.073172,-55.365856,48.658539
1549416550098,-0.008545,-1.269592,-0.030396,16.097561,-73.597565,49.085365
1549416550106,0.014343,-1.243286,0.072144,17.865854,-73.841469,42.987804
1549416550113,0.023315,-1.065186,0.182068,7.743903,-72.073174,34.878048
1549416550128,0.074158,-0.955566,0.244751,1.036585,-71.768295,35.853661
1549416550136,0.140015,-0.892883,0.310669,-1.158537,-68.170731,38.963417
1549416550143,0.161987,-0.865051,0.377380,-1.463415,-63.963417,38.414635
1549416550158,0.128601,-0.841492,0.465515,-3.170732,-65.121956,33.963417
1549416550165,0.075256,-0.818054,0.529419,-4.451220,-68.353661,29.329269
1549416550173,0.039307,-0.798706,0.558960,-7.256098,-67.134148,28.841465
1549416550188,0.034424,-0.777710,0.567749,-13.658537,-60.975613,30.243902
1549416550196,0.036804,-0.791748,0.585938,-20.670732,-52.987804,31.280489
1549416550203,0.013733,-0.834106,0.632324,-26.524391,-46.951221,31.097561
1549416550218,-0.028931,-0.862854,0.678345,-32.195122,-42.560978,30.792685
1549416550226,-0.045410,-0.858704,0.691833,-38.048782,-33.963417,31.890245
1549416550233,-0.036987,-0.828369,0.661133,-43.048782,-18.353659,34.573170
1549416550248,-0.021179,-0.797913,0.593079,-44.695122,1.097561,38.780487
1549416550256,-0.022583,-0.771667,0.529602,-41.890244,18.597561,42.682926
1549416550263,-0.038940,-0.768005,0.494080,-36.463417,30.609756,45.000000
1549416550278,-0.061584,-0.782410,0.488770,-30.792685,37.439026,46.341465
1549416550286,-0.093872,-0.794556,0.499878,-25.121952,40.426830,47.378052
1549416550293,-0.124451,-0.790649,0.520630,-20.548780,41.402439,48.048782
1549416550308,-0.144775,-0.776550,0.526794,-16.463415,42.804878,49.329269
1549416550315,-0.140503,-0.770691,0.515930,-10.975610,46.646343,51.036587
1549416550323,-0.122437,-0.784851,0.503418,-4.085366,52.926830,52.621952
1549416550345,-0.127686,-0.810059,0.492554,1.524390,58.780491,53.536587
1549416550346,-0.155151,-0.823547,0.474976,4.024390,61.951221,53.475613
1549416550353,-0.179810,-0.818481,0.460388,4.329268,63.414635,52.560978
1549416550368,-0.193726,-0.808777,0.455750,4.329268,64.085365,51.219513
1549416550376,-0.205994,-0.814575,0.463074,4.390244,63.292683,50.304878
1549416550383,-0.235962,-0.813721,0.472961,4.634146,61.402439,50.000000
1549416550398,-0.268555,-0.808105,0.463684,5.548780,58.841465,50.182926
1549416550406,-0.304749,-0.793823,0.440979,6.768293,57.073174,50.243904
1549416550413,-0.335022,-0.795166,0.420288,7.073171,57.134148,48.780487
1549416550428,-0.349243,-0.815063,0.414246,5.121951,58.109756,45.182926
1549416550436,-0.346069,-0.834900,0.413269,0.548781,59.573174,40.426830
1549416550443,-0.349854,-0.837158,0.394592,-7.804878,60.914635,35.792683
1549416550458,-0.359558,-0.835754,0.366028,-19.085367,61.524391,32.621952
1549416550466,-0.370667,-0.840759,0.344421,-27.682928,60.670734,31.219513
1549416550473,-0.392883,-0.870605,0.359985,-31.585367,57.500000,31.768293
1549416550497,-0.432617,-0.909485,0.398682,-32.865856,49.878052,32.256100
1549416550497,-0.460754,-0.892517,0.379639,-31.219513,40.914635,33.170731
1549416550503,-0.473877,-0.850220,0.346619,-25.365854,36.463417,35.609756
1549416550520,-0.490601,-0.827942,0.330994,-19.085367,37.073170,37.134148
1549416550525,-0.508911,-0.825806,0.307983,-15.548780,40.060978,36.646343
1549416550533,-0.524780,-0.828735,0.265442,-14.573171,43.231709,35.060978
1549416550548,-0.532349,-0.822510,0.209778,-14.817074,44.634148,32.865856
1549416550555,-0.536438,-0.812927,0.196411,-13.963415,43.902439,29.939026
1549416550563,-0.537109,-0.803650,0.210388,-12.317074,39.451221,25.609756
1549416550578,-0.531738,-0.792358,0.216614,-9.512196,33.109756,22.012196
1549416550585,-0.508789,-0.765991,0.239502,-4.634146,27.865854,18.658537
1549416550593,-0.501160,-0.744324,0.272217,1.768293,24.939026,14.878049
1549416550608,-0.521057,-0.744934,0.289978,8.292683,23.170732,10.304878
1549416550616,-0.549255,-0.771179,0.284241,13.963415,23.658537,4.878049
1549416550623,-0.582825,-0.821594,0.262695,17.621952,26.890245,-1.951220
1549416550638,-0.600586,-0.871033,0.229187,17.500000,30.792685,-9.146341
1549416550646,-0.601196,-0.879517,0.188354,14.939025,32.621952,-14.207317
1549416550660,-0.577087,-0.838806,0.165283,11.524390,32.012196,-15.914635
1549416550668,-0.544800,-0.791260,0.160645,8.414635,28.231709,-15.060976
1549416550676,-0.520752,-0.780884,0.161560,7.865854,22.804878,-14.573171
1549416550683,-0.510437,-0.802185,0.170044,12.256098,20.182928,-16.524391
1549416550698,-0.515869,-0.842590,0.170288,20.060976,20.426830,-20.670732
1549416550706,-0.534851,-0.879272,0.161133,27.378050,21.158537,-24.085367
1549416550713,-0.568970,-0.893433,0.160400,30.914635,20.792683,-25.548780
1549416550728,-0.607544,-0.881226,0.173523,30.548780,17.865854,-26.768293
1549416550736,-0.621338,-0.865051,0.186462,28.048780,12.926829,-28.414635
1549416550743,-0.590576,-0.856079,0.183289,24.085367,9.024390,-30.000000
1549416550758,-0.542725,-0.849548,0.165100,20.243902,7.621952,-31.463415
1549416550766,-0.501892,-0.842163,0.154175,17.256098,6.646342,-32.865856
1549416550773,-0.475952,-0.839294,0.165222,14.878049,5.548780,-33.841465
1549416550788,-0.476746,-0.845032,0.176697,15.365854,4.695122,-35.060978
1549416550796,-0.501831,-0.874512,0.176208,18.902439,5.000000,-37.621952
1549416550803,-0.519714,-0.917297,0.153564,22.987806,5.792683,-41.402439
1549416550818,-0.530884,-0.970154,0.120422,25.731709,4.512195,-43.963417
1549416550826,-0.558411,-0.963074,0.175171,23.597561,-9.878049,-40.670734
1549416550833,-0.545837,-0.921204,0.239014,20.487804,-27.682928,-29.573172
1549416550848,-0.516235,-0.888855,0.268555,18.048780,-33.536587,-24.939026
1549416550856,-0.484558,-0.889465,0.237915,15.853659,-30.914635,-27.012196
1549416550863,-0.405884,-0.933655,0.105042,15.914635,-24.512196,-29.268293
1549416550878,-0.373413,-1.066895,0.035828,17.073172,-21.524391,-29.817074
1549416550886,-0.380127,-1.056946,0.115540,12.621951,-45.487804,-17.256098
1549416550893,-0.373840,-0.975220,0.191467,10.182927,-66.341461,6.829268
1549416550908,-0.400635,-0.939758,0.248047,2.256098,-72.012199,14.024390
1549416550915,-0.442932,-0.919373,0.281006,-9.085366,-77.256096,5.853659
1549416550923,-0.470581,-0.905273,0.289551,-15.243903,-76.097565,-2.560976
1549416550938,-0.466980,-0.907532,0.285217,-13.170732,-69.085365,-7.682927
1549416550946,-0.446411,-0.906250,0.288757,-8.292683,-61.280491,-10.914635
1549416550953,-0.415527,-0.907410,0.283936,-3.536585,-54.329269,-12.560976
1549416550968,-0.403809,-0.929382,0.295959,0.853659,-48.048782,-13.963415
1549416550976,-0.408020,-0.968689,0.296631,2.500000,-43.536587,-15.365854
1549416550983,-0.412842,-1.007629,0.288635,4.024390,-37.378048,-17.621952
1549416550998,-0.418945,-1.025818,0.282593,9.207317,-34.146343,-17.865854
1549416551006,-0.431335,-1.001526,0.289185,14.268293,-35.670734,-15.365854
1549416551013,-0.434448,-0.968079,0.317505,18.170732,-37.195122,-12.500000
1549416551028,-0.436707,-0.956726,0.350403,19.085367,-39.146343,-10.731708
1549416551036,-0.463318,-0.967712,0.370911,18.658537,-39.451221,-10.000000
1549416551043,-0.498047,-0.964783,0.367249,16.280489,-36.463417,-10.426829
1549416551058,-0.507690,-0.955505,0.343811,13.475610,-30.121952,-10.365854
1549416551066,-0.505615,-0.967957,0.310852,9.878049,-21.890244,-10.121951
1549416551073,-0.485291,-1.011719,0.296631,5.731708,-15.304878,-11.524390
1549416551088,-0.456238,-1.049988,0.294006,3.841464,-11.463415,-11.768293
1549416551096,-0.422729,-1.077271,0.293945,4.939024,-9.939025,-9.756098
1549416551103,-0.376892,-1.073608,0.313171,5.304878,-9.573171,-6.707317
1549416551118,-0.352600,-1.040771,0.339600,2.560976,-10.060976,-2.926829
1549416551126,-0.345764,-0.992859,0.354858,-1.646341,-10.609756,-0.182927
1549416551141,-0.332336,-0.964905,0.354858,-4.573171,-9.146341,2.439024
1549416551148,-0.301697,-0.943359,0.359558,-5.426829,-7.500000,3.902439
1549416551156,-0.259949,-0.897827,0.376465,-4.634146,-5.975610,5.548780
1549416551163,-0.267273,-0.898193,0.404968,-5.426829,-6.158537,5.853659
1549416551178,-0.271729,-0.900513,0.430298,-3.597561,-10.121951,5.182927
1549416551186,-0.299255,-0.910278,0.459656,-1.097561,-9.695122,4.085366
1549416551193,-0.345947,-0.911926,0.461792,0.670732,-11.463415,4.146341
1549416551208,-0.347290,-0.903564,0.442078,3.048780,-11.219512,7.012195
1549416551216,-0.360535,-0.904236,0.435059,1.890244,-8.414635,9.573171
1549416551223,-0.374573,-0.893188,0.405334,-1.951220,-6.646342,10.670732
1549416551238,-0.371826,-0.877563,0.370300,-8.231708,-1.280488,9.390244
1549416551246,-0.368896,-0.883728,0.337708,-12.743903,4.146341,6.707317
1549416551253,-0.340637,-0.895203,0.321106,-13.536586,5.853659,5.365854
1549416551268,-0.325317,-0.925110,0.318542,-13.963415,6.951220,4.695122
1549416551276,-0.320435,-0.916199,0.320068,-15.670732,4.024390,4.695122
1549416551283,-0.313477,-0.905945,0.298828,-17.987804,3.109756,5.060976
1549416551298,-0.305298,-0.907959,0.279358,-20.548780,2.500000,3.536585
1549416551306,-0.290161,-0.928101,0.283569,-21.707317,1.463415,2.195122
1549416551313,-0.262024,-0.940735,0.300354,-24.085367,0.304878,-0.060976
1549416551328,-0.229858,-0.952576,0.299255,-28.231709,1.036585,-4.024390
1549416551336,-0.221558,-0.936768,0.284363,-32.256100,-2.621951,-9.207317
1549416551343,-0.238342,-0.921204,0.294861,-32.439026,-11.951220,-9.390244
1549416551358,-0.252380,-0.900757,0.325623,-29.512196,-20.670732,-6.097561
1549416551366,-0.253723,-0.892029,0.335449,-25.792683,-23.780489,-4.695122
1549416551373,-0.277344,-0.877563,0.351196,-22.865854,-24.512196,-7.256098
1549416551388,-0.281677,-0.862915,0.361389,-19.756098,-24.573172,-9.817074
1549416551396,-0.298645,-0.861389,0.381531,-16.463415,-22.621952,-12.500000
1549416551403,-0.293152,-0.852112,0.383484,-11.707317,-21.524391,-12.073171
1549416551418,-0.311707,-0.864014,0.397461,-8.475610,-18.353659,-12.195122
1549416551426,-0.344849,-0.872925,0.419861,-7.682927,-18.963415,-10.914635
1549416551433,-0.350037,-0.879395,0.447693,-9.695122,-16.890244,-8.475610
1549416551448,-0.335999,-0.878113,0.440002,-15.243903,-9.634147,-9.268292
1549416551456,-0.331909,-0.893005,0.402771,-21.402439,-2.317073,-12.195122
1549416551463,-0.344421,-0.898071,0.382080,-24.695122,0.304878,-13.109756
1549416551478,-0.333069,-0.875732,0.377686,-23.902439,1.158537,-10.853659
1549416551486,-0.332886,-0.846375,0.416016,-21.768293,4.024390,-9.146341
1549416551493,-0.272095,-0.835022,0.360413,-17.682928,9.451220,-10.000000
1549416551508,-0.282593,-0.865356,0.316467,-11.341464,18.170732,-17.560976
1549416551516,-0.273865,-0.868164,0.351868,-9.817074,8.536586,-17.378050
1549416551530,-0.272644,-0.845276,0.382935,-7.560976,8.231708,-16.463415
1549416551538,-0.272705,-0.848511,0.381775,-2.500000,8.658537,-17.500000
1549416551546,-0.258972,-0.855957,0.339539,3.109756,15.304878,-20.975611
1549416551553,-0.240234,-0.893188,0.292603,7.256098,23.536587,-25.426830
1549416551568,-0.243530,-0.933960,0.239929,6.768293,27.560976,-28.780489
1549416551576,-0.248535,-0.979187,0.168518,3.048780,25.548780,-29.268293
1549416551583,-0.244812,-0.995483,0.126831,-2.256098,21.219513,-27.682928
1549416551598,-0.233398,-0.992371,0.128174,-6.768293,13.780488,-23.902439
1549416551606,-0.246948,-1.000671,0.156494,-12.926829,3.170732,-20.121952
1549416551613,-0.263672,-0.973083,0.184448,-20.670732,-6.707317,-17.439024
1549416551628,-0.275208,-0.928223,0.187927,-24.817074,-8.841464,-16.951220
1549416551636,-0.273254,-0.893738,0.181335,-25.609756,-6.707317,-18.902439
1549416551643,-0.268250,-0.893616,0.178589,-23.658537,-3.048780,-22.256098
1549416551658,-0.284546,-0.914062,0.188843,-19.756098,-3.475610,-26.036587
1549416551665,-0.304932,-0.915466,0.204285,-14.512196,-7.926829,-27.256098
1549416551673,-0.313721,-0.948669,0.239624,-10.548780,-11.097561,-26.890245
1549416551688,-0.319946,-1.070007,0.254517,-9.207317,-11.158537,-27.439026
1549416551696,-0.326782,-1.194458,0.251892,-7.865854,-8.902439,-27.560976
1549416551703,-0.330872,-1.262939,0.247253,-4.451220,-7.073171,-23.414635
1549416551719,-0.289551,-1.220398,0.238159,-4.085366,-5.000000,-13.597561
1549416551726,-0.224854,-1.109009,0.234436,-6.097561,-0.914634,-1.890244
1549416551733,-0.193237,-1.009827,0.239563,-9.085366,0.609756,4.878049
1549416551748,-0.199341,-0.957336,0.256531,-12.317074,-0.365854,5.000000
1549416551756,-0.221558,-0.934631,0.275513,-12.865854,-2.012195,2.012195
1549416551763,-0.223511,-0.925476,0.281128,-10.792684,-2.256098,-0.365854
1549416551778,-0.208191,-0.921204,0.279236,-9.268292,-0.487805,-1.585366
1549416551786,-0.191467,-0.922058,0.269958,-9.146341,0.792683,-2.987805
1549416551793,-0.178772,-0.928284,0.263000,-9.878049,1.646341,-4.695122
1549416551808,-0.184814,-0.931091,0.263733,-10.060976,1.463415,-6.463415
1549416551816,-0.204956,-0.933838,0.258240,-8.780488,0.914634,-7.743903
1549416551823,-0.221008,-0.944824,0.244934,-6.402439,0.853659,-8.048780
1549416551838,-0.219543,-0.958252,0.224976,-4.817073,1.890244,-7.865854
1549416551846,-0.210938,-0.966675,0.215637,-4.207317,2.926829,-7.560976
1549416551853,-0.202332,-0.968628,0.202759,-4.878049,3.475610,-7.195122
1549416551868,-0.200806,-0.967285,0.192383,-7.256098,2.926829,-7.256098
1549416551876,-0.204529,-0.964722,0.206726,-8.719512,1.463415,-7.256098
1549416551883,-0.221313,-0.962402,0.204895,-8.353659,-0.548781,-6.463415
1549416551898,-0.217773,-0.960388,0.194031,-8.475610,-1.097561,-5.914634
1549416551906,-0.207214,-0.959106,0.201782,-7.134147,-0.548781,-5.304878
1549416551913,-0.209717,-0.953857,0.214050,-5.365854,-0.975610,-4.024390
1549416551928,-0.212769,-0.966064,0.208191,-3.841464,-1.158537,-3.048780
1549416551935,-0.218140,-0.976135,0.197815,-3.414634,-1.036585,-2.743902
1549416551943,-0.225281,-0.981628,0.195557,-2.500000,-0.670732,-2.134146
1549416551958,-0.228455,-0.977295,0.194031,-2.317073,-0.487805,-0.609756
1549416551966,-0.223633,-0.972961,0.194763,-3.414634,0.060976,0.426829
1549416551973,-0.217285,-0.983215,0.208801,-6.097561,0.304878,-0.060976
1549416551988,-0.217834,-0.993408,0.223145,-9.695122,0.670732,-1.463415
1549416551996,-0.219849,-1.004150,0.234802,-12.987805,1.524390,-2.865854
1549416552003,-0.207214,-1.008911,0.238647,-15.731708,2.682927,-3.414634
1549416552018,-0.204468,-1.016907,0.237549,-17.743902,5.365854,-3.902439
1549416552026,-0.206360,-1.017944,0.216919,-18.963415,6.219512,-3.963415
1549416552033,-0.203857,-1.006348,0.200378,-18.536585,6.890244,-3.170732
1549416552048,-0.207275,-1.000366,0.213806,-16.097561,6.951220,-2.500000
1549416552056,-0.217163,-0.999939,0.231384,-13.536586,5.000000,-1.768293
1549416552063,-0.219604,-0.998901,0.237610,-12.134147,3.292683,-1.036585
1549416552086,-0.220398,-0.991150,0.233398,-12.012196,4.024390,-0.670732
1549416552086,-0.209351,-0.982666,0.223450,-12.987805,5.914634,-0.182927
1549416552093,-0.194519,-0.990723,0.205261,-13.658537,8.170732,0.487805
1549416552108,-0.187317,-0.993286,0.190857,-14.695123,8.719512,1.036585
1549416552116,-0.185852,-0.976562,0.184326,-15.426829,8.292683,1.524390
1549416552123,-0.191223,-0.963501,0.183777,-16.646341,8.048780,1.768293
1549416552138,-0.191101,-0.953003,0.164490,-18.048780,7.865854,1.280488
1549416552146,-0.187195,-0.953125,0.147827,-18.475611,8.780488,0.182927
1549416552153,-0.185242,-0.968323,0.132690,-17.926830,8.841464,-1.402439
1549416552168,-0.180420,-0.996643,0.124084,-17.073172,8.048780,-2.195122
1549416552176,-0.182678,-1.030396,0.124817,-16.524391,6.585366,-2.621951
1549416552183,-0.188599,-1.046753,0.125122,-17.012196,4.756098,-2.195122
1549416552199,-0.186218,-1.026611,0.119446,-18.231709,3.963415,-0.670732
1549416552206,-0.185486,-0.991150,0.120056,-18.719513,4.329268,1.646341
1549416552213,-0.188721,-0.968628,0.133789,-18.292683,3.109756,3.658537
1549416552228,-0.191772,-0.957458,0.138794,-17.500000,1.524390,4.329268
1549416552236,-0.204529,-0.962341,0.143799,-16.036585,0.853659,3.048780
1549416552243,-0.217529,-0.979187,0.149780,-14.329268,0.000000,1.829268
1549416552258,-0.219116,-0.993286,0.141907,-13.536586,0.426829,1.585366
1549416552266,-0.216614,-1.012329,0.140686,-13.170732,1.768293,1.829268
1549416552273,-0.205078,-1.017578,0.132202,-13.902439,2.195122,2.378049
1549416552288,-0.197144,-1.009888,0.125427,-15.182927,3.170732,3.170732
1549416552296,-0.194702,-0.991150,0.124573,-16.707317,3.353659,3.475610
1549416552303,-0.192139,-0.975830,0.113159,-17.012196,3.231707,2.865854
1549416552326,-0.189819,-0.977966,0.114685,-16.158537,3.414634,1.524390
1549416552326,-0.200928,-0.983276,0.124023,-13.719513,2.926829,0.000000
1549416552333,-0.212402,-0.993652,0.136963,-10.365854,1.463415,-0.609756
1549416552348,-0.212341,-1.001709,0.137756,-8.292683,1.158537,-0.975610
1549416552356,-0.211731,-1.001526,0.127380,-7.317073,2.256098,-0.975610
1549416552363,-0.208496,-0.984070,0.157532,-7.134147,3.231707,-0.548781
1549416552378,-0.228699,-0.979126,0.229675,-7.500000,2.743902,-0.243902
1549416552386,-0.266052,-1.013489,0.242737,-10.182927,1.646341,-0.609756
1549416552393,-0.248657,-1.012634,0.106873,-14.939025,5.365854,-1.402439
1549416552408,-0.188721,-0.959106,0.060608,-13.109756,15.609756,-0.487805
1549416552416,-0.184021,-0.955566,0.089355,-8.658537,17.743902,2.560976
1549416552423,-0.201111,-1.015991,0.066528,-9.024390,12.743903,2.926829
1549416552438,-0.213867,-1.048706,0.045410,-10.731708,9.695122,-0.182927
1549416552446,-0.223083,-1.026611,0.052185,-12.256098,8.597561,-2.439024
1549416552453,-0.220337,-0.986877,0.064758,-14.939025,7.987805,-0.426829
1549416552468,-0.219849,-0.963013,0.072632,-15.609756,7.865854,3.109756
1549416552476,-0.224548,-0.976013,0.070435,-14.695123,7.256098,3.048780
1549416552483,-0.211121,-0.984253,0.053406,-14.817074,7.012195,0.060976
1549416552498,-0.211182,-0.989380,0.052856,-12.682927,7.195122,-1.158537
1549416552506,-0.207214,-1.008362,0.047241,-9.573171,5.243903,-0.548781
1549416552513,-0.203308,-1.010010,0.052307,-8.048780,4.146341,0.121951
1549416552528,-0.208130,-1.009216,0.060364,-6.463415,3.353659,1.219512
1549416552536,-0.208008,-1.013733,0.062317,-6.768293,2.073171,0.487805
1549416552543,-0.206238,-1.001892,0.064148,-7.256098,1.524390,0.000000
1549416552558,-0.211121,-0.984985,0.066650,-6.097561,1.463415,0.731707
1549416552566,-0.214417,-0.989502,0.065674,-4.329268,0.914634,0.853659
1549416552573,-0.206726,-0.997925,0.053223,-2.865854,1.036585,0.060976
1549416552588,-0.201172,-0.991516,0.052124,-1.219512,1.219512,-0.365854
1549416552596,-0.199036,-0.986084,0.063232,-0.487805,0.670732,-0.060976
1549416552603,-0.204895,-0.990967,0.068665,-0.243902,-0.121951,-0.060976
1549416552618,-0.205505,-1.000549,0.066772,0.304878,-0.548781,-0.487805
1549416552626,-0.204041,-0.999634,0.068176,0.426829,-0.548781,-0.731707
1549416552633,-0.204712,-0.990234,0.071167,0.792683,-0.731707,-0.426829
1549416552648,-0.202454,-0.987915,0.076599,1.219512,-1.158537,0.426829
1549416552656,-0.199158,-0.994263,0.070496,1.585366,-1.158537,0.365854
1549416552663,-0.203857,-0.997803,0.067200,2.012195,-0.975610,-0.121951
1549416552678,-0.210754,-1.000244,0.070129,2.621951,-1.341463,0.000000
1549416552686,-0.213684,-1.000122,0.074707,2.500000,-1.829268,0.243902
1549416552693,-0.216248,-0.996460,0.084351,1.890244,-1.585366,0.487805
1549416552708,-0.223694,-0.994141,0.087646,0.731707,-1.524390,0.487805
1549416552716,-0.221619,-0.993713,0.089905,-1.158537,-1.280488,0.304878
1549416552723,-0.222107,-0.984985,0.091553,-2.621951,-0.426829,0.243902
1549416552738,-0.227234,-0.995483,0.088379,-3.048780,0.365854,0.426829
1549416552746,-0.221191,-1.013550,0.076904,-3.536585,1.280488,-0.060976
1549416552753,-0.219055,-1.010681,0.062439,-3.170732,2.134146,-0.182927
1549416552768,-0.214294,-0.998779,0.064941,-3.597561,2.439024,0.365854
1549416552776,-0.216797,-0.989624,0.070862,-5.000000,2.317073,0.914634
1549416552783,-0.218384,-0.995178,0.060303,-5.670732,1.951220,0.914634
1549416552798,-0.218506,-0.996277,0.042664,-5.609756,2.439024,0.060976
1549416552806,-0.212524,-0.988403,0.038940,-5.182927,2.987805,0.000000
1549416552813,-0.205750,-0.989685,0.052856,-4.878049,2.682927,0.365854
1549416552828,-0.206726,-0.995056,0.056213,-5.060976,1.280488,0.304878
1549416552836,-0.198181,-0.997253,0.048279,-4.451220,1.036585,0.060976
1549416552843,-0.191467,-0.991638,0.040955,-3.109756,1.829268,0.000000
1549416552858,-0.190491,-0.989258,0.044006,-1.829268,1.707317,0.426829
1549416552866,-0.193604,-0.993774,0.044983,-1.219512,0.914634,0.609756
1549416552873,-0.201416,-1.000427,0.048401,-0.426829,0.000000,0.304878
1549416552888,-0.206848,-1.001404,0.050720,0.182927,-0.792683,0.121951
1549416552896,-0.213196,-0.998901,0.057617,0.487805,-1.341463,0.304878
1549416552903,-0.217712,-0.995667,0.057190,0.975610,-1.707317,0.243902
1549416552918,-0.215088,-0.994141,0.059326,1.829268,-1.707317,0.243902
1549416552926,-0.212830,-0.993347,0.062317,2.804878,-1.463415,0.243902
1549416552933,-0.215454,-0.992310,0.062927,3.414634,-1.463415,-0.121951
1549416552948,-0.216431,-0.992676,0.065674,3.170732,-1.646341,-0.365854
1549416552956,-0.213501,-0.996216,0.065308,2.560976,-1.280488,-0.609756
1549416552963,-0.212463,-0.998840,0.069092,1.890244,-0.975610,-0.670732
1549416552978,-0.207031,-0.994080,0.060852,0.975610,-0.914634,-0.609756
1549416552986,-0.203308,-0.981873,0.043701,0.365854,-0.609756,-0.426829
1549416552993,-0.211670,-0.975159,0.031982,1.097561,-0.914634,-0.426829
1549416553008,-0.221802,-0.983948,0.023376,2.926829,-2.073171,-1.585366
1549416553016,-0.236694,-1.004211,0.028625,6.951220,-4.024390,-3.109756
1549416553023,-0.228333,-1.024780,0.041931,11.402439,-6.646342,-4.695122
1549416553038,-0.212097,-1.022095,0.055542,14.207317,-7.439024,-5.365854
1549416553046,-0.201599,-1.005310,0.068054,15.000000,-7.439024,-4.756098
1549416553053,-0.201416,-0.990906,0.073975,15.000000,-6.951220,-3.597561
1549416553068,-0.201111,-0.978760,0.082214,15.060976,-6.341464,-2.256098
1549416553076,-0.204529,-0.975708,0.091309,14.817074,-5.548780,-1.402439
1549416553083,-0.207642,-0.983215,0.106812,13.048780,-5.121951,-0.914634
1549416553098,-0.203796,-0.994324,0.116150,9.695122,-4.634146,-1.524390
1549416553105,-0.196899,-1.004944,0.115417,6.646342,-2.926829,-1.707317
1549416553113,-0.189636,-1.014099,0.113037,4.329268,-1.158537,-1.097561
1549416553128,-0.185608,-1.011841,0.101257,2.317073,0.182927,-0.304878
1549416553136,-0.188904,-1.005310,0.094116,0.853659,1.219512,0.731707
1549416553143,-0.193542,-0.999023,0.092102,-0.243902,1.402439,1.402439
1549416553158,-0.198730,-0.992615,0.092896,-0.914634,0.914634,1.707317
1549416553166,-0.202942,-0.985657,0.093262,-1.341463,0.609756,1.707317
1549416553173,-0.206299,-0.990967,0.094543,-1.524390,1.036585,1.585366
1549416553188,-0.209412,-1.001038,0.085693,-1.280488,1.890244,1.463415
1549416553196,-0.207275,-1.005981,0.081970,-1.219512,2.195122,1.219512
1549416553203,-0.205261,-1.005188,0.079712,-1.585366,2.256098,1.219512
1549416553218,-0.207825,-1.002441,0.075989,-2.317073,2.195122,1.280488
1549416553226,-0.210815,-0.999268,0.077332,-3.109756,1.951220,1.158537
1549416553233,-0.208679,-0.994751,0.076599,-3.170732,1.707317,0.975610
1549416553248,-0.210693,-0.997986,0.079346,-2.439024,1.463415,0.792683
1549416553256,-0.210632,-0.999207,0.075439,-1.890244,1.280488,0.670732
1549416553263,-0.209900,-0.997253,0.070740,-1.890244,1.219512,0.731707
1549416553278,-0.207642,-0.995728,0.074524,-1.707317,1.097561,0.792683
1549416553286,-0.210022,-0.995605,0.079224,-1.585366,0.609756,0.731707
1549416553293,-0.211182,-0.996338,0.085571,-1.829268,0.060976,0.670732
1549416553308,-0.211548,-0.994263,0.084473,-2.195122,0.182927,0.548781
1549416553316,-0.210144,-0.993896,0.084961,-2.256098,0.670732,0.365854
1549416553323,-0.211731,-0.995605,0.085632,-2.073171,0.731707,0.243902
1549416553338,-0.211487,-0.997681,0.081665,-2.439024,0.670732,0.060976
1549416553346,-0.207520,-0.998962,0.074097,-2.804878,1.158537,-0.182927
1549416553353,-0.207703,-0.998596,0.070679,-2.743902,1.402439,-0.182927
1549416553368,-0.209595,-0.998230,0.069336,-2.804878,1.219512,0.000000
1549416553376,-0.213013,-0.999146,0.066284,-2.804878,1.097561,0.121951
1549416553383,-0.212219,-0.996948,0.063538,-2.804878,0.975610,0.121951
1549416553399,-0.210205,-0.997070,0.063049,-2.743902,0.975610,0.121951
1549416553406,-0.209473,-0.997131,0.058167,-2.500000,0.853659,0.121951
1549416553413,-0.207581,-0.997375,0.054871,-2.012195,0.426829,-0.121951
1549416553428,-0.205261,-0.997070,0.054626,-1.524390,-0.060976,-0.304878
1549416553436,-0.205017,-0.998596,0.057129,-0.914634,-0.548781,-0.243902
1549416553443,-0.207397,-0.998474,0.059814,-0.243902,-1.036585,-0.121951
1549416553458,-0.206299,-0.999573,0.062073,0.182927,-1.341463,0.121951
1549416553466,-0.206543,-1.000488,0.068359,0.304878,-1.463415,0.182927
1549416553473,-0.210327,-0.999390,0.072021,0.304878,-1.646341,0.304878
1549416553488,-0.208069,-0.998108,0.069519,0.000000,-1.707317,0.426829
1549416553496,-0.206543,-0.999573,0.071106,-0.060976,-1.646341,0.304878
1549416553503,-0.207336,-0.997742,0.070618,0.121951,-1.646341,0.304878
1549416553518,-0.208618,-0.996643,0.070496,0.182927,-1.585366,0.243902
1549416553526,-0.207642,-0.997498,0.070435,0.243902,-1.402439,0.121951
1549416553533,-0.205322,-0.998474,0.068237,0.182927,-1.341463,0.121951
1549416553548,-0.207947,-0.997314,0.069153,0.182927,-1.341463,0.304878
1549416553556,-0.211548,-0.993530,0.074097,0.121951,-1.341463,0.426829
1549416553563,-0.209473,-0.992126,0.074158,0.182927,-1.402439,0.365854
1549416553578,-0.207031,-0.995422,0.070923,0.304878,-1.219512,0.243902
1549416553586,-0.207275,-0.997131,0.067871,0.304878,-0.853659,0.182927
1549416553593,-0.207275,-0.995911,0.072388,0.304878,-0.914634,0.182927
1549416553608,-0.212524,-1.000427,0.065674,0.487805,-0.975610,0.121951
1549416553616,-0.215515,-0.996155,0.061218,0.548781,-0.853659,0.060976
1549416553623,-0.207825,-0.991882,0.069458,0.731707,-0.853659,0.304878
1549416553639,-0.194763,-0.990540,0.068970,0.060976,-1.158537,0.609756
1549416553646,-0.197266,-0.992004,0.065979,0.243902,-0.914634,0.426829
1549416553653,-0.203735,-0.997803,0.070923,0.914634,-1.158537,0.060976
1549416553668,-0.209656,-1.002930,0.074463,1.219512,-1.463415,0.000000
1549416553676,-0.208984,-0.998840,0.078064,0.792683,-1.768293,0.121951
1549416553683,-0.205383,-0.993042,0.077881,0.365854,-1.524390,0.121951
1549416553698,-0.207581,-0.996216,0.076416,0.365854,-1.097561,0.243902
1549416553706,-0.210449,-0.999573,0.073914,0.670732,-0.853659,0.121951
1549416553713,-0.209900,-0.999695,0.069519,0.853659,-0.670732,0.182927
1549416553728,-0.210510,-0.994019,0.075073,0.548781,-0.792683,0.365854
1549416553736,-0.208618,-0.995789,0.076904,0.365854,-0.792683,0.365854
1549416553743,-0.209534,-1.002014,0.070007,0.000000,-0.487805,0.060976
1549416553758,-0.218201,-1.004639,0.065186,0.304878,-0.182927,-0.060976
1549416553766,-0.211609,-0.995422,0.067688,0.487805,-0.426829,0.304878
1549416553773,-0.200500,-0.988953,0.071899,0.182927,-0.304878,0.609756
1549416553788,-0.202148,-0.990601,0.071960,-0.365854,-0.365854,0.548781
1549416553796,-0.209045,-0.996155,0.069580,0.000000,-0.548781,0.182927
1549416553803,-0.212891,-1.000244,0.070740,0.426829,-0.426829,0.000000
1549416553818,-0.213318,-0.997498,0.074646,0.365854,-0.487805,0.304878
1549416553826,-0.208130,-0.993896,0.071777,-0.121951,-0.487805,0.548781
1549416553833,-0.208984,-0.992737,0.067139,-0.243902,-0.304878,0.365854
1549416553848,-0.210449,-0.997925,0.070129,0.365854,-0.243902,0.243902
1549416553856,-0.209351,-1.004944,0.069031,0.914634,-0.365854,0.182927
1549416553863,-0.209961,-1.000244,0.065796,0.792683,-0.243902,0.182927
1549416553878,-0.209167,-0.995117,0.070557,0.609756,-0.243902,0.426829
1549416553886,-0.213074,-0.998779,0.069153,0.670732,-0.426829,0.487805
1549416553893,-0.208618,-1.000977,0.068909,1.097561,-0.548781,0.304878
1549416553908,-0.208679,-1.000549,0.071411,1.280488,-0.426829,0.243902
1549416553916,-0.209045,-0.994812,0.071228,1.280488,-0.548781,0.304878
1549416553923,-0.207092,-0.994568,0.072693,1.036585,-0.609756,0.426829
1549416553939,-0.207520,-0.995178,0.075806,0.975610,-0.548781,0.243902
1549416553946,-0.210388,-0.995972,0.071655,1.097561,-0.487805,0.121951
1549416553953,-0.206909,-0.996338,0.069763,1.158537,-0.182927,0.121951
1549416553968,-0.206116,-0.998535,0.073914,0.914634,-0.304878,-0.060976
1549416553976,-0.205322,-0.997742,0.077393,0.548781,-0.670732,0.121951
1549416553983,-0.207031,-0.994934,0.072754,0.487805,-0.609756,0.182927
1549416553998,-0.207581,-0.995422,0.071289,0.609756,-0.426829,0.060976
1549416554006,-0.207153,-0.996521,0.075867,0.609756,-0.548781,0.182927
1549416554013,-0.209534,-0.996704,0.077026,1.036585,-0.548781,0.365854
1549416554028,-0.208740,-0.996643,0.072144,0.914634,-0.426829,0.304878
1549416554036,-0.206177,-0.997131,0.068542,0.487805,-0.182927,0.304878
1549416554043,-0.208740,-0.997620,0.074829,0.182927,-0.243902,0.365854
1549416554058,-0.211853,-0.996704,0.073669,0.182927,-0.487805,0.365854
1549416554066,-0.213135,-0.996460,0.067505,0.426829,-0.365854,0.304878
1549416554073,-0.210999,-0.998352,0.072754,0.731707,-0.121951,0.121951
1549416554088,-0.205383,-0.996948,0.073914,0.426829,-0.365854,0.243902
1549416554096,-0.210876,-0.996765,0.077576,0.609756,-0.426829,0.243902
1549416554103,-0.209412,-0.995972,0.072021,0.792683,-0.670732,0.182927
1549416554118,-0.206726,-0.994263,0.068481,0.914634,-0.060976,0.304878
1549416554125,-0.207153,-0.998169,0.070923,0.914634,0.121951,0.121951
1549416554133,-0.210876,-0.998230,0.071777,0.792683,-0.365854,0.060976
1549416554148,-0.211853,-0.995361,0.073364,0.670732,-0.731707,0.243902
1549416554155,-0.207092,-0.996033,0.068970,0.609756,-0.731707,0.426829
1549416554163,-0.207520,-0.998352,0.068848,0.731707,-0.365854,0.426829
1549416554178,-0.211304,-1.000916,0.071777,0.731707,-0.548781,0.304878
1549416554186,-0.212463,-0.999695,0.069214,0.731707,-0.670732,0.304878
1549416554193,-0.211182,-0.994141,0.072693,0.670732,-0.609756,0.365854
1549416554208,-0.208557,-0.995300,0.073853,0.853659,-0.731707,0.365854
1549416554216,-0.209290,-0.999207,0.075378,1.158537,-1.036585,0.426829
1549416554223,-0.209351,-0.998352,0.080994,1.768293,-1.158537,0.426829
1549416554238,-0.209167,-0.997498,0.089966,2.865854,-1.036585,0.609756
1549416554246,-0.206848,-1.000854,0.096863,4.634146,-1.158537,1.219512
1549416554253,-0.204224,-1.021790,0.083984,8.414635,-0.975610,2.256098
1549416554268,-0.207092,-1.051208,0.080383,14.451220,-0.060976,3.353659
1549416554276,-0.216003,-1.080078,0.105408,20.975611,0.548781,3.902439
1549416554283,-0.225037,-1.112793,0.143494,26.829269,0.609756,4.939024
1549416554306,-0.236877,-1.140625,0.174683,30.121952,0.365854,7.743903
1549416554306,-0.255249,-1.134644,0.186951,28.475611,0.670732,12.439025
1549416554313,-0.275574,-1.109314,0.197998,23.109756,4.207317,18.963415
1549416554328,-0.281677,-1.081787,0.187683,16.524391,10.548780,23.475611
1549416554343,-0.283752,-1.058960,0.142578,10.182927,17.378050,23.109756
1549416554343,-0.288086,-1.056030,0.110779,5.304878,22.682928,23.109756
1549416554358,-0.288879,-1.057922,0.105957,0.792683,25.670732,24.268293
1549416554366,-0.271240,-1.034302,0.091003,-2.621951,28.292683,25.548780
1549416554373,-0.253967,-1.000671,0.077637,-6.219512,30.975611,27.073172
1549416554388,-0.221863,-0.982971,0.051086,-7.439024,32.134148,27.256098
1549416554396,-0.203491,-0.959656,0.030518,-7.256098,31.951220,26.829269
1549416554403,-0.216919,-0.941711,0.034058,-3.109756,28.902439,26.158537
1549416554418,-0.251038,-0.934326,0.044434,1.768293,23.841463,26.280489
1549416554426,-0.257446,-0.922791,0.064209,2.560976,20.670732,26.402439
1549416554433,-0.259155,-0.904663,0.102051,-0.609756,20.304878,24.451220
1549416554448,-0.253174,-0.901245,0.106995,1.341463,19.268293,19.695122
1549416554456,-0.246887,-0.926758,0.090027,4.939024,18.780489,16.951220
1549416554463,-0.259583,-0.968628,0.083618,5.609756,17.865854,15.426829
1549416554478,-0.275208,-0.957825,0.078003,0.975610,15.182927,15.487805
1549416554486,-0.288025,-0.900635,0.087158,-8.902439,13.719513,15.853659
1549416554493,-0.301331,-0.885437,0.086914,-12.256098,13.536586,12.621951
1549416554508,-0.308289,-0.921936,0.070129,-6.524390,12.378049,9.817074
1549416554516,-0.301208,-0.932373,0.056396,-5.000000,11.646341,10.365854
1549416554523,-0.291138,-0.910400,0.051208,-6.402439,12.195122,9.268292
1549416554538,-0.286011,-0.912842,0.056274,-4.268293,11.341464,5.670732
1549416554546,-0.283020,-0.919983,0.059265,-2.439024,9.939025,5.365854
1549416554553,-0.289368,-0.936035,0.068176,-3.231707,9.146341,4.573171
1549416554568,-0.304749,-0.976929,0.084961,-3.109756,7.743903,1.707317
1549416554576,-0.311707,-0.988220,0.080627,-3.719512,6.707317,0.853659
1549416554583,-0.305725,-0.961304,0.075867,-6.219512,7.012195,2.073171
1549416554598,-0.291443,-0.944275,0.073242,-8.292683,7.560976,2.500000
1549416554606,-0.282715,-0.958557,0.061401,-8.475610,7.804878,2.073171
1549416554613,-0.291748,-0.987671,0.049561,-6.951220,7.500000,1.646341
1549416554628,-0.298035,-0.995728,0.047791,-5.670732,6.646342,1.707317
1549416554636,-0.284058,-1.005066,0.043152,-6.829268,5.853659,2.195122
1549416554643,-0.271973,-1.002319,0.025635,-9.878049,5.975610,2.378049
1549416554658,-0.273438,-0.955444,-0.003296,-8.963415,6.707317,3.109756
1549416554666,-0.273071,-0.927734,0.008179,-7.987805,4.512195,3.841464
1549416554673,-0.269653,-0.910339,0.016724,-8.475610,2.012195,2.439024
1549416554688,-0.279175,-0.915588,0.011353,-4.695122,0.243902,0.365854
1549416554696,-0.275452,-0.938721,0.017822,1.402439,-2.439024,-0.548781
1549416554703,-0.276245,-0.982422,0.037415,5.182927,-4.207317,-0.792683
1549416554718,-0.297729,-1.022034,0.074463,6.402439,-6.219512,-1.036585
1549416554726,-0.315796,-1.025879,0.088623,5.060976,-7.682927,-1.219512
1549416554733,-0.310303,-0.999146,0.062439,1.707317,-6.646342,-0.792683
1549416554748,-0.289246,-0.958618,0.032288,-0.731707,-4.756098,0.670732
1549416554756,-0.266357,-0.931152,0.016479,-0.975610,-4.390244,1.829268
1549416554771,-0.265625,-0.921814,0.014404,-0.182927,-6.219512,0.914634
1549416554778,-0.281860,-0.930847,0.021362,1.585366,-9.390244,-1.341463
1549416554786,-0.303162,-0.951355,0.025574,4.146341,-12.317074,-3.475610
1549416554793,-0.316162,-0.970886,0.030762,6.707317,-14.207317,-4.634146
1549416554808,-0.322388,-0.986206,0.037292,8.475610,-14.573171,-5.121951
1549416554816,-0.329834,-0.996948,0.043884,9.024390,-14.695123,-4.695122
1549416554823,-0.332336,-1.004578,0.048035,8.963415,-14.146341,-4.268293
1549416554838,-0.335266,-1.018127,0.056152,8.597561,-13.414635,-3.597561
1549416554846,-0.338257,-1.027527,0.065308,8.048780,-12.743903,-2.560976
1549416554861,-0.330078,-1.021179,0.067871,7.195122,-12.317074,-0.731707
1549416554868,-0.319336,-1.006470,0.079895,5.487805,-10.853659,0.609756
1549416554876,-0.305115,-1.000732,0.088562,3.719512,-10.792684,1.829268
1549416554883,-0.293518,-0.998230,0.087463,2.012195,-10.914635,2.621951
1549416554899,-0.297119,-0.991760,0.090393,1.158537,-13.170732,3.414634
1549416554906,-0.306824,-0.975037,0.104187,1.402439,-18.902439,5.426829
1549416554913,-0.307861,-0.960205,0.119141,2.073171,-22.804878,7.804878
1549416554928,-0.313965,-0.942932,0.129883,3.231707,-24.024391,8.536586
1549416554936,-0.297852,-0.938599,0.120361,4.146341,-21.341463,8.536586
1549416554943,-0.295105,-0.939697,0.116089,3.597561,-15.731708,5.426829
1549416554958,-0.309204,-0.922119,0.128906,3.292683,-14.573171,3.414634
1549416554966,-0.307678,-0.889526,0.132080,2.987805,-14.207317,2.682927
1549416554973,-0.297791,-0.888733,0.133972,2.439024,-10.975610,0.670732
1549416554988,-0.293640,-0.872742,0.129883,3.658537,-9.817074,-2.378049
1549416554996,-0.289429,-0.874634,0.127319,7.926829,-8.231708,-3.963415
1549416555003,-0.288818,-0.887817,0.114685,11.585366,-7.621952,-6.158537
1549416555018,-0.288635,-0.908020,0.102966,14.817074,-6.890244,-8.536586
1549416555026,-0.289429,-0.913391,0.093811,16.707317,-6.890244,-10.670732
1549416555033,-0.282166,-0.919189,0.091431,17.073172,-7.743903,-12.012196
1549416555048,-0.274658,-0.938232,0.093628,16.524391,-8.841464,-13.658537
1549416555056,-0.280396,-0.957581,0.084290,17.256098,-10.060976,-15.365854
1549416555063,-0.290161,-0.964172,0.081299,18.719513,-11.890244,-15.914635
1549416555078,-0.290649,-0.930969,0.091492,17.865854,-13.536586,-15.914635
1549416555086,-0.281372,-0.914490,0.106140,16.036585,-13.902439,-16.646341
1549416555093,-0.265686,-0.919678,0.118530,14.268293,-14.268293,-18.475611
1549416555108,-0.259338,-0.934265,0.143555,14.207317,-15.304878,-20.304878
1549416555116,-0.261536,-0.947693,0.158081,14.695123,-16.890244,-22.073172
1549416555123,-0.262146,-0.963806,0.168091,14.573171,-17.560976,-23.536587
1549416555138,-0.252258,-0.984680,0.170410,13.536586,-16.524391,-24.085367
1549416555146,-0.245056,-1.015137,0.169861,11.951220,-14.268293,-23.780489
1549416555153,-0.258362,-1.071716,0.165833,10.487805,-13.414635,-24.451220
1549416555176,-0.279297,-1.123718,0.158569,7.560976,-13.536586,-25.243902
1549416555176,-0.296021,-1.158691,0.153931,3.170732,-12.378049,-24.207317
1549416555183,-0.294067,-1.151184,0.146851,-3.353659,-9.756098,-20.853659
1549416555198,-0.268127,-1.116028,0.123352,-9.390244,-5.304878,-16.097561
1549416555206,-0.237976,-1.074646,0.104858,-14.024390,-1.158537,-11.463415
1549416555213,-0.217590,-1.038940,0.103760,-16.219513,0.000000,-8.048780
1549416555228,-0.215881,-1.004089,0.114075,-15.975610,-1.524390,-6.158537
1549416555236,-0.218628,-0.980713,0.119446,-13.536586,-3.414634,-5.731708
1549416555243,-0.215393,-0.964050,0.115601,-10.304878,-4.024390,-5.914634
1549416555258,-0.211548,-0.960754,0.104980,-6.280488,-3.536585,-5.609756
1549416555266,-0.210999,-0.969421,0.092773,-2.743902,-3.231707,-5.670732
1549416555273,-0.209595,-0.981506,0.083069,0.182927,-3.963415,-6.219512
1549416555288,-0.217529,-1.006287,0.097412,3.292683,-5.487805,-6.524390
1549416555296,-0.227478,-1.022461,0.110840,4.512195,-7.926829,-6.280488
1549416555303,-0.221558,-1.011902,0.129089,4.207317,-8.414635,-5.548780
1549416555318,-0.215637,-0.998657,0.139038,3.780488,-7.926829,-4.268293
1549416555326,-0.213806,-0.985046,0.147095,2.987805,-7.439024,-3.292683
1549416555333,-0.216858,-0.977661,0.159058,2.743902,-6.219512,-2.926829
1549416555348,-0.223145,-0.983582,0.153870,2.865854,-5.000000,-3.658537
1549416555356,-0.229431,-0.993103,0.159180,4.024390,-5.487805,-3.902439
1549416555363,-0.229736,-1.002197,0.164307,4.939024,-5.182927,-3.292683
1549416555378,-0.233154,-1.009888,0.160645,4.512195,-4.390244,-2.804878
1549416555386,-0.229858,-1.002747,0.153381,2.256098,-3.292683,-2.621951
1549416555393,-0.218323,-0.999878,0.142029,-0.426829,-1.585366,-2.500000
1549416555408,-0.211487,-0.996521,0.140015,-2.134146,-0.792683,-2.134146
1549416555416,-0.216614,-0.994385,0.142944,-2.865854,-1.158537,-1.890244
1549416555423,-0.223022,-0.990723,0.143616,-3.475610,-1.890244,-2.012195
1549416555438,-0.216125,-0.989624,0.139893,-3.780488,-1.463415,-2.073171
1549416555446,-0.217407,-0.991638,0.135010,-3.231707,-0.792683,-2.073171
1549416555453,-0.219482,-0.991028,0.132385,-2.500000,-0.914634,-1.646341
1549416555468,-0.219482,-0.989380,0.130371,-2.073171,-1.036585,-1.463415
1549416555476,-0.215271,-0.986389,0.119385,-1.646341,-1.036585,-1.402439
1549416555483,-0.213501,-0.987976,0.114624,-1.463415,-0.792683,-1.341463
1549416555498,-0.211182,-0.989563,0.115295,-1.524390,-1.036585,-1.341463
1549416555506,-0.212646,-0.993652,0.117920,-1.768293,-1.341463,-1.524390
1549416555513,-0.216309,-0.994324,0.125916,-1.951220,-1.829268,-1.585366
1549416555529,-0.220154,-0.997559,0.130310,-2.256098,-2.134146,-1.890244
1549416555536,-0.219543,-0.997253,0.135071,-2.439024,-2.439024,-1.646341
1549416555543,-0.220947,-0.991943,0.141174,-2.195122,-2.560976,-1.402439
1549416555558,-0.215942,-0.988464,0.138245,-1.890244,-2.134146,-1.341463
1549416555566,-0.212219,-0.992065,0.130249,-1.280488,-0.853659,-1.646341
1549416555573,-0.214233,-0.994019,0.134521,-0.182927,-1.402439,-1.402439
1549416555588,-0.210876,-0.991943,0.133179,0.121951,-1.707317,-0.914634
1549416555596,-0.208435,-0.993713,0.130554,0.365854,-1.524390,-0.853659
1549416555603,-0.210388,-0.990601,0.132080,0.121951,-1.280488,-0.914634
1549416555618,-0.214844,-0.988159,0.134216,-0.426829,-1.707317,-0.975610
1549416555626,-0.214050,-0.987854,0.130005,-0.731707,-1.829268,-0.975610
1549416555633,-0.208801,-0.991150,0.131104,-0.670732,-1.341463,-0.975610
1549416555656,-0.211304,-0.994080,0.132935,-0.426829,-1.158537,-0.975610
1549416555656,-0.209290,-0.995544,0.129700,-0.426829,-1.219512,-0.792683
1549416555663,-0.209534,-0.997253,0.130737,-0.670732,-1.036585,-0.731707
1549416555678,-0.208374,-0.993164,0.129028,-0.853659,-0.914634,-0.548781
1549416555686,-0.210327,-0.992249,0.126953,-0.731707,-0.914634,-0.426829
1549416555693,-0.210999,-0.993225,0.129028,-0.548781,-0.975610,-0.304878
1549416555708,-0.213257,-0.989319,0.126770,-0.548781,-0.975610,-0.304878
1549416555716,-0.210388,-0.988342,0.126465,-0.365854,-0.792683,-0.365854
1549416555723,-0.210876,-0.990540,0.127991,-0.304878,-0.792683,-0.304878
1549416555738,-0.211792,-0.995605,0.132446,-0.243902,-1.036585,-0.365854
1549416555746,-0.214417,-0.996521,0.125793,-0.243902,-0.914634,-0.487805
1549416555753,-0.209717,-0.991882,0.119446,-0.426829,-0.914634,-0.426829
1549416555768,-0.202698,-0.991211,0.116943,-0.426829,-0.548781,-0.182927
1549416555776,-0.208801,-0.995605,0.124939,-0.121951,-0.914634,-0.121951
1549416555783,-0.214172,-0.998413,0.130737,0.000000,-1.829268,-0.304878
1549416555798,-0.212769,-0.997864,0.126160,-0.304878,-1.768293,-0.487805
1549416555806,-0.205688,-0.992004,0.121948,-0.304878,-1.036585,-0.121951
1549416555813,-0.204407,-0.988281,0.128235,-0.304878,-0.853659,0.243902
1549416555829,-0.211304,-0.988892,0.129089,-0.182927,-1.341463,0.243902
1549416555836,-0.212769,-0.990479,0.125732,0.121951,-1.463415,-0.060976
1549416555843,-0.210510,-0.992493,0.120361,0.487805,-1.097561,-0.426829
1549416555858,-0.205750,-0.991516,0.124146,0.792683,-0.975610,-0.182927
1549416555866,-0.204651,-0.990479,0.121643,0.670732,-1.158537,0.000000
1549416555873,-0.206116,-0.992249,0.123474,0.426829,-1.341463,-0.060976
1549416555888,-0.210999,-0.992981,0.131836,0.365854,-1.463415,-0.365854
1549416555896,-0.212769,-0.992920,0.129150,0.182927,-1.402439,-0.426829
1549416555903,-0.208801,-0.991089,0.123047,0.243902,-1.036585,-0.182927
1549416555918,-0.207275,-0.993042,0.125366,0.243902,-0.975610,-0.060976
1549416555926,-0.209717,-0.993652,0.131531,-0.060976,-1.341463,0.060976
1549416555933,-0.210571,-0.994019,0.130005,-0.060976,-1.524390,0.000000
1549416555948,-0.208008,-0.991028,0.126526,-0.121951,-1.036585,-0.243902
1549416555956,-0.207092,-0.988647,0.125366,0.000000,-0.731707,-0.182927
1549416555963,-0.206787,-0.990051,0.126404,0.304878,-0.670732,-0.060976
1549416555978,-0.211121,-0.996277,0.123718,0.670732,-0.914634,-0.304878
1549416555986,-0.210938,-0.997009,0.124023,0.731707,-1.158537,-0.365854
1549416555993,-0.207703,-0.991028,0.122375,0.487805,-0.975610,-0.121951
1549416556008,-0.205322,-0.991150,0.120483,0.365854,-0.731707,-0.060976
1549416556016,-0.207336,-0.992249,0.125488,0.304878,-0.731707,-0.060976
1549416556023,-0.211975,-0.992371,0.129456,0.243902,-1.280488,0.000000
1549416556046,-0.212463,-0.992981,0.128357,0.121951,-1.280488,-0.121951
1549416556053,-0.206238,-0.994995,0.125854,-0.060976,-0.792683,-0.060976
1549416556053,-0.208984,-0.995117,0.126343,-0.060976,-0.609756,0.121951
1549416556068,-0.212708,-0.992371,0.124756,-0.365854,-0.792683,0.121951
1549416556076,-0.206360,-0.990967,0.120789,-0.853659,-0.914634,0.182927
1549416556083,-0.200745,-0.989990,0.120361,-1.036585,-0.426829,0.304878
1549416556098,-0.207092,-0.992249,0.121094,-0.609756,-0.670732,0.243902
1549416556106,-0.214661,-0.994934,0.121582,-0.731707,-1.402439,-0.060976
1549416556113,-0.212769,-0.993774,0.126526,-0.914634,-1.585366,-0.182927
1549416556128,-0.209900,-0.992981,0.128601,-0.792683,-1.402439,0.060976
1549416556136,-0.209351,-0.991028,0.126404,-0.670732,-1.097561,0.243902
1549416556143,-0.206604,-0.992615,0.123230,-0.243902,-0.914634,0.121951
1549416556158,-0.206787,-0.992310,0.121643,0.060976,-0.914634,0.060976
1549416556166,-0.206360,-0.991943,0.121216,0.304878,-0.853659,0.000000
1549416556173,-0.205688,-0.994507,0.125732,0.487805,-1.158537,0.060976
1549416556188,-0.208679,-0.996704,0.129517,0.426829,-1.219512,0.060976
1549416556196,-0.208679,-0.992065,0.133362,0.182927,-1.524390,0.121951
1549416556203,-0.207642,-0.994812,0.137695,0.182927,-1.219512,0.243902
1549416556218,-0.206177,-0.998657,0.136658,0.548781,-0.792683,0.365854
1549416556226,-0.209717,-1.000549,0.133972,1.280488,-0.609756,0.487805
1549416556233,-0.209961,-1.004395,0.129944,2.195122,-0.304878,0.731707
1549416556248,-0.208740,-1.012634,0.127441,3.109756,0.304878,1.158537
1549416556256,-0.214844,-1.019897,0.123657,4.207317,0.670732,1.707317
1549416556263,-0.217712,-1.025879,0.125793,5.304878,0.792683,2.317073
1549416556278,-0.217346,-1.022339,0.132568,5.304878,0.975610,3.170732
1549416556286,-0.218079,-1.018799,0.128662,4.817073,1.097561,4.085366
1549416556293,-0.216064,-1.029663,0.115479,4.329268,1.707317,4.878049
1549416556308,-0.216064,-1.047546,0.104858,4.024390,2.560976,5.487805
1549416556316,-0.219360,-1.069275,0.110352,3.719512,2.560976,6.524390
1549416556323,-0.217834,-1.085754,0.128479,2.500000,1.890244,7.804878
1549416556338,-0.215637,-1.088501,0.148865,0.426829,1.524390,9.024390
1549416556345,-0.214111,-1.091675,0.151428,-1.768293,1.463415,10.609756
1549416556353,-0.218079,-1.096619,0.138977,-2.500000,2.560976,12.804878
1549416556368,-0.223999,-1.113464,0.126831,-0.731707,4.512195,15.548780
1549416556375,-0.232056,-1.150391,0.126648,2.500000,5.609756,18.902439
1549416556383,-0.242249,-1.189941,0.128052,5.243903,6.158537,22.926830
1549416556398,-0.260925,-1.201538,0.131226,6.707317,5.243903,27.621952
1549416556405,-0.260864,-1.169067,0.138184,6.097561,4.207317,34.329269
1549416556413,-0.259094,-1.161072,0.123230,1.585366,3.292683,41.951221
1549416556428,-0.307129,-1.171936,0.146484,-3.475610,-3.536585,49.939026
1549416556436,-0.284485,-1.181885,0.115479,-4.390244,-7.073171,57.073174
1549416556443,-0.247803,-1.269531,0.109985,-19.756098,5.000000,51.341465
1549416556458,-0.246887,-1.255493,0.131226,-52.743904,8.414635,42.987804
1549416556466,-0.281128,-1.181274,0.191589,-84.939026,4.512195,47.439026
1549416556473,-0.324646,-1.045105,0.200562,-107.012199,-3.536585,56.158539
1549416556489,-0.351013,-0.920166,0.146851,-113.109756,-4.146341,64.451218
1549416556496,-0.349915,-0.849548,0.044434,-107.439026,0.792683,66.280487
1549416556503,-0.330383,-0.833618,-0.064941,-94.268295,7.987805,63.414635
1549416556518,-0.316467,-0.874695,-0.131409,-77.621956,11.585366,62.378052
1549416556526,-0.326416,-0.952393,-0.149292,-61.036587,5.609756,63.414635
1549416556533,-0.366211,-1.009216,-0.137512,-48.170734,-5.853659,67.500000
1549416556548,-0.428711,-1.055908,-0.092407,-39.756100,-17.439024,73.109756
1549416556556,-0.501770,-1.098999,-0.043152,-34.817074,-25.426830,77.134148
1549416556563,-0.551575,-1.108459,0.012756,-32.865856,-27.926830,81.158539
1549416556578,-0.533081,-1.054749,0.023438,-30.914635,-25.000000,85.304878
1549416556586,-0.494385,-1.025024,-0.056152,-27.073172,-15.365854,93.231712
1549416556601,-0.479492,-1.083374,-0.104004,-32.134148,-11.890244,96.097565
1549416556608,-0.460388,-1.079224,-0.075562,-54.268295,-17.134148,94.085365
1549416556616,-0.468262,-0.924194,0.007507,-79.146347,-21.158537,96.768295
1549416556623,-0.542847,-0.758606,0.042664,-73.597565,-26.097561,94.207321
1549416556638,-0.602417,-0.720947,-0.023438,-41.280487,-34.939026,95.365852
1549416556646,-0.584290,-0.774963,-0.062195,-10.121951,-36.158539,103.658539
1549416556653,-0.558899,-0.795166,-0.060669,16.524391,-28.292683,106.036591
1549416556668,-0.573792,-0.760132,-0.042664,38.109756,-24.634148,105.000000
1549416556676,-0.607361,-0.702393,-0.000916,55.792683,-26.097561,107.560982
1549416556683,-0.645935,-0.653259,0.050598,70.243904,-26.585367,111.158539
1549416556698,-0.664001,-0.641357,0.095337,81.951218,-23.658537,109.390244
1549416556706,-0.658020,-0.633911,0.118530,92.500000,-14.329268,104.695122
1549416556713,-0.626343,-0.653809,0.137146,103.109756,-1.646341,98.841469
1549416556728,-0.592468,-0.676697,0.162292,109.512199,8.963415,92.073174
1549416556736,-0.574829,-0.691711,0.179077,111.707321,16.341463,87.317078
1549416556743,-0.581116,-0.707581,0.186523,110.975609,19.573172,82.317078
1549416556758,-0.604980,-0.719482,0.184509,107.012199,21.585367,76.280487
1549416556766,-0.640808,-0.722778,0.173035,101.341469,24.390244,67.439026
1549416556773,-0.669006,-0.732727,0.165466,94.878052,28.719513,58.902439
1549416556781,-0.679810,-0.713074,0.138184,85.853661,33.841465,54.085365
1549416556796,-0.681152,-0.684692,0.115295,77.865852,38.231709,50.914635
1549416556803,-0.672119,-0.656860,0.111023,70.426834,39.756100,47.195122
1549416556811,-0.669067,-0.634644,0.099915,64.512199,40.426830,44.512196
1549416556826,-0.678406,-0.623352,0.081665,60.426830,40.121952,41.524391
1549416556841,-0.673645,-0.616455,0.069275,58.353661,40.182926,37.743904
1549416556841,-0.672058,-0.631348,0.084717,59.268295,40.487804,33.475609
1549416556856,-0.685181,-0.646301,0.105286,61.585369,38.841465,29.817074
1549416556863,-0.724304,-0.673157,0.128540,64.024391,34.451221,27.621952
1549416556878,-0.751526,-0.689331,0.128235,63.902439,29.512196,25.609756
1549416556886,-0.768250,-0.688232,0.115906,60.548782,29.024391,24.756098
1549416556893,-0.747437,-0.669067,0.091187,56.707317,32.500000,23.902439
1549416556901,-0.722229,-0.659668,0.067505,50.609756,37.804878,23.475611
1549416556916,-0.732178,-0.682861,0.053406,45.548782,38.658539,22.317074
1549416556923,-0.726685,-0.693787,0.031982,41.219513,35.182926,19.756098
1549416556931,-0.732483,-0.714539,0.049011,35.243904,32.500000,18.719513
1549416556953,-0.740540,-0.720581,0.067017,26.280489,28.353659,17.439024
1549416556953,-0.735229,-0.689392,0.066040,15.731708,24.634148,16.890244
1549416556968,-0.729797,-0.663696,0.079590,7.256098,23.414635,17.500000
1549416556976,-0.740051,-0.649902,0.104309,1.036585,22.073172,17.378050
1549416556991,-0.726562,-0.621582,0.104187,-1.585366,20.487804,17.195122
1549416556991,-0.722595,-0.609009,0.110718,0.182927,19.268293,17.743902
1549416557006,-0.738953,-0.617249,0.114075,4.451220,15.487805,16.829269
1549416557013,-0.741638,-0.617981,0.107788,6.890244,12.378049,15.243903
1549416557021,-0.733582,-0.620117,0.101257,7.378049,12.195122,14.268293
1549416557035,-0.724915,-0.630066,0.099548,7.743903,11.768293,13.353659
1549416557043,-0.717346,-0.632507,0.094543,7.804878,9.695122,12.926829
1549416557050,-0.716248,-0.636475,0.104065,5.975610,7.317073,12.682927
1549416557066,-0.715942,-0.628174,0.121704,3.231707,5.365854,11.768293
1549416557073,-0.721680,-0.612549,0.127075,1.646341,4.268293,11.097561
1549416557081,-0.724792,-0.607666,0.130066,1.707317,2.804878,10.609756
1549416557096,-0.744080,-0.621643,0.138123,2.743902,1.402439,9.695122
1549416557103,-0.769836,-0.619080,0.138000,4.695122,0.304878,7.926829
1549416557111,-0.776001,-0.595520,0.134277,5.792683,0.243902,7.134147
1549416557126,-0.774902,-0.595764,0.125244,6.646342,0.670732,6.585366
1549416557133,-0.786499,-0.620850,0.109131,8.841464,-0.304878,5.000000
1549416557141,-0.802307,-0.648132,0.103882,11.341464,-1.524390,3.048780
1549416557156,-0.820496,-0.657959,0.092957,13.536586,-2.073171,1.646341
