timestamp, accel_x, accel_y, accel_z, gyro_x, gyro_y, gyro_z
1548437483958,-1.016541,0.090881,0.161987,1.524390,-0.365854,-0.487805
1548437483965,-1.021484,0.092712,0.159790,1.768293,-0.304878,-0.548781
1548437483980,-1.022827,0.095581,0.160217,1.707317,-0.304878,-0.548781
1548437483988,-1.024353,0.096680,0.158447,1.646341,-0.304878,-0.670732
1548437483995,-1.021667,0.098267,0.153076,1.585366,-0.243902,-0.853659
1548437484010,-1.022034,0.096680,0.149536,1.707317,-0.243902,-0.914634
1548437484018,-1.020874,0.097168,0.149841,2.012195,-0.487805,-0.975610
1548437484032,-1.022400,0.095337,0.149719,2.134146,-0.670732,-1.097561
1548437484040,-1.025146,0.095764,0.148071,2.195122,-0.792683,-1.280488
1548437484048,-1.026062,0.096191,0.145142,2.378049,-0.853659,-1.463415
1548437484055,-1.025940,0.093628,0.147705,2.439024,-1.036585,-1.463415
1548437484070,-1.025269,0.094299,0.150146,2.500000,-1.097561,-1.646341
1548437484078,-1.022888,0.091614,0.148682,2.621951,-1.219512,-1.829268
1548437484085,-1.024414,0.090759,0.149170,2.804878,-1.341463,-1.829268
1548437484100,-1.025024,0.091614,0.153320,3.048780,-1.524390,-1.951220
1548437484108,-1.023193,0.089783,0.155518,2.804878,-1.463415,-2.073171
1548437484116,-1.024780,0.091064,0.157715,2.621951,-1.341463,-2.134146
1548437484131,-1.024902,0.091125,0.162903,2.804878,-1.280488,-2.195122
1548437484138,-1.024109,0.089111,0.164307,2.987805,-1.341463,-2.256098
1548437484149,-1.021545,0.087585,0.160583,3.292683,-1.341463,-2.317073
1548437484160,-1.022583,0.088440,0.159668,3.536585,-1.463415,-2.378049
1548437484168,-1.024109,0.089050,0.162903,3.597561,-1.585366,-2.500000
1548437484175,-1.023071,0.086304,0.162048,3.414634,-1.463415,-2.621951
1548437484190,-1.024475,0.085876,0.163208,3.475610,-1.463415,-2.682927
1548437484198,-1.026184,0.085083,0.163208,3.841464,-1.402439,-2.804878
1548437484205,-1.027527,0.083374,0.162842,4.085366,-1.341463,-2.743902
1548437484220,-1.024292,0.080566,0.160767,4.695122,-1.158537,-2.743902
1548437484228,-1.025757,0.078979,0.162537,5.000000,-1.097561,-2.804878
1548437484243,-1.028687,0.078064,0.164673,5.000000,-1.036585,-2.682927
1548437484250,-1.023560,0.071960,0.163513,4.939024,-0.914634,-2.682927
1548437484258,-1.022217,0.070129,0.161743,5.243903,-0.853659,-2.621951
1548437484265,-1.023804,0.068970,0.161987,5.548780,-0.792683,-2.439024
1548437484280,-1.022766,0.066833,0.162659,5.365854,-0.792683,-2.256098
1548437484287,-1.023071,0.067078,0.163452,5.182927,-0.609756,-2.073171
1548437484295,-1.026306,0.063477,0.159973,4.756098,-0.548781,-1.890244
1548437484310,-1.023132,0.064087,0.155945,4.207317,-0.487805,-1.707317
1548437484318,-1.025146,0.063782,0.156860,3.841464,-0.487805,-1.646341
1548437484325,-1.026733,0.063354,0.159851,3.353659,-0.426829,-1.341463
1548437484340,-1.026184,0.064819,0.159973,2.743902,-0.304878,-1.036585
1548437484347,-1.029907,0.068604,0.158813,2.195122,-0.121951,-0.792683
1548437484355,-1.028137,0.068848,0.155640,1.890244,0.000000,-0.670732
1548437484370,-1.028992,0.069580,0.157593,1.646341,0.060976,-0.487805
1548437484378,-1.026855,0.070679,0.160950,1.524390,0.182927,-0.182927
1548437484385,-1.026306,0.071106,0.158691,1.402439,0.121951,0.000000
1548437484400,-1.026184,0.073792,0.155762,1.219512,0.182927,0.182927
1548437484408,-1.024353,0.076721,0.154785,0.975610,0.243902,0.304878
1548437484415,-1.024353,0.075562,0.154846,0.609756,0.243902,0.304878
1548437484430,-1.022278,0.074402,0.153320,0.548781,0.182927,0.426829
1548437484438,-1.020081,0.073181,0.151611,0.548781,0.060976,0.609756
1548437484445,-1.021790,0.072327,0.151855,0.487805,0.000000,0.609756
1548437484460,-1.020996,0.072449,0.152893,0.304878,-0.060976,0.731707
1548437484468,-1.022034,0.074768,0.153687,0.000000,-0.121951,0.731707
1548437484475,-1.021667,0.072021,0.151672,-0.060976,-0.243902,0.670732
1548437484490,-1.018188,0.063110,0.151855,-0.060976,-0.365854,0.792683
1548437484498,-1.019043,0.056274,0.153870,0.000000,-0.731707,1.097561
1548437484505,-1.025330,0.057007,0.156433,-0.365854,-1.158537,1.463415
1548437484520,-1.035522,0.058777,0.156677,-1.158537,-1.219512,1.951220
1548437484528,-1.037476,0.059387,0.157654,-1.341463,-1.036585,2.195122
1548437484535,-1.032349,0.063660,0.157471,-0.914634,-0.731707,2.317073
1548437484550,-1.023438,0.066223,0.159119,-0.670732,-0.426829,2.500000
1548437484558,-1.023499,0.072998,0.160767,-1.036585,-0.060976,2.743902
1548437484565,-1.024475,0.082703,0.165833,-2.012195,0.121951,2.987805
1548437484580,-1.023010,0.088135,0.164246,-3.353659,0.121951,3.170732
1548437484587,-1.021973,0.091614,0.161438,-3.963415,0.243902,3.231707
1548437484595,-1.021301,0.091187,0.161011,-3.597561,0.060976,3.231707
1548437484610,-1.018677,0.091125,0.161682,-2.743902,-0.121951,3.292683
1548437484618,-1.020020,0.089172,0.161011,-1.829268,0.060976,3.414634
1548437484625,-1.019348,0.087830,0.164246,-1.219512,0.121951,3.597561
1548437484640,-1.021912,0.088074,0.165466,-1.219512,0.365854,3.719512
1548437484648,-1.020935,0.090027,0.165588,-1.524390,0.609756,3.719512
1548437484655,-1.021057,0.091064,0.162048,-1.768293,0.609756,3.475610
1548437484670,-1.020874,0.095886,0.157837,-1.890244,0.548781,3.109756
1548437484678,-1.022644,0.103638,0.155640,-1.951220,0.365854,3.048780
1548437484685,-1.021484,0.106140,0.151245,-1.829268,0.304878,2.987805
1548437484700,-1.018982,0.105408,0.148987,-1.402439,0.304878,2.987805
1548437484708,-1.019226,0.105591,0.146790,-0.975610,0.182927,2.804878
1548437484715,-1.021362,0.105774,0.144836,-0.792683,0.121951,2.682927
1548437484730,-1.020569,0.106384,0.145386,-0.731707,0.060976,2.378049
1548437484738,-1.019348,0.106201,0.147949,-0.548781,-0.121951,2.134146
1548437484745,-1.018555,0.104248,0.148560,-0.304878,-0.365854,1.768293
1548437484760,-1.018677,0.104858,0.150879,-0.060976,-0.426829,1.463415
1548437484768,-1.020142,0.105408,0.151245,-0.060976,-0.548781,1.097561
1548437484775,-1.020752,0.103699,0.152161,0.060976,-0.670732,0.609756
1548437484790,-1.022034,0.108337,0.151367,0.121951,-0.853659,0.304878
1548437484798,-1.024353,0.110229,0.151062,0.304878,-0.975610,-0.060976
1548437484805,-1.024658,0.106079,0.152283,0.731707,-0.914634,-0.365854
1548437484820,-1.024963,0.102539,0.153442,1.036585,-0.853659,-0.548781
1548437484828,-1.024475,0.103455,0.150513,0.914634,-0.975610,-0.670732
1548437484835,-1.023865,0.102295,0.149902,0.914634,-1.036585,-0.975610
1548437484850,-1.024780,0.102905,0.149170,1.036585,-0.914634,-1.341463
1548437484858,-1.023865,0.100037,0.149536,1.097561,-0.975610,-1.585366
1548437484865,-1.023010,0.097595,0.150208,1.280488,-0.914634,-1.829268
1548437484880,-1.021973,0.094360,0.151917,1.585366,-1.036585,-2.012195
1548437484888,-1.023804,0.091980,0.151794,1.829268,-1.158537,-2.073171
1548437484895,-1.025879,0.088867,0.149719,1.951220,-1.219512,-2.195122
1548437484910,-1.022949,0.086487,0.151733,2.073171,-1.280488,-2.256098
1548437484918,-1.023499,0.084595,0.151550,2.073171,-1.402439,-2.378049
1548437484925,-1.024597,0.081421,0.152588,2.134146,-1.402439,-2.378049
1548437484940,-1.025269,0.077454,0.151672,2.134146,-1.524390,-2.256098
1548437484948,-1.025269,0.073181,0.154358,1.951220,-1.524390,-2.134146
1548437484955,-1.027161,0.073303,0.156616,1.707317,-1.524390,-1.951220
1548437484970,-1.025391,0.073120,0.156616,1.524390,-1.402439,-1.768293
1548437484978,-1.024658,0.072388,0.158142,1.402439,-1.280488,-1.585366
1548437484985,-1.026184,0.070923,0.159851,1.219512,-1.280488,-1.280488
1548437485000,-1.025696,0.071411,0.160095,0.975610,-1.219512,-1.097561
1548437485008,-1.025696,0.072815,0.159973,0.792683,-1.097561,-0.853659
1548437485015,-1.025452,0.072632,0.161987,0.731707,-0.975610,-0.609756
1548437485030,-1.025269,0.071167,0.161377,0.609756,-0.914634,-0.426829
1548437485038,-1.023560,0.073425,0.159668,0.426829,-0.975610,-0.182927
1548437485053,-1.022827,0.077087,0.159485,0.304878,-0.914634,0.000000
1548437485060,-1.025085,0.077393,0.156799,0.000000,-0.731707,0.243902
1548437485067,-1.023987,0.078674,0.157410,-0.121951,-0.548781,0.548781
1548437485075,-1.024353,0.078613,0.159119,0.060976,-0.487805,0.792683
1548437485090,-1.025146,0.079651,0.158813,-0.121951,-0.426829,0.975610
1548437485097,-1.025452,0.083191,0.155212,-0.243902,-0.182927,1.036585
1548437485105,-1.025269,0.084534,0.157288,-0.365854,-0.121951,1.158537
1548437485120,-1.023682,0.086853,0.154297,-0.609756,-0.121951,1.158537
1548437485127,-1.025269,0.090271,0.155457,-0.487805,-0.182927,1.219512
1548437485135,-1.024841,0.090088,0.154785,-0.426829,-0.304878,1.158537
1548437485150,-1.025024,0.090210,0.154541,-0.182927,-0.243902,1.036585
1548437485158,-1.024963,0.094543,0.153748,0.000000,-0.243902,0.975610
1548437485165,-1.026489,0.095398,0.152344,0.121951,-0.121951,1.036585
1548437485180,-1.025024,0.094666,0.151794,0.304878,0.000000,1.036585
1548437485188,-1.027588,0.094482,0.151978,0.487805,0.000000,0.914634
1548437485195,-1.027222,0.093689,0.152588,0.426829,0.060976,0.914634
1548437485210,-1.022400,0.095093,0.154419,0.182927,0.182927,0.853659
1548437485225,-1.024780,0.095032,0.153259,0.243902,0.304878,0.731707
1548437485226,-1.024353,0.094604,0.151550,0.365854,0.121951,0.609756
1548437485240,-1.023560,0.094910,0.150146,0.731707,0.000000,0.487805
1548437485247,-1.026062,0.091675,0.148865,0.914634,-0.243902,0.304878
1548437485255,-1.025879,0.088989,0.151062,0.853659,-0.243902,0.243902
1548437485270,-1.024170,0.087036,0.153320,0.853659,-0.365854,0.304878
1548437485278,-1.024353,0.086853,0.154968,0.731707,-0.365854,0.243902
1548437485293,-1.022522,0.086914,0.156128,0.731707,-0.426829,0.182927
1548437485300,-1.024048,0.085754,0.154541,0.670732,-0.426829,0.182927
1548437485308,-1.024109,0.083618,0.154785,0.548781,-0.670732,0.243902
1548437485315,-1.024231,0.084717,0.153198,0.670732,-0.670732,0.304878
1548437485330,-1.024536,0.084412,0.151978,0.731707,-0.731707,0.182927
1548437485337,-1.023804,0.084167,0.152710,0.609756,-0.853659,0.243902
1548437485345,-1.024780,0.085449,0.153259,0.548781,-0.731707,0.304878
1548437485361,-1.023621,0.084900,0.153381,0.548781,-0.609756,0.426829
1548437485368,-1.024292,0.083496,0.151672,0.548781,-0.792683,0.426829
1548437485376,-1.025818,0.085327,0.151672,0.487805,-0.731707,0.426829
1548437485391,-1.025146,0.084595,0.152893,0.304878,-0.731707,0.426829
1548437485398,-1.025635,0.084351,0.153076,0.243902,-0.731707,0.487805
1548437485406,-1.022766,0.085571,0.152161,0.243902,-0.548781,0.487805
1548437485421,-1.023560,0.087097,0.152710,0.304878,-0.670732,0.548781
1548437485428,-1.024170,0.086426,0.152527,0.304878,-0.792683,0.609756
1548437485436,-1.022156,0.087891,0.151550,0.243902,-0.792683,0.731707
1548437485451,-1.022766,0.089172,0.150635,0.304878,-0.670732,0.731707
1548437485458,-1.023438,0.088379,0.152161,0.426829,-0.731707,0.731707
1548437485466,-1.022583,0.089966,0.152771,0.304878,-0.731707,0.731707
1548437485480,-1.022888,0.091248,0.152344,0.121951,-0.670732,0.792683
1548437485488,-1.024109,0.090088,0.151062,0.182927,-0.670732,0.670732
1548437485503,-1.022339,0.091064,0.153015,0.304878,-0.792683,0.670732
1548437485510,-1.023743,0.091553,0.154480,0.365854,-0.731707,0.548781
1548437485518,-1.026123,0.092468,0.154114,0.487805,-0.670732,0.548781
1548437485525,-1.023376,0.092346,0.153137,0.304878,-0.670732,0.548781
1548437485540,-1.022827,0.091431,0.151306,0.365854,-0.792683,0.548781
1548437485548,-1.023560,0.089600,0.152710,0.365854,-0.853659,0.426829
1548437485555,-1.022888,0.090576,0.153503,0.304878,-0.853659,0.426829
1548437485570,-1.025696,0.091003,0.151367,0.243902,-0.853659,0.426829
1548437485578,-1.022705,0.090088,0.151550,0.304878,-0.975610,0.487805
1548437485585,-1.022888,0.090576,0.151917,0.487805,-0.975610,0.426829
1548437485600,-1.025757,0.091248,0.153809,0.487805,-0.914634,0.304878
1548437485607,-1.024536,0.090454,0.151794,0.365854,-0.853659,0.304878
1548437485615,-1.022461,0.090820,0.151672,0.426829,-0.914634,0.243902
1548437485630,-1.022827,0.090454,0.153931,0.365854,-0.914634,0.304878
1548437485638,-1.023804,0.089844,0.154419,0.365854,-0.975610,0.243902
1548437485645,-1.023315,0.088440,0.153748,0.304878,-0.914634,0.182927
1548437485660,-1.023743,0.090027,0.152222,0.365854,-0.914634,0.243902
1548437485668,-1.025391,0.089478,0.153503,0.304878,-0.975610,0.304878
1548437485675,-1.026001,0.089050,0.152771,0.304878,-0.914634,0.304878
1548437485690,-1.022827,0.088562,0.152832,0.365854,-0.914634,0.304878
1548437485698,-1.022644,0.087769,0.154602,0.487805,-0.975610,0.243902
1548437485705,-1.025269,0.088135,0.154053,0.426829,-0.853659,0.304878
1548437485720,-1.022949,0.089966,0.152100,0.304878,-0.914634,0.243902
1548437485727,-1.024658,0.089172,0.154663,0.365854,-0.975610,0.243902
1548437485735,-1.023987,0.089355,0.154907,0.426829,-0.853659,0.243902
1548437485750,-1.024353,0.089600,0.154114,0.365854,-0.853659,0.243902
1548437485757,-1.024719,0.088989,0.152893,0.365854,-0.853659,0.243902
1548437485765,-1.024292,0.087708,0.153137,0.426829,-0.914634,0.243902
1548437485780,-1.024475,0.087646,0.151733,0.426829,-0.792683,0.182927
1548437485788,-1.023621,0.086487,0.152588,0.182927,-0.731707,0.304878
1548437485795,-1.023682,0.086731,0.152588,0.243902,-0.792683,0.243902
1548437485810,-1.024597,0.088806,0.150024,0.304878,-0.731707,0.243902
1548437485818,-1.023254,0.089478,0.152222,0.304878,-0.853659,0.182927
1548437485825,-1.022156,0.087585,0.151672,0.304878,-0.792683,0.304878
1548437485840,-1.023804,0.085999,0.152405,0.548781,-0.792683,0.243902
1548437485848,-1.022644,0.088867,0.153076,0.548781,-0.731707,0.304878
1548437485855,-1.022461,0.087830,0.152771,0.426829,-0.731707,0.304878
1548437485878,-1.024475,0.087830,0.156250,0.426829,-0.731707,0.304878
1548437485878,-1.021545,0.089111,0.154419,0.426829,-0.731707,0.243902
1548437485885,-1.022888,0.090210,0.152222,0.426829,-0.792683,0.304878
1548437485900,-1.026184,0.089966,0.153015,0.487805,-0.792683,0.304878
1548437485908,-1.024597,0.089722,0.151428,0.487805,-0.853659,0.182927
1548437485915,-1.024109,0.088745,0.151550,0.304878,-0.853659,0.304878
1548437485930,-1.025330,0.089783,0.152771,0.487805,-0.914634,0.304878
1548437485938,-1.022827,0.090149,0.155090,0.548781,-0.853659,0.243902
1548437485945,-1.025269,0.088684,0.156677,0.304878,-0.792683,0.243902
1548437485960,-1.023926,0.088989,0.155334,0.304878,-0.792683,0.243902
1548437485967,-1.023621,0.090271,0.155518,0.426829,-0.731707,0.243902
1548437485975,-1.023071,0.089783,0.156555,0.426829,-0.731707,0.243902
1548437485990,-1.023682,0.090820,0.155945,0.487805,-0.792683,0.304878
1548437485997,-1.023315,0.088745,0.153687,0.548781,-0.792683,0.304878
1548437486005,-1.023621,0.087646,0.152466,0.487805,-0.853659,0.243902
1548437486020,-1.023926,0.090210,0.156006,0.426829,-0.853659,0.182927
1548437486028,-1.023804,0.087830,0.154419,0.548781,-0.792683,0.243902
1548437486035,-1.024170,0.088013,0.150513,0.487805,-0.731707,0.182927
1548437486050,-1.024658,0.085815,0.152710,0.426829,-0.731707,0.182927
1548437486058,-1.023376,0.086304,0.154541,0.426829,-0.792683,0.182927
1548437486065,-1.023804,0.088196,0.152161,0.487805,-0.792683,0.243902
1548437486080,-1.026306,0.089539,0.153259,0.304878,-0.731707,0.304878
1548437486088,-1.026001,0.088135,0.152771,0.304878,-0.670732,0.243902
1548437486095,-1.023621,0.087402,0.153076,0.243902,-0.609756,0.182927
1548437486110,-1.025146,0.089783,0.152832,0.304878,-0.670732,0.243902
1548437486118,-1.024170,0.090698,0.152649,0.060976,-0.670732,0.304878
1548437486125,-1.023743,0.088135,0.152527,0.182927,-0.792683,0.304878
1548437486140,-1.024231,0.088867,0.153442,0.304878,-0.853659,0.304878
1548437486147,-1.023682,0.090637,0.153931,0.243902,-0.731707,0.243902
1548437486155,-1.023254,0.088623,0.154358,0.182927,-0.670732,0.243902
1548437486170,-1.024536,0.090881,0.153564,0.304878,-0.670732,0.304878
1548437486185,-1.022827,0.091370,0.157288,0.304878,-0.731707,0.243902
1548437486186,-1.022461,0.089600,0.156128,0.243902,-0.792683,0.121951
1548437486200,-1.021851,0.092041,0.156677,0.365854,-0.731707,0.121951
1548437486208,-1.023071,0.088867,0.154541,0.365854,-0.731707,0.060976
1548437486215,-1.024841,0.089172,0.153625,0.304878,-0.731707,0.121951
1548437486230,-1.025391,0.089417,0.150208,0.426829,-0.792683,0.182927
1548437486238,-1.025208,0.090088,0.153320,0.365854,-0.731707,0.121951
1548437486245,-1.024658,0.090271,0.151672,0.487805,-0.792683,0.121951
1548437486260,-1.025269,0.090942,0.152588,0.304878,-0.792683,0.121951
1548437486267,-1.026245,0.089844,0.152893,0.243902,-0.914634,0.121951
1548437486275,-1.023560,0.088928,0.152954,0.182927,-0.853659,0.182927
1548437486290,-1.023010,0.088867,0.155640,0.304878,-0.792683,0.121951
1548437486298,-1.023926,0.090332,0.157166,0.365854,-0.853659,0.243902
1548437486305,-1.023804,0.090515,0.155762,0.487805,-0.792683,0.243902
1548437486320,-1.022888,0.089294,0.156128,0.548781,-0.731707,0.182927
1548437486328,-1.023682,0.090271,0.153198,0.426829,-0.792683,0.182927
1548437486335,-1.026794,0.089233,0.153198,0.426829,-0.792683,0.243902
1548437486350,-1.026672,0.089417,0.158142,0.487805,-0.792683,0.243902
1548437486357,-1.026428,0.090759,0.156067,0.426829,-0.731707,0.182927
1548437486365,-1.026367,0.088867,0.152588,0.548781,-0.731707,0.365854
1548437486380,-1.024719,0.089050,0.152771,0.487805,-0.792683,0.304878
1548437486388,-1.024414,0.091919,0.154846,0.243902,-0.731707,0.243902
1548437486395,-1.023560,0.090637,0.154419,0.182927,-0.731707,0.304878
1548437486410,-1.024292,0.089478,0.151245,0.304878,-0.792683,0.243902
1548437486418,-1.024536,0.088623,0.152405,0.548781,-0.792683,0.243902
1548437486425,-1.024109,0.089233,0.154602,0.487805,-0.792683,0.304878
1548437486440,-1.023926,0.090820,0.156006,0.426829,-0.731707,0.243902
1548437486448,-1.024597,0.090698,0.154236,0.426829,-0.731707,0.243902
1548437486455,-1.026306,0.090515,0.155029,0.365854,-0.792683,0.304878
1548437486470,-1.023987,0.091003,0.151367,0.304878,-0.792683,0.243902
1548437486478,-1.024414,0.092346,0.153137,0.365854,-0.731707,0.182927
1548437486493,-1.024475,0.091736,0.154419,0.304878,-0.731707,0.243902
1548437486500,-1.024597,0.090332,0.153076,0.243902,-0.731707,0.182927
1548437486508,-1.023621,0.092163,0.152344,0.426829,-0.792683,0.182927
1548437486515,-1.025024,0.091492,0.152649,0.365854,-0.853659,0.304878
1548437486530,-1.024902,0.090759,0.154053,0.426829,-0.853659,0.182927
1548437486538,-1.023010,0.090942,0.155273,0.426829,-0.731707,0.182927
1548437486545,-1.022583,0.088318,0.155945,0.426829,-0.792683,0.182927
1548437486560,-1.023254,0.089233,0.153687,0.365854,-0.853659,0.182927
1548437486567,-1.024780,0.089966,0.153381,0.365854,-0.853659,0.182927
1548437486575,-1.022949,0.089111,0.152466,0.487805,-0.792683,0.121951
1548437486590,-1.022827,0.089722,0.154114,0.426829,-0.792683,0.243902
1548437486598,-1.024475,0.089172,0.155823,0.487805,-0.731707,0.304878
1548437486605,-1.024109,0.088379,0.154053,0.304878,-0.731707,0.182927
1548437486620,-1.022766,0.090271,0.154846,0.304878,-0.792683,0.182927
1548437486628,-1.023315,0.092285,0.156128,0.304878,-0.853659,0.182927
1548437486635,-1.024048,0.092773,0.155090,0.243902,-0.792683,0.304878
1548437486650,-1.024170,0.091431,0.153870,0.243902,-0.731707,0.304878
1548437486658,-1.025696,0.092224,0.152100,0.426829,-0.853659,0.304878
1548437486665,-1.025024,0.090515,0.150940,0.365854,-0.792683,0.304878
1548437486680,-1.024719,0.089722,0.150391,0.243902,-0.792683,0.304878
1548437486687,-1.027466,0.091003,0.157837,0.304878,-0.853659,0.304878
1548437486695,-1.025574,0.090942,0.154480,0.365854,-0.853659,0.243902
1548437486710,-1.024475,0.089172,0.154114,0.426829,-0.670732,0.243902
1548437486718,-1.024414,0.089172,0.157043,0.426829,-0.731707,0.365854
1548437486725,-1.023254,0.089050,0.154480,0.365854,-0.792683,0.304878
1548437486740,-1.020935,0.089783,0.153992,0.365854,-0.792683,0.243902
1548437486748,-1.023499,0.090576,0.153687,0.365854,-0.731707,0.304878
1548437486755,-1.024963,0.090210,0.153748,0.304878,-0.670732,0.365854
1548437486770,-1.022888,0.090942,0.152710,0.304878,-0.792683,0.304878
1548437486778,-1.024719,0.091675,0.151794,0.365854,-0.792683,0.243902
1548437486785,-1.023804,0.091431,0.153564,0.365854,-0.792683,0.182927
1548437486800,-1.022339,0.093201,0.155518,0.304878,-0.853659,0.243902
1548437486809,-1.025085,0.092651,0.152588,0.121951,-0.792683,0.182927
1548437486815,-1.022583,0.092407,0.151855,0.243902,-0.792683,0.243902
1548437486833,-1.022156,0.094299,0.154175,0.365854,-0.792683,0.182927
1548437486838,-1.026184,0.093506,0.156250,0.548781,-0.792683,0.121951
1548437486845,-1.024048,0.090637,0.153809,0.487805,-0.914634,0.182927
1548437486861,-1.023926,0.091309,0.154114,0.426829,-0.792683,0.121951
1548437486867,-1.023987,0.093201,0.151428,0.365854,-0.792683,0.000000
1548437486875,-1.024231,0.089661,0.152588,0.487805,-0.853659,0.121951
1548437486890,-1.026917,0.087830,0.153809,0.365854,-0.792683,0.121951
1548437486898,-1.026184,0.088989,0.153259,0.182927,-0.914634,0.121951
1548437486905,-1.023193,0.087891,0.153625,0.243902,-0.792683,0.121951
1548437486920,-1.024963,0.091370,0.154907,0.365854,-0.853659,0.121951
1548437486928,-1.023926,0.090881,0.157166,0.365854,-0.853659,0.182927
1548437486935,-1.022156,0.089600,0.157410,0.365854,-0.792683,0.243902
1548437486951,-1.020813,0.087952,0.155640,0.243902,-0.731707,0.243902
1548437486958,-1.020874,0.089355,0.156067,0.304878,-0.731707,0.243902
1548437486966,-1.022278,0.089844,0.157166,0.365854,-0.731707,0.243902
1548437486981,-1.022339,0.088989,0.155884,0.243902,-0.731707,0.182927
1548437486988,-1.024292,0.089417,0.155334,0.243902,-0.731707,0.243902
1548437487003,-1.025574,0.090027,0.153625,0.365854,-0.670732,0.243902
1548437487011,-1.024353,0.090149,0.154358,0.304878,-0.670732,0.243902
1548437487018,-1.024536,0.091858,0.151062,0.304878,-0.670732,0.243902
1548437487026,-1.024292,0.091003,0.154663,0.365854,-0.670732,0.243902
1548437487041,-1.024963,0.091309,0.155457,0.426829,-0.670732,0.243902
1548437487048,-1.023682,0.090332,0.154175,0.304878,-0.731707,0.243902
1548437487056,-1.024658,0.092041,0.152649,0.426829,-0.731707,0.243902
1548437487071,-1.022156,0.091125,0.152588,0.304878,-0.731707,0.304878
1548437487078,-1.021484,0.090881,0.154724,0.304878,-0.670732,0.304878
1548437487086,-1.024353,0.090637,0.152466,0.487805,-0.731707,0.243902
1548437487101,-1.023865,0.091125,0.152466,0.426829,-0.853659,0.243902
1548437487116,-1.022705,0.088989,0.155151,0.487805,-0.792683,0.243902
1548437487116,-1.022644,0.090271,0.156006,0.365854,-0.792683,0.243902
1548437487131,-1.024292,0.090332,0.155701,0.365854,-0.792683,0.121951
1548437487138,-1.025635,0.090576,0.153442,0.426829,-0.853659,0.182927
1548437487146,-1.024658,0.090576,0.155762,0.426829,-0.792683,0.243902
1548437487161,-1.025146,0.088745,0.157166,0.365854,-0.731707,0.304878
1548437487168,-1.024292,0.089722,0.155762,0.304878,-0.731707,0.182927
1548437487176,-1.024841,0.090698,0.154663,0.365854,-0.853659,0.243902
1548437487191,-1.024658,0.091248,0.154236,0.365854,-0.914634,0.304878
1548437487198,-1.023682,0.091431,0.156982,0.304878,-0.792683,0.304878
1548437487206,-1.023926,0.090637,0.156677,0.365854,-0.792683,0.182927
1548437487221,-1.024170,0.090393,0.155457,0.304878,-0.731707,0.182927
1548437487228,-1.024231,0.089966,0.153320,0.182927,-0.731707,0.182927
1548437487236,-1.023804,0.091003,0.152893,0.304878,-0.731707,0.243902
1548437487251,-1.025146,0.092102,0.154053,0.365854,-0.731707,0.304878
1548437487258,-1.024170,0.092468,0.154175,0.304878,-0.731707,0.243902
1548437487266,-1.023804,0.092468,0.153503,0.243902,-0.670732,0.182927
1548437487282,-1.025146,0.091370,0.152100,0.304878,-0.670732,0.182927
1548437487288,-1.023193,0.091064,0.150391,0.365854,-0.731707,0.182927
1548437487297,-1.023987,0.090332,0.152954,0.304878,-0.792683,0.182927
1548437487311,-1.026978,0.090210,0.151855,0.304878,-0.731707,0.182927
1548437487318,-1.024719,0.093262,0.154114,0.243902,-0.792683,0.121951
1548437487326,-1.024231,0.089905,0.153320,0.243902,-0.853659,0.060976
1548437487341,-1.024902,0.091125,0.154419,0.365854,-0.792683,0.121951
1548437487348,-1.023987,0.091797,0.154907,0.304878,-0.731707,0.182927
1548437487356,-1.023743,0.091248,0.155029,0.243902,-0.792683,0.243902
1548437487371,-1.022400,0.091675,0.155212,0.365854,-0.792683,0.060976
1548437487378,-1.023376,0.091248,0.154968,0.304878,-0.792683,0.121951
1548437487386,-1.022156,0.091797,0.156067,0.304878,-0.853659,0.121951
1548437487401,-1.023315,0.090637,0.154236,0.426829,-0.731707,0.243902
1548437487408,-1.023071,0.091675,0.154846,0.365854,-0.792683,0.182927
1548437487417,-1.022705,0.090759,0.153564,0.304878,-0.792683,0.060976
1548437487431,-1.024414,0.089661,0.155518,0.365854,-0.853659,0.121951
1548437487438,-1.023804,0.088135,0.154602,0.365854,-0.792683,0.121951
1548437487446,-1.024963,0.088928,0.156555,0.426829,-0.853659,0.121951
1548437487461,-1.025024,0.090698,0.153442,0.426829,-0.792683,0.182927
1548437487468,-1.023376,0.090942,0.154175,0.304878,-0.670732,0.243902
1548437487476,-1.023071,0.091187,0.154907,0.304878,-0.731707,0.243902
1548437487491,-1.024719,0.090942,0.155518,0.304878,-0.731707,0.182927
1548437487498,-1.024292,0.089783,0.154236,0.365854,-0.731707,0.243902
1548437487506,-1.023254,0.091675,0.153320,0.304878,-0.731707,0.243902
1548437487521,-1.024780,0.088501,0.154297,0.243902,-0.731707,0.243902
1548437487528,-1.025940,0.089539,0.154602,0.365854,-0.853659,0.304878
1548437487536,-1.025513,0.091675,0.156555,0.304878,-0.731707,0.243902
1548437487551,-1.022339,0.091125,0.157227,0.304878,-0.670732,0.304878
1548437487558,-1.021301,0.091003,0.155701,0.182927,-0.609756,0.304878
1548437487566,-1.023499,0.091248,0.155701,0.182927,-0.731707,0.243902
1548437487581,-1.023987,0.090820,0.156128,0.304878,-0.731707,0.243902
1548437487588,-1.024414,0.091553,0.154663,0.426829,-0.731707,0.243902
1548437487596,-1.023621,0.090393,0.153137,0.304878,-0.731707,0.304878
1548437487611,-1.023193,0.092224,0.152588,0.365854,-0.731707,0.243902
1548437487618,-1.024475,0.091858,0.153564,0.243902,-0.670732,0.182927
1548437487626,-1.026367,0.090454,0.152466,0.304878,-0.853659,0.182927
1548437487641,-1.024902,0.091309,0.151428,0.304878,-0.792683,0.121951
1548437487649,-1.023987,0.090820,0.152222,0.182927,-0.792683,0.182927
1548437487656,-1.023865,0.091248,0.154297,0.121951,-0.731707,0.182927
1548437487671,-1.023621,0.090149,0.152771,0.304878,-0.792683,0.182927
1548437487678,-1.023438,0.087585,0.156067,0.365854,-0.792683,0.182927
1548437487686,-1.021729,0.086487,0.155762,0.365854,-0.731707,0.182927
1548437487708,-1.024231,0.089111,0.155884,0.365854,-0.670732,0.243902
1548437487709,-1.024658,0.090698,0.155945,0.304878,-0.670732,0.182927
1548437487716,-1.024353,0.088318,0.156250,0.243902,-0.609756,0.182927
1548437487731,-1.023193,0.088379,0.155029,0.365854,-0.731707,0.243902
1548437487738,-1.024109,0.089722,0.154480,0.304878,-0.731707,0.243902
1548437487746,-1.024597,0.089905,0.154297,0.304878,-0.670732,0.304878
1548437487761,-1.023682,0.090149,0.153137,0.365854,-0.670732,0.243902
1548437487768,-1.024475,0.091614,0.152100,0.304878,-0.670732,0.243902
1548437487776,-1.022766,0.090759,0.154236,0.365854,-0.670732,0.243902
1548437487791,-1.022339,0.091003,0.152588,0.365854,-0.670732,0.304878
1548437487799,-1.020935,0.090027,0.153687,0.304878,-0.792683,0.243902
1548437487806,-1.022339,0.091187,0.155884,0.304878,-0.670732,0.243902
1548437487821,-1.024170,0.089966,0.154663,0.365854,-0.731707,0.243902
1548437487828,-1.023621,0.090637,0.152771,0.426829,-0.731707,0.243902
1548437487836,-1.023193,0.090271,0.153320,0.487805,-0.792683,0.243902
1548437487851,-1.023682,0.090637,0.152832,0.426829,-0.792683,0.182927
1548437487858,-1.022400,0.090210,0.153259,0.487805,-0.792683,0.243902
1548437487866,-1.024292,0.091003,0.154541,0.487805,-0.731707,0.182927
1548437487880,-1.024170,0.091675,0.152832,0.426829,-0.670732,0.243902
1548437487888,-1.024597,0.093140,0.154846,0.365854,-0.731707,0.243902
1548437487895,-1.023987,0.090759,0.154175,0.304878,-0.670732,0.304878
1548437487910,-1.022339,0.089661,0.154846,0.243902,-0.731707,0.243902
1548437487918,-1.023315,0.090027,0.154785,0.426829,-0.731707,0.304878
1548437487925,-1.023865,0.089539,0.156677,0.426829,-0.731707,0.243902
1548437487940,-1.025696,0.091370,0.154236,0.365854,-0.670732,0.121951
1548437487948,-1.023926,0.092896,0.154297,0.365854,-0.853659,0.243902
1548437487955,-1.024170,0.092529,0.155334,0.304878,-0.792683,0.243902
1548437487971,-1.023865,0.092712,0.157227,0.243902,-0.670732,0.182927
1548437487978,-1.024841,0.090088,0.155090,0.243902,-0.792683,0.243902
1548437487985,-1.024231,0.089050,0.153564,0.243902,-0.792683,0.243902
1548437488000,-1.023071,0.092224,0.153259,0.304878,-0.731707,0.304878
1548437488008,-1.022827,0.092041,0.154846,0.365854,-0.792683,0.243902
1548437488015,-1.023804,0.090942,0.152588,0.304878,-0.731707,0.243902
1548437488030,-1.023499,0.091125,0.155396,0.304878,-0.731707,0.304878
1548437488038,-1.022949,0.092163,0.154358,0.304878,-0.914634,0.182927
1548437488045,-1.022217,0.092224,0.154297,0.365854,-0.731707,0.243902
1548437488060,-1.023499,0.091125,0.153625,0.426829,-0.792683,0.121951
1548437488068,-1.026428,0.092773,0.151428,0.304878,-0.792683,0.182927
1548437488075,-1.025146,0.091919,0.154175,0.304878,-0.792683,0.121951
1548437488090,-1.024475,0.091980,0.151855,0.304878,-0.792683,0.121951
1548437488097,-1.023376,0.090881,0.156311,0.304878,-0.792683,0.182927
1548437488105,-1.023621,0.090942,0.157349,0.487805,-0.853659,0.243902
1548437488120,-1.023315,0.091125,0.155701,0.426829,-0.792683,0.182927
1548437488128,-1.022034,0.089844,0.154175,0.426829,-0.731707,0.182927
1548437488135,-1.023804,0.092102,0.153748,0.304878,-0.792683,0.182927
1548437488150,-1.025208,0.091003,0.156616,0.365854,-0.792683,0.182927
1548437488158,-1.022888,0.090698,0.155090,0.426829,-0.731707,0.182927
1548437488165,-1.023560,0.091064,0.153748,0.365854,-0.670732,0.182927
1548437488180,-1.023865,0.089722,0.154785,0.426829,-0.731707,0.243902
1548437488187,-1.022766,0.090637,0.154053,0.304878,-0.670732,0.182927
1548437488195,-1.023987,0.091125,0.154846,0.426829,-0.670732,0.182927
1548437488210,-1.023438,0.089355,0.157043,0.426829,-0.609756,0.182927
1548437488218,-1.023987,0.092834,0.155273,0.243902,-0.792683,0.182927
1548437488225,-1.024902,0.093689,0.152710,0.365854,-0.914634,0.182927
1548437488240,-1.023071,0.092224,0.153320,0.426829,-0.853659,0.060976
1548437488247,-1.024963,0.090637,0.151672,0.426829,-0.853659,0.121951
1548437488255,-1.025452,0.089661,0.151489,0.426829,-0.792683,0.060976
1548437488270,-1.025696,0.091431,0.153381,0.548781,-0.853659,0.060976
1548437488277,-1.027344,0.090698,0.153381,0.426829,-0.853659,0.060976
1548437488285,-1.024231,0.092468,0.149841,0.304878,-0.975610,0.121951
1548437488300,-1.024963,0.094543,0.150818,0.548781,-0.853659,0.121951
1548437488307,-1.024231,0.090027,0.153748,0.243902,-1.036585,0.000000
1548437488315,-1.021667,0.091797,0.152405,0.365854,-0.975610,-0.060976
1548437488330,-1.021240,0.092773,0.156006,0.365854,-0.914634,0.000000
1548437488338,-1.021057,0.092041,0.159851,0.304878,-1.097561,-0.060976
1548437488345,-1.021729,0.091675,0.161133,0.304878,-1.097561,-0.060976
1548437488361,-1.022644,0.089355,0.163025,0.365854,-1.036585,-0.121951
1548437488368,-1.021851,0.089905,0.161560,0.426829,-0.975610,-0.182927
1548437488375,-1.024597,0.090393,0.158325,0.426829,-0.914634,-0.243902
1548437488390,-1.026855,0.088806,0.158569,0.609756,-0.975610,-0.182927
1548437488398,-1.024292,0.086243,0.156738,0.670732,-0.975610,-0.182927
1548437488406,-1.025513,0.084412,0.155457,0.609756,-0.914634,-0.121951
1548437488420,-1.024109,0.083801,0.158875,0.548781,-0.853659,0.000000
1548437488428,-1.025330,0.082886,0.157166,0.426829,-0.731707,0.060976
1548437488435,-1.026794,0.084045,0.153748,0.304878,-0.670732,0.182927
1548437488450,-1.025024,0.081909,0.153748,0.243902,-0.670732,0.426829
1548437488458,-1.024719,0.081604,0.155823,0.060976,-0.670732,0.487805
1548437488465,-1.024780,0.085449,0.156494,0.121951,-0.609756,0.670732
1548437488481,-1.023987,0.086975,0.156433,0.060976,-0.487805,0.731707
1548437488488,-1.024231,0.087891,0.156189,0.000000,-0.487805,0.853659
1548437488495,-1.023254,0.089783,0.157166,-0.060976,-0.426829,0.792683
1548437488510,-1.024536,0.089600,0.154724,-0.121951,-0.487805,0.853659
1548437488518,-1.024719,0.092590,0.157593,-0.182927,-0.487805,0.914634
1548437488533,-1.022827,0.094604,0.155701,-0.243902,-0.548781,0.975610
1548437488540,-1.022644,0.095398,0.153259,-0.060976,-0.548781,0.914634
1548437488548,-1.023926,0.096252,0.153076,0.000000,-0.487805,0.853659
1548437488555,-1.023743,0.097290,0.154480,0.121951,-0.548781,0.792683
1548437488570,-1.021912,0.098267,0.154236,0.121951,-0.548781,0.670732
1548437488577,-1.023315,0.096436,0.153992,0.182927,-0.609756,0.548781
1548437488585,-1.022461,0.097107,0.155029,0.304878,-0.609756,0.487805
1548437488600,-1.022644,0.097717,0.156128,0.243902,-0.670732,0.304878
1548437488608,-1.024109,0.097168,0.154114,0.243902,-0.670732,0.182927
1548437488630,-1.023621,0.094727,0.155701,0.487805,-0.853659,0.060976
1548437488631,-1.024719,0.093811,0.155151,0.609756,-0.853659,0.000000
1548437488637,-1.023254,0.091797,0.155579,0.548781,-0.731707,0.000000
1548437488645,-1.024597,0.092529,0.154541,0.487805,-0.792683,-0.121951
1548437488660,-1.024597,0.089722,0.154785,0.548781,-0.731707,-0.121951
1548437488667,-1.025391,0.089722,0.154358,0.609756,-0.792683,-0.121951
1548437488675,-1.026123,0.088623,0.153870,0.487805,-0.914634,-0.121951
1548437488690,-1.022949,0.087952,0.152527,0.548781,-0.853659,-0.121951
1548437488698,-1.023804,0.087830,0.150269,0.487805,-0.792683,-0.121951
1548437488705,-1.025696,0.088989,0.150146,0.365854,-0.853659,-0.121951
1548437488720,-1.025146,0.088013,0.151855,0.365854,-0.914634,-0.060976
1548437488735,-1.025085,0.088135,0.152283,0.365854,-0.792683,0.000000
1548437488736,-1.022888,0.088867,0.154053,0.365854,-0.853659,0.121951
1548437488750,-1.025635,0.088074,0.154114,0.365854,-0.914634,0.182927
1548437488758,-1.023926,0.088318,0.155762,0.365854,-0.975610,0.182927
1548437488765,-1.023987,0.086670,0.157104,0.243902,-0.914634,0.182927
1548437488780,-1.023804,0.086914,0.157043,0.182927,-0.914634,0.304878
1548437488788,-1.024353,0.090210,0.158325,0.182927,-0.853659,0.243902
1548437488795,-1.023254,0.090149,0.158630,0.121951,-0.731707,0.365854
1548437488810,-1.024231,0.089600,0.156433,0.121951,-0.853659,0.426829
1548437488818,-1.023254,0.090454,0.159546,0.182927,-0.792683,0.304878
1548437488825,-1.022888,0.090027,0.160950,0.243902,-0.792683,0.365854
1548437488840,-1.024475,0.090942,0.153870,0.243902,-0.731707,0.365854
1548437488848,-1.024109,0.091370,0.152100,0.121951,-0.670732,0.365854
1548437488857,-1.022705,0.091614,0.156067,0.243902,-0.731707,0.365854
1548437488870,-1.025085,0.093445,0.153748,0.243902,-0.731707,0.365854
1548437488880,-1.024353,0.093506,0.153931,0.243902,-0.731707,0.304878
1548437488885,-1.024780,0.091736,0.152649,0.304878,-0.792683,0.243902
1548437488900,-1.024475,0.092590,0.150574,0.243902,-0.853659,0.304878
1548437488908,-1.023071,0.091980,0.150879,0.365854,-0.914634,0.121951
1548437488915,-1.022644,0.092651,0.154785,0.243902,-0.731707,0.121951
1548437488930,-1.022705,0.093933,0.157288,0.182927,-0.731707,0.121951
1548437488938,-1.022095,0.092529,0.156311,0.243902,-0.731707,0.121951
1548437488946,-1.024963,0.093811,0.155457,0.243902,-0.731707,0.121951
1548437488960,-1.023193,0.093933,0.155151,0.243902,-0.792683,0.060976
1548437488968,-1.022888,0.093201,0.153137,0.365854,-0.792683,0.060976
1548437488975,-1.025208,0.093140,0.154236,0.426829,-0.853659,-0.060976
1548437488990,-1.026062,0.093628,0.152710,0.304878,-0.853659,-0.060976
1548437488998,-1.024292,0.092407,0.151917,0.426829,-0.853659,-0.121951
1548437489005,-1.025024,0.091187,0.153076,0.609756,-0.914634,-0.182927
1548437489020,-1.023987,0.088806,0.155273,0.548781,-0.914634,-0.243902
1548437489028,-1.023315,0.089539,0.157288,0.426829,-0.914634,-0.182927
1548437489035,-1.023682,0.088989,0.155396,0.426829,-0.975610,-0.182927
1548437489050,-1.023865,0.088501,0.156982,0.426829,-0.975610,-0.243902
1548437489058,-1.024963,0.088501,0.156250,0.426829,-0.975610,-0.243902
1548437489065,-1.025024,0.087463,0.156677,0.426829,-0.853659,-0.182927
1548437489080,-1.024841,0.085938,0.156860,0.609756,-0.853659,-0.060976
1548437489088,-1.023438,0.086426,0.157776,0.548781,-0.853659,0.000000
1548437489095,-1.025024,0.084656,0.160278,0.548781,-0.853659,0.060976
1548437489110,-1.025330,0.085327,0.158936,0.487805,-0.792683,0.182927
1548437489118,-1.024109,0.085693,0.157471,0.365854,-0.731707,0.304878
1548437489125,-1.024414,0.084290,0.157776,0.426829,-0.670732,0.243902
1548437489140,-1.025513,0.085815,0.157776,0.243902,-0.670732,0.365854
1548437489148,-1.024658,0.086670,0.156372,0.243902,-0.731707,0.426829
1548437489155,-1.024170,0.085693,0.157837,0.304878,-0.670732,0.487805
1548437489170,-1.026428,0.085754,0.156250,0.243902,-0.548781,0.609756
1548437489178,-1.024536,0.089905,0.152466,0.182927,-0.548781,0.731707
1548437489185,-1.023987,0.091675,0.152893,0.182927,-0.548781,0.731707
1548437489200,-1.023743,0.093872,0.154785,0.000000,-0.548781,0.670732
1548437489208,-1.023682,0.093750,0.154785,-0.121951,-0.548781,0.731707
1548437489215,-1.022827,0.092712,0.153564,-0.121951,-0.487805,0.853659
1548437489230,-1.022583,0.094299,0.151611,-0.060976,-0.548781,0.731707
1548437489238,-1.022827,0.095825,0.149414,0.121951,-0.670732,0.670732
1548437489245,-1.023132,0.096619,0.152344,0.121951,-0.670732,0.670732
1548437489267,-1.022522,0.096680,0.153625,0.182927,-0.731707,0.487805
1548437489268,-1.021423,0.096558,0.153625,0.304878,-0.914634,0.365854
1548437489275,-1.024231,0.097595,0.152161,0.182927,-0.792683,0.304878
1548437489283,-1.023376,0.098206,0.153809,0.182927,-0.914634,0.243902
1548437489298,-1.022827,0.096680,0.152771,0.365854,-1.036585,0.121951
1548437489305,-1.024719,0.093872,0.153259,0.548781,-1.036585,0.060976
1548437489313,-1.024414,0.092651,0.151001,0.548781,-1.036585,-0.060976
1548437489328,-1.022278,0.091919,0.155701,0.609756,-0.975610,-0.182927
1548437489335,-1.022400,0.091309,0.155579,0.731707,-1.097561,-0.121951
1548437489343,-1.022339,0.089966,0.157166,0.670732,-1.036585,-0.121951
1548437489357,-1.022034,0.087891,0.156372,0.548781,-1.158537,-0.182927
1548437489365,-1.023682,0.087158,0.158630,0.609756,-1.158537,-0.121951
1548437489372,-1.024536,0.085449,0.158081,0.609756,-1.036585,-0.060976
1548437489388,-1.025269,0.085388,0.162292,0.609756,-1.036585,0.000000
1548437489395,-1.027344,0.082214,0.162048,0.487805,-0.975610,0.060976
1548437489403,-1.026550,0.082153,0.159302,0.609756,-0.792683,0.121951
1548437489418,-1.025452,0.082703,0.162354,0.548781,-0.731707,0.365854
1548437489425,-1.027344,0.078064,0.163147,0.609756,-0.609756,0.487805
1548437489433,-1.027222,0.075256,0.165222,0.182927,-0.365854,0.731707
1548437489448,-1.025330,0.072754,0.168457,-0.243902,-0.304878,0.914634
1548437489455,-1.025818,0.068054,0.162781,-0.670732,-0.060976,1.219512
1548437489463,-1.024658,0.075623,0.154541,-0.548781,0.060976,1.585366
1548437489478,-1.025330,0.082275,0.150391,0.182927,0.000000,1.951220
1548437489485,-1.023560,0.092590,0.152771,0.975610,0.182927,2.195122
1548437489493,-1.019104,0.107117,0.152893,-0.121951,0.609756,2.134146
1548437489515,-1.017822,0.118347,0.150757,-1.829268,0.548781,1.829268
1548437489516,-1.013306,0.120728,0.145630,-2.073171,-0.121951,1.585366
1548437489523,-1.009277,0.119446,0.144958,-1.158537,-0.670732,1.280488
1548437489538,-1.013672,0.112732,0.140625,-0.121951,-0.914634,1.036585
1548437489545,-1.023438,0.107666,0.138184,0.731707,-0.975610,0.731707
1548437489553,-1.026001,0.106812,0.143555,1.646341,-1.219512,0.304878
1548437489568,-1.027710,0.105225,0.148376,1.524390,-1.036585,-0.060976
1548437489575,-1.024414,0.104858,0.142883,0.914634,-1.158537,-0.304878
1548437489583,-1.026245,0.104126,0.144714,0.731707,-1.402439,-0.731707
1548437489605,-1.031067,0.103394,0.147461,0.548781,-1.829268,-1.097561
1548437489606,-1.028503,0.099792,0.149170,0.548781,-1.890244,-1.158537
1548437489613,-1.027771,0.093750,0.150391,0.731707,-1.707317,-1.097561
1548437489628,-1.023987,0.087524,0.156616,0.975610,-1.524390,-0.975610
1548437489635,-1.021362,0.086914,0.161011,0.975610,-1.463415,-0.914634
1548437489643,-1.022888,0.085510,0.163635,0.914634,-1.402439,-0.975610
1548437489658,-1.023560,0.083191,0.170654,0.670732,-1.341463,-0.975610
1548437489665,-1.023315,0.084961,0.169617,0.731707,-1.341463,-0.975610
1548437489673,-1.019836,0.081299,0.167480,0.792683,-1.219512,-0.853659
1548437489688,-1.021118,0.079834,0.168396,0.792683,-1.097561,-0.731707
1548437489695,-1.022766,0.077637,0.166138,0.670732,-0.975610,-0.487805
1548437489703,-1.024841,0.078125,0.163452,0.670732,-0.975610,-0.243902
1548437489718,-1.027771,0.077881,0.160461,0.609756,-0.853659,0.000000
1548437489725,-1.027893,0.078735,0.158569,0.426829,-0.792683,0.243902
1548437489733,-1.025818,0.080444,0.157227,0.304878,-0.609756,0.548781
1548437489748,-1.025391,0.081421,0.159058,0.000000,-0.365854,0.731707
1548437489755,-1.024658,0.083618,0.159241,-0.121951,-0.243902,0.914634
1548437489763,-1.024780,0.085388,0.157776,-0.182927,-0.243902,1.036585
1548437489778,-1.025146,0.087036,0.155090,-0.121951,-0.365854,1.158537
1548437489785,-1.023438,0.090515,0.153992,-0.182927,-0.365854,1.341463
1548437489800,-1.024414,0.095337,0.151184,-0.121951,-0.365854,1.341463
1548437489808,-1.023682,0.095764,0.149902,-0.243902,-0.426829,1.341463
1548437489816,-1.024597,0.096619,0.149048,-0.304878,-0.487805,1.280488
1548437489824,-1.026001,0.097473,0.148438,-0.182927,-0.609756,1.158537
1548437489838,-1.024963,0.099243,0.148499,0.060976,-0.609756,1.219512
1548437489862,-1.022888,0.101196,0.149353,0.243902,-0.731707,0.975610
1548437489863,-1.023132,0.102783,0.151428,0.182927,-0.731707,0.914634
1548437489872,-1.022217,0.098389,0.153503,0.182927,-0.792683,0.792683
1548437489883,-1.023560,0.097046,0.154358,0.182927,-0.853659,0.670732
1548437489883,-1.023132,0.099548,0.155090,0.182927,-1.036585,0.487805
1548437489899,-1.023865,0.099243,0.156250,0.182927,-1.036585,0.365854
1548437489909,-1.022400,0.098816,0.157715,0.182927,-1.036585,0.304878
1548437489925,-1.023254,0.097717,0.159180,0.365854,-0.975610,0.121951
1548437489929,-1.023804,0.096313,0.157349,0.548781,-1.036585,0.000000
1548437489936,-1.023926,0.095642,0.155273,0.548781,-1.036585,0.060976
1548437489943,-1.022461,0.095825,0.156433,0.548781,-1.036585,-0.060976
1548437489957,-1.020996,0.095459,0.157898,0.548781,-1.097561,-0.121951
1548437489965,-1.021729,0.093079,0.158508,0.426829,-1.036585,-0.121951
1548437489973,-1.024780,0.091431,0.157715,0.365854,-1.036585,-0.121951
1548437489988,-1.025269,0.091431,0.160583,0.426829,-0.975610,-0.182927
1548437489995,-1.022034,0.090576,0.161011,0.548781,-0.975610,-0.121951
1548437490003,-1.021851,0.089417,0.161377,0.426829,-0.914634,-0.182927
1548437490018,-1.022461,0.090210,0.162903,0.548781,-0.731707,-0.121951
1548437490025,-1.022583,0.090698,0.161072,0.365854,-0.670732,-0.121951
1548437490032,-1.022583,0.088928,0.158325,0.365854,-0.731707,0.000000
1548437490048,-1.023438,0.089294,0.158936,0.365854,-0.670732,-0.060976
1548437490055,-1.024231,0.090027,0.158752,0.365854,-0.670732,0.000000
1548437490063,-1.024658,0.091431,0.160095,0.365854,-0.609756,0.000000
1548437490078,-1.022278,0.090515,0.155945,0.304878,-0.548781,0.060976
1548437490085,-1.022705,0.088684,0.158752,0.365854,-0.487805,0.060976
1548437490092,-1.022888,0.091553,0.156250,0.487805,-0.487805,0.000000
1548437490115,-1.022461,0.092712,0.154175,0.487805,-0.487805,0.060976
1548437490116,-1.022888,0.092468,0.154175,0.487805,-0.487805,0.060976
1548437490123,-1.021240,0.089966,0.154602,0.426829,-0.609756,0.121951
1548437490138,-1.022461,0.092773,0.153320,0.365854,-0.609756,0.060976
1548437490145,-1.024597,0.095947,0.152649,0.304878,-0.548781,0.060976
1548437490153,-1.023743,0.097961,0.149902,0.365854,-0.609756,0.060976
1548437490168,-1.023987,0.095520,0.150208,0.426829,-0.609756,-0.060976
1548437490175,-1.026123,0.096375,0.151917,0.548781,-0.609756,-0.182927
1548437490182,-1.023193,0.097534,0.153992,0.487805,-0.731707,-0.243902
1548437490198,-1.023682,0.097290,0.153870,0.365854,-0.731707,-0.243902
1548437490205,-1.024048,0.096741,0.156433,0.426829,-0.853659,-0.304878
1548437490220,-1.023743,0.097290,0.154419,0.426829,-0.975610,-0.487805
1548437490228,-1.024841,0.095581,0.156372,0.548781,-0.914634,-0.487805
1548437490235,-1.023804,0.092041,0.157959,0.670732,-0.975610,-0.487805
1548437490243,-1.020874,0.088135,0.158936,0.975610,-1.036585,-0.670732
1548437490258,-1.022583,0.088379,0.156982,0.975610,-0.914634,-0.731707
1548437490265,-1.025574,0.086182,0.154358,0.914634,-0.975610,-0.670732
1548437490273,-1.025024,0.084534,0.154480,0.914634,-0.914634,-0.548781
1548437490288,-1.024048,0.082886,0.158447,0.853659,-1.036585,-0.487805
1548437490295,-1.027832,0.080688,0.157043,0.792683,-1.036585,-0.426829
1548437490303,-1.023621,0.077881,0.156250,0.548781,-0.975610,-0.304878
1548437490318,-1.023682,0.078552,0.157898,0.487805,-0.975610,-0.121951
1548437490325,-1.025635,0.079346,0.159302,0.304878,-0.975610,0.060976
1548437490333,-1.024841,0.080688,0.155396,0.243902,-0.792683,0.304878
1548437490348,-1.026001,0.080872,0.157104,0.304878,-0.975610,0.426829
1548437490355,-1.023438,0.082214,0.156372,0.243902,-0.792683,0.548781
1548437490363,-1.024841,0.083496,0.154724,0.121951,-0.792683,0.792683
1548437490378,-1.024414,0.086914,0.156494,0.060976,-0.731707,0.914634
1548437490385,-1.024109,0.090576,0.154358,-0.121951,-0.792683,0.914634
1548437490393,-1.023071,0.092957,0.154907,-0.182927,-0.853659,0.975610
1548437490408,-1.021179,0.093689,0.155396,-0.121951,-0.792683,1.036585
1548437490415,-1.024292,0.095459,0.153442,-0.060976,-0.853659,1.036585
1548437490422,-1.023193,0.095520,0.153992,0.060976,-0.914634,1.036585
1548437490437,-1.022217,0.097046,0.156616,0.060976,-0.975610,1.036585
1548437490445,-1.022095,0.096680,0.157898,0.243902,-0.914634,0.914634
1548437490453,-1.022156,0.096252,0.161011,0.121951,-0.914634,0.853659
1548437490468,-1.025513,0.095276,0.164246,0.121951,-0.975610,0.731707
1548437490475,-1.023682,0.096680,0.162537,0.121951,-0.914634,0.670732
1548437490483,-1.022949,0.095703,0.161072,0.243902,-0.792683,0.609756
1548437490498,-1.024231,0.094666,0.160400,0.243902,-0.792683,0.548781
1548437490505,-1.024841,0.094666,0.160461,0.426829,-0.731707,0.548781
1548437490513,-1.023071,0.094299,0.160339,0.304878,-0.670732,0.487805
1548437490528,-1.022766,0.092529,0.158569,0.365854,-0.609756,0.365854
1548437490535,-1.023132,0.093506,0.154602,0.365854,-0.609756,0.426829
1548437490543,-1.022400,0.091858,0.153503,0.304878,-0.487805,0.426829
1548437490558,-1.021729,0.091248,0.151611,0.243902,-0.548781,0.365854
1548437490565,-1.024780,0.091614,0.152161,0.365854,-0.609756,0.243902
1548437490573,-1.023499,0.089722,0.153137,0.365854,-0.670732,0.304878
1548437490588,-1.023621,0.089722,0.147644,0.243902,-0.731707,0.243902
1548437490595,-1.023926,0.091309,0.148987,0.243902,-0.792683,0.304878
1548437490603,-1.022339,0.089478,0.150818,0.304878,-1.036585,0.243902
1548437490618,-1.023254,0.090088,0.154236,0.304878,-1.036585,0.304878
1548437490625,-1.024475,0.091797,0.156067,0.243902,-0.975610,0.304878
1548437490633,-1.022949,0.094421,0.158691,0.182927,-1.097561,0.304878
1548437490647,-1.021851,0.097290,0.158813,0.000000,-1.158537,0.365854
1548437490655,-1.020264,0.097961,0.159363,0.121951,-1.097561,0.304878
1548437490663,-1.024963,0.096191,0.158447,0.182927,-1.036585,0.365854
1548437490678,-1.026672,0.097595,0.158997,0.243902,-1.280488,0.182927
1548437490685,-1.023010,0.097412,0.159607,0.426829,-1.219512,0.182927
1548437490693,-1.023926,0.097107,0.162720,0.365854,-1.036585,0.182927
1548437490708,-1.024231,0.094604,0.161987,0.304878,-0.914634,0.060976
1548437490715,-1.023499,0.094299,0.161926,0.243902,-0.853659,0.000000
1548437490723,-1.023315,0.092957,0.160950,0.426829,-0.914634,0.060976
1548437490738,-1.023926,0.093567,0.159302,0.426829,-0.914634,0.000000
1548437490745,-1.023682,0.093750,0.158752,0.426829,-0.792683,-0.060976
1548437490753,-1.021912,0.092407,0.159546,0.487805,-0.731707,-0.060976
1548437490768,-1.020752,0.092102,0.156799,0.426829,-0.670732,-0.060976
1548437490775,-1.023376,0.090515,0.155151,0.487805,-0.731707,-0.121951
1548437490783,-1.023315,0.089417,0.154053,0.487805,-0.731707,-0.121951
1548437490798,-1.023804,0.090454,0.152893,0.487805,-0.731707,0.000000
1548437490805,-1.024353,0.089111,0.157104,0.426829,-0.731707,-0.060976
1548437490813,-1.025146,0.087646,0.157288,0.304878,-0.609756,0.000000
1548437490828,-1.024719,0.086426,0.157654,0.243902,-0.731707,0.060976
1548437490835,-1.023438,0.084839,0.157837,0.365854,-0.792683,0.182927
1548437490843,-1.023010,0.085876,0.157593,0.487805,-0.731707,0.304878
1548437490858,-1.021912,0.086670,0.158936,0.304878,-0.670732,0.426829
1548437490865,-1.021362,0.086304,0.157532,0.365854,-0.670732,0.548781
1548437490873,-1.021362,0.085449,0.155823,0.182927,-0.609756,0.670732
1548437490888,-1.022339,0.088379,0.158081,0.121951,-0.670732,0.792683
1548437490895,-1.022339,0.090576,0.157166,0.000000,-0.792683,0.792683
1548437490903,-1.023010,0.093445,0.154968,-0.182927,-0.731707,0.853659
1548437490925,-1.024902,0.094116,0.152832,-0.243902,-0.792683,0.853659
1548437490926,-1.023560,0.095154,0.155457,-0.121951,-0.792683,0.792683
1548437490933,-1.023499,0.096069,0.154358,-0.121951,-0.975610,0.792683
1548437490948,-1.024658,0.097961,0.150208,-0.060976,-1.036585,0.731707
1548437490955,-1.024536,0.096130,0.152405,-0.060976,-1.097561,0.670732
1548437490963,-1.024719,0.098328,0.155334,-0.060976,-1.097561,0.609756
1548437490978,-1.023804,0.100098,0.156189,0.000000,-1.097561,0.487805
1548437490985,-1.023376,0.097534,0.154419,0.000000,-1.158537,0.426829
1548437490993,-1.022278,0.099060,0.155518,0.000000,-1.280488,0.304878
1548437491008,-1.025391,0.098328,0.156982,0.243902,-1.341463,0.243902
1548437491015,-1.022095,0.097168,0.156189,0.365854,-1.463415,0.182927
1548437491023,-1.022034,0.096619,0.158081,0.304878,-1.524390,0.060976
1548437491038,-1.024292,0.094727,0.159851,0.548781,-1.463415,-0.060976
1548437491045,-1.022522,0.095642,0.161926,0.426829,-1.463415,-0.182927
1548437491053,-1.021545,0.091003,0.162476,0.304878,-1.524390,-0.182927
1548437491068,-1.022705,0.091614,0.160645,0.365854,-1.524390,-0.182927
1548437491075,-1.023926,0.098267,0.161804,0.304878,-1.280488,-0.182927
1548437491083,-1.022461,0.090942,0.165710,0.121951,-1.341463,-0.182927
1548437491098,-1.022949,0.088684,0.166809,0.304878,-1.219512,-0.182927
1548437491112,-1.022644,0.089294,0.163391,0.609756,-1.219512,-0.182927
1548437491113,-1.022583,0.093018,0.164185,0.365854,-1.219512,-0.182927
1548437491128,-1.022156,0.093567,0.162964,0.121951,-1.097561,-0.121951
1548437491135,-1.021179,0.090637,0.162048,0.243902,-1.097561,0.000000
1548437491143,-1.022583,0.090454,0.160095,0.304878,-1.097561,-0.121951
1548437491158,-1.022644,0.090149,0.160583,0.426829,-1.097561,-0.060976
1548437491165,-1.023254,0.090332,0.159607,0.365854,-1.158537,-0.060976
1548437491173,-1.025269,0.087830,0.155701,0.304878,-1.158537,0.121951
1548437491188,-1.024048,0.086914,0.156311,0.426829,-1.158537,0.121951
1548437491195,-1.023560,0.086365,0.161133,0.365854,-1.219512,0.182927
1548437491203,-1.026733,0.087341,0.158691,0.182927,-1.158537,0.243902
1548437491218,-1.023682,0.089417,0.156372,0.243902,-1.036585,0.243902
1548437491225,-1.024048,0.086975,0.156677,0.243902,-1.097561,0.365854
1548437491233,-1.025146,0.085754,0.160583,0.121951,-1.158537,0.487805
1548437491248,-1.026062,0.087463,0.163635,0.000000,-1.158537,0.548781
1548437491255,-1.026672,0.089783,0.159424,0.000000,-1.219512,0.609756
1548437491263,-1.024902,0.091980,0.158081,0.060976,-1.036585,0.670732
1548437491278,-1.023987,0.090942,0.158630,0.121951,-1.036585,0.731707
1548437491285,-1.024353,0.091064,0.160278,0.121951,-1.097561,0.792683
1548437491293,-1.024048,0.092712,0.160828,0.121951,-1.158537,0.731707
1548437491308,-1.022888,0.093140,0.162598,0.121951,-1.036585,0.731707
1548437491315,-1.022278,0.094299,0.162903,0.121951,-0.975610,0.792683
1548437491322,-1.022339,0.095703,0.161072,-0.060976,-0.914634,0.731707
1548437491338,-1.020264,0.094849,0.164917,-0.121951,-0.975610,0.731707
1548437491345,-1.020508,0.094971,0.164734,-0.121951,-0.975610,0.609756
1548437491353,-1.019958,0.096680,0.161316,0.000000,-0.914634,0.487805
1548437491368,-1.019897,0.098999,0.162842,0.121951,-0.853659,0.426829
1548437491382,-1.020813,0.098328,0.160950,0.121951,-0.792683,0.365854
1548437491383,-1.024780,0.097168,0.157471,0.243902,-0.853659,0.304878
1548437491398,-1.024963,0.097229,0.159851,0.182927,-0.792683,0.121951
1548437491405,-1.025391,0.096619,0.157227,0.121951,-0.792683,0.000000
1548437491413,-1.024109,0.099670,0.156311,0.182927,-0.914634,0.000000
1548437491428,-1.024231,0.098572,0.158569,0.243902,-0.914634,-0.060976
1548437491435,-1.024475,0.095642,0.158325,0.243902,-0.975610,-0.182927
1548437491443,-1.021606,0.093384,0.157776,0.304878,-0.914634,-0.243902
1548437491458,-1.022278,0.093018,0.159302,0.487805,-0.914634,-0.243902
1548437491465,-1.022827,0.093628,0.158630,0.548781,-1.036585,-0.182927
1548437491473,-1.021606,0.091858,0.161560,0.609756,-0.975610,-0.304878
1548437491488,-1.022339,0.090576,0.163574,0.487805,-1.036585,-0.304878
1548437491495,-1.021423,0.090210,0.162781,0.365854,-1.036585,-0.365854
1548437491503,-1.021667,0.087891,0.162720,0.487805,-1.036585,-0.304878
1548437491518,-1.022095,0.086548,0.163818,0.670732,-1.036585,-0.121951
1548437491525,-1.022461,0.086670,0.163879,0.548781,-1.097561,-0.060976
1548437491533,-1.022705,0.085754,0.162415,0.487805,-0.975610,-0.060976
1548437491548,-1.022583,0.086426,0.163696,0.487805,-0.975610,0.060976
1548437491555,-1.022461,0.085876,0.164001,0.426829,-0.975610,0.060976
1548437491563,-1.022461,0.086914,0.162292,0.304878,-0.914634,0.060976
1548437491578,-1.023560,0.089172,0.161194,0.243902,-0.853659,0.243902
1548437491585,-1.024597,0.086914,0.162048,0.182927,-0.853659,0.426829
1548437491593,-1.020874,0.089661,0.163940,0.243902,-0.853659,0.365854
1548437491608,-1.023621,0.091431,0.162903,0.243902,-0.914634,0.426829
1548437491615,-1.024658,0.090576,0.162476,0.182927,-0.853659,0.487805
1548437491623,-1.022766,0.092651,0.164307,0.182927,-0.792683,0.487805
1548437491638,-1.022400,0.094299,0.162659,0.243902,-0.792683,0.548781
1548437491645,-1.022644,0.093567,0.162109,0.182927,-0.731707,0.609756
1548437491653,-1.021179,0.095764,0.161865,0.121951,-0.792683,0.548781
1548437491668,-1.022949,0.095520,0.160095,0.243902,-0.853659,0.548781
1548437491675,-1.024048,0.093933,0.160828,0.182927,-0.792683,0.487805
1548437491683,-1.023499,0.095825,0.162781,0.243902,-0.853659,0.426829
1548437491705,-1.023926,0.094788,0.162537,0.304878,-0.731707,0.304878
1548437491706,-1.023865,0.093933,0.162292,0.365854,-0.670732,0.365854
1548437491713,-1.024109,0.093567,0.163818,0.365854,-0.670732,0.304878
1548437491728,-1.023560,0.093872,0.162354,0.304878,-0.609756,0.243902
1548437491735,-1.022522,0.094727,0.161560,0.365854,-0.609756,0.182927
1548437491743,-1.021240,0.092529,0.159973,0.243902,-0.609756,0.182927
1548437491758,-1.020996,0.091736,0.162415,0.304878,-0.609756,0.182927
1548437491765,-1.020447,0.092224,0.158997,0.365854,-0.731707,0.182927
1548437491773,-1.023499,0.092773,0.157959,0.426829,-0.731707,0.121951
1548437491788,-1.021362,0.092834,0.158325,0.365854,-0.792683,0.121951
1548437491795,-1.020630,0.094421,0.157654,0.182927,-0.792683,0.121951
1548437491803,-1.021851,0.094238,0.158020,0.121951,-0.792683,0.121951
1548437491818,-1.022461,0.095459,0.156677,0.243902,-0.792683,0.000000
1548437491825,-1.021301,0.094360,0.156677,0.304878,-0.853659,0.000000
1548437491833,-1.020996,0.094177,0.160217,0.304878,-1.036585,0.000000
1548437491848,-1.022461,0.094788,0.161133,0.487805,-0.975610,0.060976
1548437491855,-1.023438,0.093506,0.158997,0.426829,-0.975610,0.000000
1548437491863,-1.022339,0.092346,0.163025,0.548781,-1.097561,0.000000
1548437491878,-1.023621,0.088989,0.161621,0.548781,-1.097561,0.060976
1548437491885,-1.023254,0.089905,0.163879,0.487805,-1.036585,0.000000
1548437491893,-1.022949,0.089050,0.167847,0.609756,-1.036585,0.060976
1548437491908,-1.024292,0.088135,0.165771,0.609756,-0.975610,0.121951
1548437491915,-1.022461,0.088257,0.166382,0.426829,-0.914634,0.182927
1548437491923,-1.022949,0.086975,0.167480,0.487805,-0.975610,0.243902
1548437491938,-1.025635,0.087891,0.165649,0.426829,-0.914634,0.304878
1548437491945,-1.022644,0.089539,0.165161,0.426829,-0.792683,0.365854
1548437491953,-1.021912,0.088501,0.167175,0.304878,-0.670732,0.487805
1548437491968,-1.020386,0.089905,0.166931,0.182927,-0.609756,0.487805
1548437491975,-1.020569,0.090088,0.164917,0.060976,-0.487805,0.548781
1548437491983,-1.022034,0.092407,0.162598,0.000000,-0.487805,0.609756
1548437492005,-1.024292,0.093079,0.160095,0.121951,-0.548781,0.609756
1548437492006,-1.025574,0.093018,0.158508,0.182927,-0.548781,0.609756
1548437492013,-1.024353,0.096130,0.158020,0.182927,-0.548781,0.609756
1548437492028,-1.023438,0.095825,0.157471,0.182927,-0.487805,0.487805
1548437492035,-1.022705,0.096680,0.155579,0.121951,-0.548781,0.426829
1548437492043,-1.022644,0.097046,0.155396,0.060976,-0.609756,0.426829
1548437492058,-1.022705,0.096680,0.158813,0.182927,-0.731707,0.365854
1548437492065,-1.022461,0.097473,0.158508,0.121951,-0.792683,0.304878
1548437492073,-1.023010,0.097961,0.158691,0.182927,-0.792683,0.304878
1548437492088,-1.021851,0.096008,0.159119,0.365854,-0.914634,0.121951
1548437492095,-1.022217,0.094849,0.160645,0.365854,-0.914634,0.060976
1548437492103,-1.023376,0.094299,0.160095,0.365854,-0.853659,0.000000
1548437492118,-1.021667,0.094971,0.163696,0.487805,-0.914634,-0.060976
1548437492125,-1.022644,0.093262,0.164062,0.426829,-0.975610,-0.121951
1548437492133,-1.022339,0.093445,0.164307,0.487805,-0.914634,-0.182927
1548437492148,-1.022339,0.090088,0.160706,0.548781,-0.914634,-0.182927
1548437492155,-1.024170,0.089233,0.161621,0.487805,-0.914634,-0.121951
1548437492163,-1.022095,0.089783,0.164490,0.365854,-0.914634,-0.121951
1548437492178,-1.022583,0.088562,0.164246,0.487805,-0.792683,-0.121951
1548437492185,-1.024353,0.088196,0.162842,0.426829,-0.792683,-0.060976
1548437492193,-1.021851,0.089722,0.163757,0.365854,-0.914634,0.060976
1548437492208,-1.022095,0.088257,0.162598,0.365854,-0.731707,0.121951
1548437492215,-1.022583,0.089233,0.161682,0.304878,-0.731707,0.121951
1548437492223,-1.023804,0.088013,0.160767,0.365854,-0.792683,0.182927
1548437492238,-1.021790,0.089050,0.161011,0.365854,-0.731707,0.182927
1548437492245,-1.021545,0.090759,0.160767,0.304878,-0.670732,0.304878
1548437492253,-1.023071,0.090942,0.160461,0.243902,-0.670732,0.243902
1548437492268,-1.023071,0.091858,0.160461,0.243902,-0.731707,0.304878
1548437492275,-1.022034,0.089600,0.162231,0.304878,-0.670732,0.304878
1548437492283,-1.022034,0.090393,0.163696,0.304878,-0.731707,0.365854
1548437492298,-1.020935,0.093018,0.162354,0.243902,-0.609756,0.426829
1548437492305,-1.022034,0.093994,0.162109,0.304878,-0.670732,0.426829
1548437492313,-1.021851,0.093323,0.161194,0.304878,-0.731707,0.365854
1548437492328,-1.022339,0.092896,0.160767,0.243902,-0.670732,0.365854
1548437492335,-1.021301,0.095337,0.161194,0.304878,-0.731707,0.426829
1548437492343,-1.020996,0.093872,0.158630,0.304878,-0.731707,0.365854
1548437492358,-1.021179,0.094482,0.160645,0.365854,-0.731707,0.365854
1548437492365,-1.020203,0.094604,0.159729,0.365854,-0.792683,0.304878
1548437492373,-1.020630,0.093201,0.160767,0.426829,-0.731707,0.304878
1548437492388,-1.024292,0.095886,0.159180,0.487805,-0.792683,0.182927
1548437492395,-1.023315,0.094543,0.160889,0.365854,-0.792683,0.121951
1548437492403,-1.022034,0.094788,0.161377,0.365854,-0.731707,0.182927
1548437492418,-1.021667,0.094116,0.161072,0.426829,-0.792683,0.121951
1548437492425,-1.023193,0.093201,0.162048,0.365854,-0.792683,0.121951
1548437492433,-1.022400,0.090576,0.161743,0.365854,-0.792683,0.182927
1548437492448,-1.023438,0.092346,0.161682,0.426829,-0.792683,0.121951
1548437492455,-1.022278,0.091980,0.161804,0.365854,-0.731707,0.121951
1548437492463,-1.022583,0.091003,0.162048,0.365854,-0.731707,0.060976
1548437492478,-1.023071,0.092041,0.163269,0.365854,-0.853659,0.060976
1548437492492,-1.023682,0.091064,0.161316,0.304878,-0.792683,0.121951
1548437492493,-1.023438,0.091248,0.160645,0.365854,-0.853659,0.121951
1548437492508,-1.022461,0.092834,0.160645,0.487805,-0.670732,0.182927
1548437492515,-1.022339,0.089844,0.163757,0.426829,-0.731707,0.182927
1548437492523,-1.022888,0.091370,0.163086,0.365854,-0.792683,0.121951
1548437492538,-1.022400,0.092834,0.160217,0.426829,-0.792683,0.182927
1548437492545,-1.022888,0.093567,0.160767,0.304878,-0.731707,0.243902
1548437492553,-1.021912,0.089539,0.161926,0.304878,-0.670732,0.182927
1548437492568,-1.021790,0.091125,0.162903,0.304878,-0.792683,0.243902
1548437492575,-1.021545,0.091858,0.163635,0.365854,-0.731707,0.243902
1548437492583,-1.022034,0.091125,0.162720,0.243902,-0.731707,0.182927
1548437492598,-1.022461,0.091003,0.162231,0.182927,-0.731707,0.243902
1548437492605,-1.023132,0.092773,0.160767,0.365854,-0.670732,0.182927
1548437492613,-1.023376,0.092773,0.161377,0.365854,-0.670732,0.243902
1548437492628,-1.021545,0.093445,0.160400,0.365854,-0.731707,0.243902
1548437492635,-1.025024,0.091370,0.161072,0.487805,-0.792683,0.426829
1548437492643,-1.022888,0.091919,0.162170,0.365854,-0.792683,0.243902
1548437492658,-1.023682,0.094299,0.162781,0.365854,-0.792683,0.304878
1548437492665,-1.021606,0.093994,0.160828,0.365854,-0.731707,0.365854
1548437492673,-1.021973,0.093201,0.161987,0.243902,-0.731707,0.243902
1548437492688,-1.020569,0.093445,0.164429,0.304878,-0.731707,0.182927
1548437492695,-1.022644,0.093811,0.164856,0.304878,-0.792683,0.243902
1548437492703,-1.022339,0.094604,0.162598,0.304878,-0.792683,0.243902
1548437492718,-1.022156,0.094116,0.161072,0.426829,-0.792683,0.243902
1548437492725,-1.024231,0.092224,0.158325,0.365854,-0.853659,0.182927
1548437492733,-1.023499,0.091675,0.161255,0.426829,-0.792683,0.121951
1548437492748,-1.023499,0.092346,0.159668,0.426829,-0.792683,0.121951
1548437492755,-1.022827,0.093445,0.162415,0.365854,-0.731707,0.121951
1548437492763,-1.023926,0.091858,0.161499,0.182927,-0.792683,0.121951
1548437492778,-1.022095,0.091553,0.163391,0.304878,-0.731707,0.182927
1548437492785,-1.022705,0.091553,0.164917,0.243902,-0.792683,0.182927
1548437492793,-1.022400,0.090515,0.160889,0.365854,-0.670732,0.121951
1548437492808,-1.020752,0.092041,0.162720,0.365854,-0.670732,0.182927
1548437492815,-1.023682,0.090515,0.162842,0.365854,-0.670732,0.182927
1548437492823,-1.023804,0.090881,0.162231,0.304878,-0.731707,0.121951
1548437492838,-1.022156,0.092468,0.161926,0.304878,-0.792683,0.121951
1548437492845,-1.022888,0.092896,0.161743,0.365854,-0.731707,0.182927
1548437492853,-1.022461,0.092590,0.162659,0.243902,-0.731707,0.304878
1548437492868,-1.023438,0.094482,0.163391,0.182927,-0.670732,0.182927
1548437492875,-1.022095,0.094727,0.160278,0.304878,-0.670732,0.182927
1548437492883,-1.023132,0.092468,0.163574,0.487805,-0.731707,0.304878
1548437492898,-1.023621,0.091980,0.161499,0.243902,-0.731707,0.243902
1548437492906,-1.022217,0.090820,0.159485,0.365854,-0.792683,0.182927
1548437492913,-1.020020,0.093140,0.161255,0.365854,-0.670732,0.243902
1548437492928,-1.020874,0.091125,0.159485,0.365854,-0.670732,0.243902
1548437492935,-1.019470,0.090576,0.159180,0.426829,-0.731707,0.182927
1548437492943,-1.021851,0.093567,0.160767,0.426829,-0.792683,0.121951
1548437492965,-1.024048,0.092651,0.162720,0.548781,-0.731707,0.121951
1548437492966,-1.021606,0.091980,0.163025,0.365854,-0.731707,0.243902
1548437492973,-1.021667,0.091125,0.164917,0.365854,-0.731707,0.304878
1548437492988,-1.023376,0.091370,0.160217,0.487805,-0.731707,0.121951
1548437492995,-1.024292,0.091980,0.160339,0.426829,-0.853659,0.182927
1548437493003,-1.024292,0.091125,0.160217,0.365854,-0.914634,0.304878
1548437493018,-1.022095,0.091736,0.160522,0.365854,-0.792683,0.304878
1548437493025,-1.022339,0.092957,0.160278,0.365854,-0.670732,0.182927
1548437493033,-1.024353,0.092529,0.164856,0.243902,-0.731707,0.182927
1548437493048,-1.023132,0.090942,0.161804,0.304878,-0.731707,0.304878
1548437493055,-1.023010,0.092529,0.162170,0.426829,-0.731707,0.243902
1548437493070,-1.022156,0.092834,0.165222,0.365854,-0.853659,0.182927
1548437493078,-1.022034,0.094299,0.163086,0.304878,-0.731707,0.243902
1548437493085,-1.021240,0.093445,0.161621,0.365854,-0.731707,0.243902
1548437493093,-1.022461,0.091980,0.160400,0.365854,-0.731707,0.121951
1548437493108,-1.024170,0.091370,0.161621,0.304878,-0.792683,0.182927
1548437493115,-1.024109,0.094177,0.163391,0.304878,-0.670732,0.182927
1548437493123,-1.023682,0.093811,0.158997,0.243902,-0.731707,0.121951
1548437493138,-1.023376,0.093628,0.161560,0.304878,-0.731707,0.182927
1548437493145,-1.025269,0.092590,0.162781,0.365854,-0.792683,0.182927
1548437493153,-1.022217,0.091736,0.160950,0.304878,-0.792683,0.182927
1548437493168,-1.022766,0.091064,0.161377,0.365854,-0.731707,0.182927
1548437493175,-1.022278,0.093506,0.159180,0.426829,-0.792683,0.243902
1548437493183,-1.023804,0.091858,0.160461,0.304878,-0.792683,0.182927
1548437493198,-1.021545,0.094421,0.162231,0.304878,-0.792683,0.182927
1548437493205,-1.021973,0.095154,0.161011,0.304878,-0.731707,0.182927
1548437493213,-1.023132,0.092529,0.161682,0.365854,-0.792683,0.121951
1548437493228,-1.021240,0.091492,0.163330,0.426829,-0.731707,0.182927
1548437493235,-1.022156,0.092712,0.161438,0.426829,-0.731707,0.121951
1548437493243,-1.022217,0.090576,0.162109,0.304878,-0.731707,0.182927
1548437493258,-1.023560,0.091370,0.164734,0.304878,-0.792683,0.182927
1548437493265,-1.023438,0.093445,0.164307,0.426829,-0.731707,0.243902
1548437493273,-1.022217,0.092285,0.161926,0.487805,-0.670732,0.243902
1548437493288,-1.021851,0.092957,0.161133,0.426829,-0.853659,0.243902
1548437493295,-1.022034,0.092102,0.162109,0.426829,-0.731707,0.182927
1548437493303,-1.022583,0.093262,0.163879,0.365854,-0.670732,0.243902
1548437493318,-1.021362,0.093201,0.164185,0.304878,-0.670732,0.243902
1548437493325,-1.023071,0.093628,0.163147,0.365854,-0.731707,0.243902
1548437493333,-1.023010,0.092041,0.161377,0.304878,-0.792683,0.243902
1548437493348,-1.021484,0.091980,0.163574,0.365854,-0.731707,0.243902
1548437493355,-1.024658,0.093445,0.160950,0.426829,-0.731707,0.243902
1548437493363,-1.023499,0.094543,0.160828,0.243902,-0.670732,0.304878
1548437493378,-1.022278,0.093750,0.162476,0.121951,-0.670732,0.243902
1548437493385,-1.021851,0.092773,0.160767,0.426829,-0.731707,0.243902
1548437493393,-1.023560,0.093323,0.160034,0.365854,-0.853659,0.243902
1548437493408,-1.023499,0.092590,0.160767,0.243902,-0.731707,0.121951
1548437493415,-1.022644,0.092529,0.160889,0.365854,-0.731707,0.182927
1548437493423,-1.022644,0.091675,0.161255,0.304878,-0.792683,0.121951
1548437493438,-1.021179,0.094727,0.162292,0.365854,-0.792683,0.121951
1548437493445,-1.023376,0.094360,0.162720,0.365854,-0.670732,0.121951
1548437493453,-1.023010,0.092285,0.162720,0.426829,-0.670732,0.121951
1548437493468,-1.022400,0.093323,0.162231,0.365854,-0.670732,0.060976
1548437493475,-1.022034,0.092163,0.165833,0.426829,-0.792683,0.060976
1548437493483,-1.022278,0.091553,0.164001,0.426829,-0.670732,0.060976
1548437493498,-1.022461,0.090820,0.162292,0.304878,-0.731707,0.182927
1548437493505,-1.022705,0.090332,0.160461,0.304878,-0.731707,0.121951
1548437493520,-1.022583,0.090942,0.160706,0.426829,-0.731707,0.121951
1548437493528,-1.023499,0.090515,0.160767,0.426829,-0.731707,0.182927
1548437493535,-1.022278,0.090149,0.162903,0.426829,-0.731707,0.060976
1548437493543,-1.022156,0.090759,0.162231,0.365854,-0.731707,0.060976
1548437493558,-1.020691,0.092041,0.162720,0.365854,-0.670732,0.121951
1548437493565,-1.019775,0.089844,0.162048,0.365854,-0.670732,0.243902
1548437493573,-1.022217,0.089294,0.161133,0.304878,-0.792683,0.304878
1548437493588,-1.022705,0.091370,0.161926,0.365854,-0.731707,0.182927
1548437493595,-1.022217,0.092468,0.161499,0.365854,-0.792683,0.304878
1548437493603,-1.022888,0.092346,0.161255,0.426829,-0.670732,0.365854
1548437493618,-1.023315,0.094299,0.163147,0.304878,-0.792683,0.304878
1548437493625,-1.022034,0.095520,0.163208,0.304878,-0.731707,0.304878
1548437493633,-1.021423,0.096252,0.164368,0.365854,-0.731707,0.304878
1548437493648,-1.021851,0.093811,0.162354,0.365854,-0.792683,0.182927
1548437493655,-1.021545,0.093323,0.162048,0.426829,-0.670732,0.121951
1548437493663,-1.021729,0.094788,0.163086,0.426829,-0.670732,0.121951
1548437493678,-1.022461,0.091919,0.164307,0.365854,-0.670732,0.121951
1548437493685,-1.021301,0.094543,0.162720,0.365854,-0.731707,0.060976
1548437493693,-1.020081,0.093872,0.162354,0.487805,-0.731707,0.060976
1548437493708,-1.021790,0.091492,0.162170,0.487805,-0.731707,0.000000
1548437493715,-1.024048,0.090393,0.159851,0.426829,-0.731707,0.060976
1548437493723,-1.023254,0.090515,0.158752,0.548781,-0.792683,0.060976
1548437493738,-1.024902,0.089905,0.158386,0.609756,-0.792683,0.060976
1548437493745,-1.024414,0.090271,0.161194,0.365854,-0.731707,0.121951
1548437493753,-1.024475,0.090210,0.157288,0.365854,-0.670732,0.060976
1548437493768,-1.024048,0.090332,0.157654,0.243902,-0.792683,0.121951
1548437493775,-1.021118,0.090332,0.160461,0.243902,-0.853659,0.060976
1548437493783,-1.021851,0.090515,0.162781,0.365854,-0.792683,0.182927
1548437493798,-1.023438,0.092834,0.160217,0.304878,-0.670732,0.243902
1548437493805,-1.022156,0.092041,0.160828,0.182927,-0.792683,0.182927
1548437493813,-1.023560,0.092773,0.161743,0.182927,-0.731707,0.182927
1548437493828,-1.022705,0.093628,0.164062,0.304878,-0.609756,0.304878
1548437493835,-1.021484,0.094910,0.163391,0.365854,-0.670732,0.243902
1548437493843,-1.022705,0.093201,0.163452,0.426829,-0.792683,0.243902
1548437493858,-1.021484,0.093323,0.162842,0.365854,-0.670732,0.243902
1548437493865,-1.021362,0.092957,0.162048,0.365854,-0.731707,0.243902
1548437493873,-1.022095,0.090942,0.163269,0.426829,-0.731707,0.243902
1548437493888,-1.022522,0.091858,0.164612,0.365854,-0.670732,0.121951
1548437493895,-1.022705,0.089844,0.159607,0.365854,-0.792683,0.060976
1548437493903,-1.021179,0.090088,0.159607,0.487805,-0.853659,0.121951
1548437493918,-1.023804,0.090881,0.161133,0.548781,-0.853659,0.060976
1548437493925,-1.022949,0.090149,0.163269,0.426829,-0.731707,0.121951
1548437493933,-1.021790,0.090210,0.160950,0.365854,-0.792683,0.243902
1548437493948,-1.023010,0.088074,0.160767,0.426829,-0.731707,0.243902
1548437493955,-1.022644,0.088989,0.162048,0.365854,-0.792683,0.243902
1548437493963,-1.021301,0.091248,0.163025,0.304878,-0.853659,0.304878
1548437493978,-1.021057,0.091187,0.163269,0.304878,-0.731707,0.365854
1548437493985,-1.022217,0.090393,0.162659,0.243902,-0.731707,0.365854
1548437493993,-1.021606,0.091858,0.164978,0.121951,-0.609756,0.365854
1548437494008,-1.022644,0.094116,0.163513,0.243902,-0.670732,0.365854
1548437494015,-1.023621,0.094421,0.158203,0.304878,-0.792683,0.243902
1548437494023,-1.025208,0.095337,0.159119,0.304878,-0.731707,0.365854
1548437494038,-1.022461,0.095276,0.159119,0.304878,-0.792683,0.365854
1548437494045,-1.023438,0.096375,0.158325,0.365854,-0.731707,0.304878
1548437494053,-1.021912,0.094849,0.160889,0.243902,-0.731707,0.304878
1548437494068,-1.020752,0.094299,0.160583,0.060976,-0.670732,0.304878
1548437494090,-1.020508,0.093018,0.162842,0.060976,-0.853659,0.182927
1548437494091,-1.020874,0.091492,0.162109,0.365854,-0.853659,0.243902
1548437494098,-1.022400,0.091980,0.159912,0.487805,-0.853659,0.182927
1548437494105,-1.024109,0.090271,0.163147,0.426829,-0.853659,0.121951
1548437494113,-1.022583,0.089539,0.163086,0.548781,-0.914634,0.182927
1548437494128,-1.023071,0.087585,0.162415,0.426829,-0.731707,0.243902
1548437494135,-1.022217,0.090820,0.162598,0.304878,-0.792683,0.182927
1548437494143,-1.024292,0.091003,0.164001,0.304878,-0.853659,0.304878
1548437494158,-1.024597,0.090881,0.163635,0.304878,-0.853659,0.304878
1548437494165,-1.025269,0.092041,0.164246,0.182927,-0.853659,0.365854
1548437494173,-1.021057,0.089905,0.166260,0.121951,-0.731707,0.365854
1548437494188,-1.021362,0.093323,0.165344,0.121951,-0.731707,0.365854
1548437494195,-1.021179,0.094727,0.165894,0.182927,-0.670732,0.426829
1548437494203,-1.019531,0.094421,0.167297,0.182927,-0.548781,0.487805
1548437494218,-1.019165,0.095642,0.162476,0.182927,-0.487805,0.365854
1548437494233,-1.020386,0.095215,0.162537,0.304878,-0.548781,0.304878
1548437494240,-1.020752,0.094727,0.162048,0.426829,-0.670732,0.182927
1548437494248,-1.022156,0.094788,0.160706,0.426829,-0.609756,0.182927
1548437494255,-1.022400,0.095642,0.162048,0.548781,-0.548781,0.182927
1548437494263,-1.022705,0.094727,0.160645,0.609756,-0.548781,0.060976
1548437494278,-1.023804,0.092590,0.159851,0.548781,-0.670732,0.000000
1548437494285,-1.021729,0.092102,0.158630,0.548781,-0.670732,0.000000
1548437494293,-1.023499,0.089722,0.157227,0.548781,-0.670732,0.000000
1548437494308,-1.022888,0.088989,0.156616,0.609756,-0.670732,0.060976
1548437494315,-1.025757,0.088135,0.157471,0.670732,-0.792683,0.060976
1548437494323,-1.024780,0.087830,0.157654,0.609756,-0.914634,0.121951
1548437494338,-1.020691,0.085754,0.159912,0.426829,-0.853659,0.182927
1548437494345,-1.021851,0.087341,0.163574,0.304878,-0.731707,0.121951
1548437494353,-1.022156,0.089355,0.164368,0.182927,-0.670732,0.243902
1548437494368,-1.023010,0.088867,0.167419,0.182927,-0.670732,0.243902
1548437494375,-1.020203,0.090210,0.168457,0.243902,-0.731707,0.182927
1548437494383,-1.021729,0.092468,0.163879,0.243902,-0.792683,0.304878
1548437494398,-1.022949,0.090942,0.161926,0.243902,-0.792683,0.426829
1548437494405,-1.022217,0.092957,0.161011,0.365854,-0.853659,0.426829
1548437494413,-1.022522,0.095459,0.160889,0.304878,-0.731707,0.304878
1548437494428,-1.024170,0.097046,0.159119,0.243902,-0.731707,0.304878
1548437494435,-1.022644,0.095215,0.161072,0.121951,-0.670732,0.243902
1548437494443,-1.021118,0.095215,0.162842,0.121951,-0.670732,0.243902
1548437494458,-1.021912,0.095032,0.162170,0.182927,-0.792683,0.182927
1548437494465,-1.021912,0.095276,0.160339,0.243902,-0.792683,0.121951
1548437494473,-1.022034,0.093933,0.160034,0.365854,-0.731707,0.182927
1548437494488,-1.021851,0.093323,0.159241,0.426829,-0.731707,0.121951
1548437494495,-1.021362,0.095032,0.161255,0.487805,-0.731707,0.182927
1548437494503,-1.020386,0.092712,0.160461,0.426829,-0.670732,0.060976
1548437494518,-1.023071,0.093750,0.159546,0.487805,-0.792683,-0.060976
1548437494525,-1.022644,0.093323,0.162170,0.365854,-0.731707,-0.060976
1548437494533,-1.021545,0.091064,0.163696,0.365854,-0.670732,0.000000
1548437494548,-1.022827,0.089600,0.161682,0.487805,-0.792683,0.000000
1548437494555,-1.022522,0.090149,0.162537,0.548781,-0.792683,0.060976
1548437494563,-1.022217,0.091614,0.159058,0.609756,-0.853659,0.121951
1548437494578,-1.021851,0.088928,0.162720,0.548781,-0.853659,0.121951
1548437494585,-1.024536,0.089722,0.162720,0.487805,-0.792683,0.121951
1548437494593,-1.020996,0.087830,0.162537,0.426829,-0.792683,0.121951
1548437494608,-1.022278,0.089722,0.163574,0.365854,-0.792683,0.121951
1548437494615,-1.023499,0.090454,0.163269,0.304878,-0.853659,0.121951
1548437494623,-1.023010,0.089111,0.161316,0.365854,-0.853659,0.121951
1548437494638,-1.021973,0.088257,0.162415,0.365854,-0.792683,0.182927
1548437494645,-1.023438,0.091064,0.163574,0.426829,-0.792683,0.304878
1548437494653,-1.022644,0.092896,0.161438,0.365854,-0.731707,0.304878
1548437494668,-1.022766,0.093933,0.162476,0.304878,-0.731707,0.365854
1548437494675,-1.024292,0.094788,0.164612,0.121951,-0.670732,0.365854
1548437494683,-1.022461,0.094788,0.164307,0.060976,-0.670732,0.365854
1548437494698,-1.021057,0.094666,0.159912,0.000000,-0.670732,0.365854
1548437494705,-1.023926,0.094543,0.160950,0.060976,-0.548781,0.304878
1548437494713,-1.022949,0.094238,0.161072,0.121951,-0.670732,0.243902
1548437494728,-1.023804,0.093750,0.159912,0.182927,-0.609756,0.182927
1548437494735,-1.022339,0.094177,0.158630,0.243902,-0.548781,0.121951
1548437494743,-1.021179,0.093384,0.160583,0.243902,-0.548781,0.060976
1548437494758,-1.021729,0.094604,0.160889,0.304878,-0.609756,-0.060976
1548437494765,-1.024963,0.093262,0.158325,0.365854,-0.731707,-0.060976
1548437494773,-1.022949,0.092041,0.160156,0.365854,-0.731707,-0.060976
1548437494788,-1.022217,0.091187,0.160950,0.426829,-0.853659,0.000000
1548437494795,-1.021423,0.091675,0.157532,0.365854,-0.914634,0.000000
1548437494803,-1.021362,0.090637,0.161194,0.426829,-0.853659,0.000000
1548437494818,-1.022339,0.090027,0.162781,0.609756,-0.792683,0.000000
1548437494825,-1.022766,0.089966,0.162415,0.548781,-0.853659,0.060976
1548437494833,-1.021545,0.089111,0.163696,0.487805,-0.731707,0.060976
1548437494848,-1.023254,0.089905,0.162781,0.426829,-0.792683,0.000000
1548437494855,-1.022644,0.088745,0.164062,0.487805,-0.792683,0.060976
1548437494863,-1.021606,0.089294,0.163635,0.426829,-0.731707,0.182927
1548437494878,-1.024170,0.088928,0.165161,0.426829,-0.792683,0.060976
1548437494885,-1.023743,0.088867,0.164001,0.426829,-0.670732,0.182927
1548437494893,-1.022461,0.090149,0.160828,0.426829,-0.670732,0.243902
1548437494908,-1.022095,0.089539,0.161377,0.365854,-0.670732,0.243902
1548437494915,-1.021179,0.090759,0.161011,0.365854,-0.670732,0.243902
1548437494923,-1.021790,0.090576,0.158997,0.426829,-0.670732,0.365854
1548437494938,-1.022156,0.088562,0.156677,0.487805,-0.731707,0.365854
1548437494945,-1.022217,0.090454,0.159851,0.426829,-0.731707,0.304878
1548437494953,-1.019592,0.090515,0.159180,0.365854,-0.792683,0.365854
1548437494968,-1.023132,0.091736,0.155762,0.426829,-0.792683,0.487805
1548437494975,-1.022583,0.089844,0.158691,0.365854,-0.853659,0.426829
1548437494983,-1.022095,0.091736,0.160278,0.304878,-0.853659,0.426829
1548437494998,-1.022400,0.092957,0.160034,0.304878,-0.853659,0.487805
1548437495005,-1.023071,0.092163,0.162048,0.365854,-0.853659,0.487805
1548437495013,-1.021973,0.091125,0.164185,0.304878,-0.853659,0.487805
1548437495028,-1.020447,0.091187,0.162720,0.304878,-0.914634,0.548781
1548437495035,-1.023010,0.091370,0.161926,0.304878,-0.914634,0.548781
1548437495043,-1.023193,0.094788,0.164612,0.365854,-0.914634,0.487805
1548437495058,-1.022278,0.094177,0.163391,0.182927,-0.792683,0.365854
1548437495065,-1.022949,0.093628,0.162048,0.243902,-0.853659,0.426829
1548437495073,-1.024963,0.094360,0.163025,0.304878,-0.731707,0.426829
1548437495088,-1.021729,0.096008,0.163147,0.182927,-0.792683,0.304878
1548437495095,-1.021301,0.096741,0.163391,0.182927,-0.792683,0.304878
1548437495103,-1.021729,0.095581,0.161194,0.243902,-0.731707,0.182927
1548437495118,-1.022461,0.097229,0.164551,0.182927,-0.731707,0.182927
1548437495125,-1.020935,0.097778,0.166931,0.243902,-0.731707,0.060976
1548437495133,-1.022644,0.096741,0.162048,0.182927,-0.670732,0.000000
1548437495148,-1.022522,0.097839,0.163513,0.426829,-0.731707,0.060976
1548437495155,-1.019897,0.095764,0.161682,0.487805,-0.731707,-0.060976
1548437495163,-1.021179,0.094666,0.160034,0.487805,-0.731707,-0.121951
1548437495178,-1.023682,0.092224,0.161377,0.609756,-0.792683,-0.121951
1548437495185,-1.022339,0.090759,0.163147,0.609756,-0.853659,-0.243902
1548437495193,-1.023071,0.087830,0.162415,0.609756,-0.731707,-0.304878
1548437495208,-1.024719,0.086609,0.161438,0.670732,-0.731707,-0.243902
1548437495223,-1.022949,0.085144,0.162476,0.548781,-0.792683,-0.121951
1548437495223,-1.021240,0.085388,0.161743,0.731707,-0.792683,-0.060976
1548437495238,-1.025146,0.084717,0.164001,0.670732,-0.731707,0.060976
1548437495245,-1.025696,0.082275,0.162720,0.487805,-0.731707,0.182927
1548437495253,-1.023743,0.085083,0.160461,0.487805,-0.731707,0.243902
1548437495268,-1.022949,0.085083,0.162781,0.487805,-0.731707,0.304878
1548437495275,-1.022156,0.085144,0.163025,0.243902,-0.609756,0.365854
1548437495283,-1.022156,0.088623,0.163635,0.000000,-0.670732,0.426829
1548437495298,-1.023315,0.090271,0.162842,0.060976,-0.670732,0.609756
1548437495305,-1.022339,0.091980,0.160889,0.060976,-0.609756,0.609756
1548437495313,-1.021973,0.094421,0.158752,-0.060976,-0.609756,0.670732
1548437495328,-1.024658,0.096924,0.160583,0.060976,-0.609756,0.609756
1548437495335,-1.023560,0.097534,0.159790,0.121951,-0.548781,0.487805
1548437495343,-1.022217,0.097534,0.159058,0.182927,-0.609756,0.487805
1548437495358,-1.021240,0.097900,0.160217,0.182927,-0.670732,0.365854
1548437495365,-1.022339,0.098206,0.160339,0.182927,-0.670732,0.243902
1548437495373,-1.021545,0.098267,0.161194,0.121951,-0.609756,0.182927
1548437495388,-1.023132,0.098145,0.162048,0.243902,-0.731707,0.182927
1548437495395,-1.022461,0.096069,0.160889,0.426829,-0.731707,0.121951
1548437495403,-1.021118,0.093079,0.162903,0.487805,-0.853659,0.060976
1548437495418,-1.022339,0.093506,0.161743,0.609756,-0.914634,-0.060976
1548437495425,-1.023010,0.090210,0.161499,0.670732,-0.853659,-0.121951
1548437495433,-1.020935,0.089539,0.162537,0.670732,-0.731707,-0.060976
1548437495448,-1.020752,0.088318,0.161316,0.548781,-0.853659,-0.121951
1548437495455,-1.022949,0.088196,0.164734,0.487805,-0.914634,-0.121951
1548437495463,-1.021606,0.087830,0.160522,0.609756,-0.853659,0.000000
1548437495478,-1.021118,0.088135,0.161194,0.548781,-0.792683,0.060976
1548437495485,-1.023499,0.088318,0.162048,0.426829,-0.792683,0.121951
1548437495493,-1.022339,0.087036,0.162659,0.304878,-0.853659,0.182927
1548437495508,-1.022156,0.088745,0.163330,0.304878,-0.853659,0.182927
1548437495515,-1.022888,0.090271,0.164429,0.243902,-0.731707,0.243902
1548437495523,-1.022827,0.089233,0.164246,0.365854,-0.670732,0.304878
1548437495538,-1.022644,0.090515,0.163391,0.304878,-0.731707,0.365854
1548437495545,-1.022095,0.091187,0.161377,0.182927,-0.792683,0.304878
1548437495553,-1.022461,0.091858,0.161377,0.304878,-0.792683,0.365854
1548437495568,-1.022156,0.093689,0.159790,0.304878,-0.670732,0.487805
1548437495575,-1.022461,0.091736,0.160339,0.304878,-0.670732,0.426829
1548437495583,-1.023682,0.094299,0.160767,0.304878,-0.792683,0.365854
1548437495598,-1.021790,0.093750,0.162415,0.365854,-0.670732,0.365854
1548437495605,-1.022217,0.094971,0.161499,0.365854,-0.731707,0.365854
1548437495613,-1.022766,0.095825,0.160950,0.426829,-0.609756,0.365854
1548437495628,-1.020996,0.094604,0.161743,0.365854,-0.670732,0.243902
1548437495635,-1.021912,0.092957,0.160767,0.365854,-0.731707,0.182927
1548437495643,-1.022888,0.093811,0.161804,0.365854,-0.731707,0.243902
1548437495658,-1.024597,0.094299,0.165344,0.426829,-0.731707,0.182927
1548437495665,-1.023926,0.093994,0.161621,0.304878,-0.792683,0.182927
1548437495673,-1.022400,0.092896,0.161377,0.365854,-0.792683,0.060976
1548437495688,-1.022461,0.092834,0.162415,0.487805,-0.792683,0.121951
1548437495695,-1.021912,0.093079,0.160828,0.426829,-0.792683,0.060976
1548437495703,-1.022888,0.089661,0.162964,0.426829,-0.792683,0.121951
1548437495718,-1.022766,0.090515,0.162598,0.365854,-0.731707,0.121951
1548437495725,-1.021240,0.092468,0.162476,0.426829,-0.792683,0.060976
1548437495733,-1.022217,0.091736,0.161987,0.426829,-0.853659,0.121951
1548437495748,-1.023926,0.089539,0.161682,0.426829,-0.792683,0.121951
1548437495755,-1.022644,0.089478,0.162964,0.487805,-0.792683,0.060976
1548437495763,-1.022095,0.091919,0.163391,0.365854,-0.731707,0.121951
1548437495778,-1.021912,0.092346,0.163025,0.304878,-0.670732,0.182927
1548437495785,-1.024109,0.091064,0.163818,0.304878,-0.731707,0.182927
1548437495793,-1.023621,0.091187,0.162842,0.243902,-0.731707,0.182927
1548437495808,-1.021240,0.091187,0.162476,0.304878,-0.731707,0.121951
1548437495815,-1.022095,0.093384,0.163269,0.365854,-0.731707,0.243902
1548437495823,-1.020874,0.093689,0.161682,0.365854,-0.670732,0.182927
1548437495838,-1.021484,0.093567,0.161743,0.365854,-0.609756,0.121951
1548437495845,-1.023193,0.093933,0.161865,0.304878,-0.670732,0.121951
1548437495853,-1.021484,0.092712,0.161011,0.365854,-0.731707,0.243902
1548437495868,-1.022949,0.092346,0.161255,0.487805,-0.731707,0.121951
1548437495875,-1.023071,0.091370,0.162048,0.426829,-0.731707,0.060976
1548437495883,-1.024414,0.091553,0.162476,0.426829,-0.670732,0.121951
1548437495898,-1.023010,0.090881,0.163879,0.426829,-0.609756,0.182927
1548437495905,-1.023926,0.091187,0.164246,0.365854,-0.670732,0.121951
1548437495913,-1.022095,0.091370,0.160278,0.304878,-0.670732,0.060976
1548437495928,-1.022217,0.090698,0.161560,0.365854,-0.731707,0.121951
1548437495943,-1.021973,0.091125,0.160950,0.365854,-0.670732,0.060976
1548437495943,-1.023987,0.091614,0.162964,0.304878,-0.731707,0.121951
1548437495958,-1.022705,0.091309,0.163208,0.365854,-0.609756,0.182927
1548437495965,-1.020874,0.090576,0.161865,0.304878,-0.731707,0.121951
1548437495973,-1.021606,0.090210,0.159180,0.304878,-0.731707,0.121951
1548437495988,-1.023743,0.090881,0.160156,0.426829,-0.731707,0.182927
1548437495995,-1.022766,0.090332,0.161133,0.304878,-0.731707,0.121951
1548437496003,-1.022888,0.088684,0.161316,0.304878,-0.792683,0.121951
1548437496018,-1.023743,0.088684,0.158264,0.365854,-0.853659,0.304878
1548437496025,-1.021912,0.086609,0.160706,0.426829,-0.792683,0.365854
1548437496033,-1.021729,0.088074,0.161438,0.304878,-0.792683,0.365854
1548437496048,-1.024109,0.087769,0.163330,0.243902,-0.853659,0.426829
1548437496055,-1.022156,0.087830,0.162781,0.121951,-0.914634,0.548781
1548437496063,-1.022095,0.090637,0.161865,0.182927,-0.853659,0.548781
1548437496078,-1.022888,0.090454,0.161743,0.182927,-0.853659,0.731707
1548437496085,-1.021423,0.090820,0.163879,0.243902,-0.853659,0.670732
1548437496093,-1.022156,0.092102,0.165344,0.304878,-0.914634,0.609756
1548437496108,-1.020508,0.093872,0.162354,0.243902,-0.853659,0.609756
1548437496115,-1.021545,0.094116,0.161926,0.000000,-0.914634,0.670732
1548437496123,-1.023682,0.095093,0.163696,0.121951,-0.792683,0.609756
1548437496138,-1.022400,0.096313,0.163757,0.121951,-0.792683,0.487805
1548437496145,-1.023804,0.094238,0.163391,0.243902,-0.853659,0.548781
1548437496153,-1.022156,0.097229,0.163452,0.304878,-0.914634,0.487805
1548437496168,-1.022339,0.096313,0.164062,0.304878,-0.914634,0.426829
1548437496175,-1.021362,0.094421,0.163025,0.304878,-0.853659,0.426829
1548437496183,-1.022461,0.095276,0.164307,0.304878,-0.792683,0.365854
1548437496198,-1.018494,0.093872,0.165649,0.304878,-0.792683,0.365854
1548437496205,-1.021179,0.094543,0.163696,0.365854,-0.731707,0.243902
1548437496220,-1.023376,0.094666,0.163025,0.548781,-0.731707,0.182927
1548437496235,-1.021606,0.091553,0.162109,0.426829,-0.792683,0.121951
1548437496236,-1.023682,0.091553,0.159912,0.487805,-0.853659,0.121951
1548437496243,-1.024292,0.090393,0.158203,0.548781,-0.731707,0.182927
1548437496258,-1.021301,0.090698,0.161682,0.609756,-0.792683,0.243902
1548437496265,-1.021851,0.088440,0.161133,0.426829,-0.792683,0.243902
1548437496273,-1.025330,0.088440,0.159302,0.365854,-0.731707,0.304878
1548437496288,-1.024048,0.090637,0.157837,0.365854,-0.731707,0.365854
1548437496303,-1.021667,0.090942,0.158936,0.243902,-0.853659,0.304878
1548437496303,-1.022339,0.091675,0.160645,0.304878,-0.853659,0.426829
1548437496318,-1.022827,0.092896,0.159851,0.182927,-0.853659,0.426829
1548437496325,-1.022095,0.092346,0.158691,0.121951,-0.853659,0.365854
1548437496333,-1.021790,0.095642,0.161255,0.060976,-0.914634,0.304878
1548437496348,-1.020081,0.099609,0.167053,0.121951,-0.853659,0.243902
1548437496355,-1.021667,0.098755,0.167236,0.121951,-0.792683,0.243902
1548437496363,-1.022461,0.100098,0.166077,0.060976,-0.914634,0.121951
1548437496378,-1.021851,0.101624,0.164368,0.121951,-0.975610,0.000000
1548437496385,-1.021729,0.102356,0.168213,0.182927,-0.792683,-0.060976
1548437496393,-1.020813,0.101318,0.170105,0.182927,-0.731707,-0.182927
1548437496408,-1.020081,0.100159,0.170105,0.487805,-0.731707,-0.304878
1548437496415,-1.021973,0.100098,0.166260,0.487805,-0.609756,-0.365854
1548437496423,-1.021606,0.100098,0.164673,0.487805,-0.609756,-0.548781
1548437496438,-1.022339,0.099792,0.162964,0.670732,-0.548781,-0.670732
1548437496445,-1.022766,0.099304,0.160767,0.792683,-0.548781,-0.853659
1548437496453,-1.021240,0.094727,0.161011,0.731707,-0.670732,-1.036585
1548437496468,-1.022095,0.090332,0.158020,0.975610,-0.853659,-1.280488
1548437496475,-1.024902,0.089355,0.157471,1.219512,-0.975610,-1.280488
1548437496483,-1.025696,0.083801,0.157043,1.463415,-0.853659,-1.280488
1548437496498,-1.024475,0.079834,0.158386,1.524390,-0.792683,-1.219512
1548437496505,-1.022522,0.082397,0.158752,1.585366,-0.609756,-1.219512
1548437496513,-1.024841,0.081665,0.158813,1.829268,-0.670732,-1.158537
1548437496535,-1.028381,0.078430,0.159668,1.585366,-0.975610,-1.036585
1548437496536,-1.026855,0.074829,0.156189,1.280488,-1.097561,-0.792683
1548437496543,-1.023132,0.073669,0.157593,1.463415,-1.036585,-0.548781
1548437496558,-1.023499,0.074585,0.162170,1.402439,-0.792683,-0.365854
1548437496565,-1.025269,0.074097,0.162537,1.036585,-0.914634,0.000000
1548437496573,-1.025452,0.077393,0.161621,0.609756,-0.975610,0.182927
1548437496588,-1.024963,0.080750,0.160950,0.426829,-0.792683,0.426829
1548437496595,-1.024658,0.082947,0.164429,0.182927,-0.670732,0.731707
1548437496603,-1.022705,0.083801,0.168396,-0.182927,-0.731707,0.975610
1548437496618,-1.020874,0.086060,0.166077,-0.365854,-0.731707,1.158537
1548437496625,-1.022644,0.089172,0.165710,-0.121951,-0.853659,1.097561
1548437496633,-1.022461,0.096191,0.165161,-0.182927,-0.792683,1.097561
1548437496648,-1.020813,0.097900,0.166382,-0.548781,-0.670732,1.158537
1548437496655,-1.019226,0.099792,0.165588,-0.670732,-0.426829,1.158537
1548437496663,-1.021851,0.101379,0.164795,-0.487805,-0.365854,1.036585
1548437496678,-1.022888,0.105774,0.164062,-0.487805,-0.548781,0.853659
1548437496685,-1.019897,0.104431,0.160400,-0.243902,-0.548781,0.609756
1548437496693,-1.020752,0.105835,0.160217,0.060976,-0.548781,0.487805
1548437496708,-1.018250,0.104553,0.160278,0.243902,-0.670732,0.243902
1548437496715,-1.021606,0.101196,0.161438,0.304878,-0.609756,0.121951
1548437496723,-1.018677,0.101196,0.162354,0.304878,-0.609756,-0.121951
1548437496738,-1.020874,0.098511,0.161560,0.365854,-0.731707,-0.243902
1548437496745,-1.021667,0.096375,0.160461,0.609756,-0.853659,-0.365854
1548437496753,-1.023132,0.092896,0.161987,0.792683,-0.792683,-0.487805
1548437496768,-1.022278,0.089722,0.161011,0.792683,-0.792683,-0.487805
1548437496775,-1.021973,0.087585,0.162231,0.975610,-0.792683,-0.487805
1548437496783,-1.020569,0.084595,0.165100,0.975610,-0.792683,-0.548781
1548437496798,-1.021423,0.083984,0.161682,0.853659,-0.853659,-0.487805
1548437496805,-1.024658,0.082520,0.164368,0.731707,-0.853659,-0.426829
1548437496813,-1.024353,0.077942,0.164368,0.670732,-0.731707,-0.304878
1548437496828,-1.025085,0.079407,0.164368,0.670732,-0.914634,-0.243902
1548437496835,-1.024536,0.078247,0.164246,0.670732,-0.914634,0.000000
1548437496843,-1.022888,0.079895,0.164917,0.548781,-0.731707,0.182927
1548437496858,-1.023682,0.079407,0.164368,0.487805,-0.731707,0.365854
1548437496865,-1.020996,0.080261,0.163086,0.365854,-0.792683,0.548781
1548437496873,-1.021484,0.082092,0.163086,0.182927,-0.670732,0.548781
1548437496888,-1.021057,0.084045,0.162842,0.182927,-0.670732,0.731707
1548437496895,-1.023560,0.086548,0.163025,0.060976,-0.670732,0.914634
1548437496903,-1.024963,0.087830,0.163574,0.121951,-0.670732,0.975610
1548437496918,-1.024170,0.090149,0.160645,0.000000,-0.609756,0.975610
1548437496933,-1.024658,0.092834,0.159485,0.060976,-0.670732,0.914634
1548437496933,-1.024414,0.096008,0.161804,0.060976,-0.670732,0.975610
1548437496948,-1.022034,0.095642,0.158508,0.060976,-0.670732,1.036585
1548437496955,-1.022156,0.096375,0.158875,0.121951,-0.670732,0.914634
1548437496963,-1.024231,0.096130,0.159851,0.182927,-0.731707,0.853659
1548437496978,-1.022949,0.096130,0.163147,0.121951,-0.853659,0.792683
1548437496985,-1.022522,0.097107,0.161865,0.121951,-0.792683,0.670732
1548437496993,-1.021606,0.096619,0.161377,0.243902,-0.853659,0.548781
1548437497008,-1.022766,0.095215,0.161743,0.304878,-0.914634,0.426829
1548437497015,-1.022217,0.093933,0.161194,0.426829,-0.914634,0.365854
1548437497023,-1.022644,0.090332,0.163391,0.609756,-0.975610,0.243902
1548437497038,-1.022949,0.090027,0.165894,0.670732,-0.853659,0.243902
1548437497045,-1.025330,0.088440,0.167786,0.609756,-0.914634,0.182927
1548437497053,-1.023071,0.088501,0.164978,0.548781,-0.853659,0.121951
1548437497068,-1.022583,0.088745,0.163696,0.548781,-0.853659,0.182927
1548437497075,-1.022888,0.088074,0.162598,0.426829,-0.914634,0.182927
1548437497083,-1.024231,0.088989,0.160889,0.487805,-0.914634,0.243902
1548437497098,-1.024048,0.087830,0.162231,0.426829,-0.853659,0.304878
1548437497105,-1.022400,0.088135,0.160950,0.243902,-0.975610,0.243902
1548437497113,-1.021423,0.089233,0.161438,0.365854,-0.853659,0.243902
1548437497135,-1.024170,0.088684,0.161072,0.304878,-0.792683,0.365854
1548437497136,-1.021973,0.088196,0.160645,0.182927,-0.792683,0.365854
1548437497143,-1.021118,0.088074,0.162842,0.243902,-0.792683,0.365854
1548437497158,-1.021851,0.090088,0.163635,0.182927,-0.731707,0.304878
1548437497165,-1.021057,0.091248,0.163757,0.182927,-0.792683,0.365854
1548437497173,-1.021606,0.090332,0.163147,0.121951,-0.792683,0.304878
1548437497188,-1.022461,0.089722,0.162415,0.426829,-0.792683,0.304878
1548437497195,-1.021118,0.091858,0.160278,0.426829,-0.914634,0.365854
1548437497203,-1.022034,0.093018,0.162415,0.426829,-0.792683,0.365854
1548437497218,-1.024475,0.090271,0.162415,0.182927,-0.792683,0.365854
1548437497225,-1.023193,0.092712,0.165100,0.182927,-0.853659,0.365854
1548437497233,-1.022461,0.090637,0.164551,0.182927,-0.670732,0.304878
1548437497248,-1.022339,0.090210,0.166016,0.182927,-0.670732,0.365854
1548437497255,-1.020874,0.092346,0.165222,0.060976,-0.792683,0.426829
1548437497263,-1.022583,0.091919,0.163818,-0.060976,-0.731707,0.243902
1548437497278,-1.022583,0.090454,0.162903,0.243902,-0.792683,0.182927
1548437497285,-1.022339,0.091187,0.161072,0.487805,-0.731707,0.182927
1548437497293,-1.020935,0.090515,0.163757,0.426829,-0.670732,0.243902
1548437497308,-1.020630,0.090271,0.165833,0.304878,-0.731707,0.121951
1548437497315,-1.019653,0.089844,0.163147,0.243902,-0.792683,0.182927
1548437497323,-1.019348,0.090820,0.162231,0.365854,-0.853659,0.182927
1548437497338,-1.022461,0.091675,0.160400,0.426829,-0.853659,0.182927
1548437497345,-1.024109,0.090210,0.159180,0.487805,-0.975610,0.182927
1548437497360,-1.024231,0.089600,0.159851,0.548781,-0.914634,0.243902
1548437497368,-1.024231,0.089294,0.162170,0.426829,-0.853659,0.182927
1548437497375,-1.024231,0.088684,0.163269,0.243902,-0.792683,0.243902
1548437497383,-1.023315,0.088379,0.165710,0.304878,-0.792683,0.182927
1548437497398,-1.023560,0.089966,0.166138,0.060976,-0.792683,0.243902
1548437497405,-1.021912,0.090576,0.168762,0.000000,-0.670732,0.243902
1548437497413,-1.022522,0.088745,0.167419,0.060976,-0.609756,0.304878
1548437497428,-1.022400,0.090454,0.167114,0.182927,-0.670732,0.304878
1548437497435,-1.021729,0.092285,0.165344,0.243902,-0.609756,0.304878
1548437497443,-1.020569,0.090881,0.163269,0.304878,-0.548781,0.304878
1548437497458,-1.021179,0.091125,0.162659,0.365854,-0.548781,0.304878
1548437497465,-1.024231,0.091797,0.159302,0.365854,-0.548781,0.182927
1548437497473,-1.023804,0.091492,0.158447,0.243902,-0.609756,0.182927
1548437497488,-1.023804,0.090576,0.158325,0.243902,-0.731707,0.182927
1548437497495,-1.023254,0.092285,0.160400,0.243902,-0.792683,0.182927
1548437497503,-1.023071,0.092590,0.159363,0.243902,-0.792683,0.182927
1548437497518,-1.022217,0.090942,0.161194,0.182927,-0.731707,0.121951
1548437497525,-1.021912,0.092407,0.162048,0.304878,-0.731707,0.121951
1548437497533,-1.021667,0.091370,0.162903,0.365854,-0.853659,0.060976
1548437497548,-1.022888,0.090332,0.164490,0.487805,-0.792683,0.121951
1548437497555,-1.022949,0.089600,0.164856,0.548781,-0.792683,0.121951
1548437497563,-1.020325,0.088196,0.163208,0.609756,-0.975610,0.060976
1548437497578,-1.021545,0.087708,0.162659,0.548781,-0.853659,0.060976
1548437497585,-1.022766,0.089905,0.162720,0.548781,-0.792683,0.060976
1548437497593,-1.022949,0.088806,0.162476,0.548781,-0.975610,0.000000
1548437497608,-1.024475,0.085632,0.162292,0.487805,-0.975610,0.000000
1548437497615,-1.024292,0.084534,0.163940,0.548781,-0.914634,0.121951
1548437497623,-1.022461,0.083862,0.162598,0.487805,-0.853659,0.182927
1548437497638,-1.021851,0.083740,0.164795,0.548781,-0.975610,0.182927
1548437497645,-1.024475,0.084900,0.163879,0.365854,-0.914634,0.304878
1548437497653,-1.023621,0.085449,0.164612,0.243902,-0.792683,0.426829
1548437497668,-1.022827,0.087036,0.164307,0.243902,-0.731707,0.426829
1548437497675,-1.023804,0.089905,0.164673,0.121951,-0.792683,0.487805
1548437497683,-1.022400,0.091553,0.163025,0.000000,-0.792683,0.487805
1548437497698,-1.022461,0.095093,0.164490,0.060976,-0.670732,0.548781
1548437497705,-1.020935,0.095215,0.165588,0.121951,-0.609756,0.548781
1548437497713,-1.022705,0.094055,0.163086,0.121951,-0.792683,0.487805
1548437497728,-1.022705,0.094971,0.163208,0.000000,-0.731707,0.365854
1548437497735,-1.021179,0.095093,0.166565,0.060976,-0.609756,0.304878
1548437497743,-1.021301,0.096741,0.164490,0.182927,-0.670732,0.304878
1548437497758,-1.023071,0.093506,0.161865,0.121951,-0.792683,0.182927
1548437497765,-1.020569,0.094727,0.162048,0.304878,-0.731707,0.121951
1548437497773,-1.020447,0.091980,0.161133,0.426829,-0.731707,0.060976
1548437497788,-1.022583,0.091919,0.161133,0.426829,-0.670732,-0.060976
1548437497795,-1.022217,0.090881,0.162109,0.609756,-0.731707,-0.182927
1548437497803,-1.021179,0.091614,0.162842,0.487805,-0.731707,-0.121951
1548437497818,-1.022949,0.089355,0.163757,0.487805,-0.670732,-0.182927
1548437497833,-1.022156,0.088867,0.165039,0.365854,-0.670732,-0.121951
1548437497833,-1.020630,0.087524,0.163818,0.426829,-0.731707,-0.121951
1548437497848,-1.021912,0.085999,0.163635,0.426829,-0.792683,0.000000
1548437497855,-1.020996,0.086182,0.160217,0.548781,-0.792683,0.000000
1548437497863,-1.022644,0.085938,0.160767,0.548781,-0.731707,0.000000
1548437497878,-1.023315,0.086914,0.161987,0.548781,-0.792683,0.121951
1548437497885,-1.023254,0.086731,0.158508,0.487805,-0.792683,0.182927
1548437497893,-1.023804,0.087891,0.159241,0.365854,-0.792683,0.243902
1548437497908,-1.024109,0.087158,0.161072,0.243902,-0.853659,0.304878
1548437497915,-1.022644,0.086914,0.161987,0.243902,-0.853659,0.365854
1548437497923,-1.021606,0.089478,0.162415,0.304878,-0.853659,0.426829
1548437497938,-1.023315,0.088501,0.162598,0.243902,-0.792683,0.426829
1548437497945,-1.022705,0.088196,0.163269,0.182927,-0.853659,0.548781
1548437497953,-1.021973,0.089722,0.165833,0.243902,-0.853659,0.426829
1548437497968,-1.022034,0.089600,0.164551,0.304878,-0.792683,0.487805
1548437497975,-1.020935,0.090881,0.163330,0.304878,-0.853659,0.670732
1548437497983,-1.021423,0.091736,0.164551,0.304878,-0.853659,0.548781
1548437497998,-1.022278,0.093933,0.165466,0.304878,-0.792683,0.487805
1548437498005,-1.021545,0.093628,0.164673,0.121951,-0.792683,0.487805
1548437498013,-1.023010,0.094238,0.164673,0.121951,-0.731707,0.487805
1548437498028,-1.021057,0.095459,0.165466,0.243902,-0.609756,0.487805
1548437498035,-1.023560,0.093384,0.164001,0.304878,-0.609756,0.365854
1548437498043,-1.022766,0.094482,0.162903,0.365854,-0.670732,0.365854
1548437498065,-1.024536,0.095093,0.162781,0.426829,-0.792683,0.304878
1548437498066,-1.024841,0.094055,0.161743,0.426829,-0.731707,0.304878
1548437498073,-1.023560,0.093201,0.162903,0.365854,-0.670732,0.304878
1548437498088,-1.021545,0.092529,0.163696,0.365854,-0.609756,0.182927
1548437498095,-1.022888,0.094116,0.164917,0.121951,-0.548781,0.182927
1548437498103,-1.023376,0.093384,0.164978,0.182927,-0.609756,0.182927
1548437498118,-1.024231,0.093262,0.161621,0.243902,-0.670732,0.182927
1548437498125,-1.021301,0.092834,0.162292,0.182927,-0.609756,0.182927
1548437498133,-1.021606,0.094482,0.163635,0.304878,-0.609756,0.121951
1548437498148,-1.023010,0.092773,0.162720,0.365854,-0.670732,0.121951
1548437498155,-1.021729,0.092651,0.161255,0.426829,-0.731707,0.121951
1548437498163,-1.022400,0.091431,0.159729,0.304878,-0.670732,0.182927
1548437498178,-1.022827,0.092163,0.157959,0.304878,-0.731707,0.182927
1548437498185,-1.020508,0.091003,0.158875,0.426829,-0.792683,0.121951
1548437498193,-1.022400,0.090942,0.160522,0.548781,-0.792683,0.060976
1548437498208,-1.022156,0.088623,0.162842,0.365854,-0.853659,0.121951
1548437498215,-1.022156,0.088806,0.164062,0.365854,-0.975610,0.121951
1548437498223,-1.024658,0.090027,0.162537,0.365854,-1.097561,0.182927
1548437498238,-1.025208,0.090881,0.164307,0.426829,-0.975610,0.182927
1548437498245,-1.022949,0.090271,0.166687,0.487805,-0.914634,0.182927
1548437498253,-1.024719,0.091125,0.166687,0.365854,-0.792683,0.304878
1548437498268,-1.021790,0.091614,0.165466,0.304878,-0.853659,0.243902
1548437498275,-1.020874,0.089661,0.162537,0.365854,-0.914634,0.243902
1548437498283,-1.020996,0.092590,0.162170,0.426829,-0.853659,0.365854
1548437498298,-1.022583,0.091797,0.162842,0.426829,-0.792683,0.304878
1548437498305,-1.021118,0.090759,0.163086,0.304878,-0.792683,0.304878
1548437498313,-1.022644,0.091003,0.163086,0.365854,-0.792683,0.304878
1548437498328,-1.020996,0.091614,0.165833,0.304878,-0.792683,0.365854
1548437498335,-1.020508,0.091309,0.165100,0.304878,-0.731707,0.365854
1548437498343,-1.022034,0.092102,0.165222,0.243902,-0.731707,0.365854
1548437498358,-1.023071,0.093079,0.163635,0.243902,-0.792683,0.365854
1548437498365,-1.021973,0.093384,0.163513,0.182927,-0.792683,0.365854
1548437498373,-1.021606,0.094360,0.162781,0.182927,-0.792683,0.304878
1548437498388,-1.020081,0.095276,0.161621,0.243902,-0.670732,0.243902
1548437498395,-1.019897,0.093750,0.161743,0.182927,-0.609756,0.243902
1548437498403,-1.020752,0.095337,0.161499,0.304878,-0.731707,0.243902
1548437498418,-1.021790,0.093811,0.161072,0.243902,-0.731707,0.243902
1548437498425,-1.022278,0.092712,0.162659,0.304878,-0.853659,0.182927
1548437498433,-1.022156,0.095337,0.165283,0.365854,-0.731707,0.060976
1548437498448,-1.023254,0.097046,0.165649,0.121951,-0.792683,0.000000
1548437498455,-1.021667,0.096008,0.166504,0.304878,-0.731707,-0.060976
1548437498463,-1.021973,0.093018,0.165649,0.365854,-0.731707,-0.121951
1548437498478,-1.021973,0.093567,0.163513,0.487805,-0.792683,-0.060976
1548437498485,-1.023071,0.091553,0.162231,0.609756,-0.670732,0.000000
1548437498493,-1.023804,0.091431,0.159912,0.548781,-0.792683,0.060976
1548437498508,-1.020935,0.090576,0.159180,0.548781,-0.853659,0.000000
1548437498515,-1.020630,0.089050,0.160217,0.548781,-0.792683,0.000000
1548437498523,-1.021912,0.088013,0.161133,0.548781,-0.792683,0.000000
1548437498538,-1.022461,0.085876,0.161865,0.426829,-0.853659,0.121951
1548437498545,-1.023865,0.086975,0.162170,0.304878,-0.853659,0.121951
1548437498553,-1.022949,0.089905,0.159851,0.365854,-0.914634,0.121951
1548437498568,-1.024231,0.090820,0.164612,0.304878,-0.914634,0.121951
1548437498575,-1.023132,0.092346,0.163574,0.243902,-0.914634,0.243902
1548437498583,-1.024231,0.092285,0.166504,0.304878,-0.853659,0.304878
1548437498598,-1.021851,0.089722,0.166199,0.304878,-0.792683,0.304878
1548437498605,-1.020386,0.092041,0.163696,0.365854,-0.853659,0.426829
1548437498613,-1.021973,0.092102,0.167236,0.304878,-0.731707,0.487805
1548437498628,-1.021912,0.093811,0.164490,0.243902,-0.792683,0.426829
1548437498635,-1.021851,0.093323,0.162292,0.304878,-0.792683,0.365854
1548437498643,-1.023193,0.096191,0.163879,0.182927,-0.731707,0.426829
1548437498658,-1.023682,0.095642,0.163757,0.182927,-0.670732,0.304878
1548437498665,-1.022461,0.094727,0.163879,0.426829,-0.670732,0.243902
1548437498673,-1.021301,0.095093,0.162903,0.426829,-0.670732,0.243902
1548437498688,-1.022278,0.095764,0.160034,0.365854,-0.731707,0.182927
1548437498695,-1.020264,0.095947,0.161804,0.426829,-0.731707,0.182927
1548437498703,-1.023132,0.094177,0.162720,0.426829,-0.792683,0.060976
1548437498718,-1.021851,0.093201,0.161987,0.365854,-0.792683,0.000000
1548437498725,-1.021301,0.090942,0.159607,0.487805,-0.792683,0.000000
1548437498733,-1.020813,0.090576,0.162170,0.487805,-0.853659,0.000000
1548437498748,-1.021851,0.090942,0.162476,0.487805,-0.853659,0.000000
1548437498755,-1.023010,0.091431,0.163513,0.426829,-0.853659,0.060976
1548437498763,-1.022339,0.090637,0.164001,0.365854,-0.975610,0.060976
1548437498778,-1.024780,0.090637,0.163696,0.487805,-0.914634,0.060976
1548437498793,-1.025146,0.090515,0.164551,0.365854,-0.731707,0.121951
1548437498800,-1.024597,0.088562,0.163452,0.426829,-0.853659,0.182927
1548437498808,-1.024658,0.090942,0.164673,0.365854,-0.731707,0.182927
1548437498815,-1.023926,0.092468,0.165771,0.182927,-0.670732,0.243902
1548437498830,-1.021790,0.092407,0.163574,0.182927,-0.731707,0.304878
1548437498838,-1.022888,0.091919,0.164124,0.182927,-0.609756,0.304878
1548437498845,-1.021912,0.091248,0.164429,0.182927,-0.548781,0.304878
1548437498853,-1.021118,0.093811,0.164978,0.182927,-0.548781,0.304878
1548437498868,-1.021118,0.092041,0.166504,0.304878,-0.548781,0.304878
1548437498875,-1.019653,0.093262,0.162476,0.304878,-0.670732,0.243902
1548437498883,-1.020508,0.095154,0.163818,0.243902,-0.731707,0.182927
1548437498898,-1.022278,0.093140,0.162170,0.304878,-0.609756,0.121951
1548437498905,-1.022827,0.091553,0.160278,0.365854,-0.609756,0.060976
1548437498913,-1.024902,0.091248,0.160217,0.304878,-0.670732,0.182927
1548437498928,-1.022522,0.092651,0.160278,0.426829,-0.731707,0.182927
1548437498935,-1.022461,0.093079,0.162292,0.426829,-0.731707,0.182927
1548437498943,-1.023560,0.091675,0.162659,0.426829,-0.792683,0.182927
1548437498958,-1.023010,0.090698,0.162720,0.426829,-0.853659,0.243902
1548437498965,-1.022278,0.091248,0.163574,0.426829,-0.731707,0.182927
1548437498973,-1.020203,0.091736,0.163452,0.365854,-0.731707,0.121951
1548437498988,-1.020325,0.094421,0.165955,0.365854,-0.792683,0.182927
1548437498995,-1.022339,0.093628,0.162537,0.487805,-0.792683,0.060976
1548437499003,-1.021240,0.090759,0.164429,0.487805,-0.792683,0.060976
1548437499018,-1.022766,0.093445,0.165527,0.487805,-0.914634,0.121951
1548437499025,-1.021240,0.092163,0.165344,0.487805,-0.914634,0.182927
1548437499033,-1.022888,0.091858,0.163330,0.487805,-0.731707,0.182927
1548437499048,-1.022400,0.091064,0.162598,0.487805,-0.792683,0.060976
1548437499055,-1.023254,0.089294,0.161499,0.426829,-0.853659,0.121951
1548437499063,-1.022705,0.089539,0.161804,0.426829,-0.853659,0.121951
1548437499078,-1.022156,0.090637,0.162292,0.487805,-0.975610,0.060976
1548437499085,-1.023499,0.091492,0.162476,0.487805,-0.792683,0.182927
1548437499093,-1.022156,0.091614,0.164429,0.365854,-0.731707,0.182927
1548437499108,-1.023560,0.090515,0.164307,0.304878,-0.792683,0.243902
1548437499115,-1.022644,0.090210,0.166504,0.365854,-0.853659,0.243902
1548437499123,-1.023438,0.091125,0.165710,0.426829,-0.853659,0.243902
1548437499138,-1.023560,0.090637,0.164917,0.304878,-0.792683,0.243902
1548437499153,-1.020325,0.092468,0.165039,0.365854,-0.670732,0.365854
1548437499153,-1.023010,0.092896,0.164246,0.304878,-0.792683,0.365854
1548437499168,-1.023315,0.091492,0.165222,0.365854,-0.670732,0.365854
1548437499175,-1.022156,0.090881,0.164612,0.365854,-0.609756,0.304878
1548437499183,-1.022034,0.092163,0.164795,0.365854,-0.670732,0.365854
1548437499198,-1.023560,0.092712,0.165649,0.426829,-0.670732,0.304878
1548437499205,-1.023682,0.092651,0.163025,0.243902,-0.670732,0.304878
1548437499213,-1.022400,0.091736,0.162476,0.365854,-0.548781,0.365854
1548437499228,-1.022156,0.091064,0.162354,0.243902,-0.609756,0.365854
1548437499235,-1.022827,0.092896,0.160400,0.243902,-0.731707,0.304878
1548437499243,-1.020325,0.093872,0.161987,0.243902,-0.670732,0.243902
1548437499260,-1.022827,0.094299,0.160583,0.304878,-0.670732,0.182927
1548437499265,-1.023499,0.095093,0.161499,0.304878,-0.731707,0.182927
1548437499274,-1.022461,0.094604,0.161987,0.426829,-0.731707,0.243902
1548437499288,-1.023010,0.094604,0.161560,0.304878,-0.670732,0.182927
1548437499303,-1.021667,0.093994,0.161438,0.426829,-0.670732,0.121951
1548437499303,-1.023804,0.096802,0.162170,0.365854,-0.853659,0.000000
1548437499318,-1.021362,0.096741,0.161377,0.426829,-0.914634,-0.060976
1548437499326,-1.022461,0.094177,0.161865,0.426829,-0.914634,0.000000
1548437499333,-1.021484,0.092285,0.163269,0.548781,-0.853659,-0.060976
1548437499340,-1.020935,0.090576,0.164917,0.609756,-0.792683,-0.060976
1548437499355,-1.021790,0.090332,0.163147,0.487805,-0.914634,-0.121951
1548437499363,-1.023071,0.089111,0.163086,0.609756,-0.914634,-0.060976
1548437499371,-1.022644,0.088684,0.162598,0.670732,-0.853659,-0.060976
1548437499385,-1.024658,0.088562,0.164001,0.548781,-0.914634,-0.060976
1548437499393,-1.024292,0.089722,0.167542,0.609756,-0.914634,0.060976
1548437499401,-1.024170,0.087830,0.164490,0.426829,-0.731707,0.060976
1548437499416,-1.022461,0.087769,0.167053,0.243902,-0.792683,0.121951
1548437499423,-1.022095,0.089050,0.166870,0.426829,-0.731707,0.121951
1548437499431,-1.023315,0.087952,0.166077,0.365854,-0.731707,0.182927
1548437499446,-1.022278,0.089294,0.166199,0.243902,-0.609756,0.304878
1548437499453,-1.021484,0.088501,0.165466,0.304878,-0.670732,0.426829
1548437499461,-1.021790,0.088989,0.162842,0.365854,-0.609756,0.487805
1548437499476,-1.022522,0.091248,0.161133,0.243902,-0.609756,0.426829
1548437499483,-1.023926,0.093201,0.160828,0.243902,-0.670732,0.365854
1548437499498,-1.024536,0.090576,0.161987,0.365854,-0.609756,0.365854
1548437499506,-1.023438,0.090698,0.160889,0.243902,-0.731707,0.426829
1548437499514,-1.023376,0.093567,0.159119,0.365854,-0.731707,0.487805
1548437499521,-1.024475,0.093567,0.161194,0.182927,-0.731707,0.487805
1548437499536,-1.023499,0.092773,0.162659,0.182927,-0.731707,0.426829
1548437499543,-1.022217,0.094055,0.162659,0.060976,-0.670732,0.487805
1548437499551,-1.020752,0.092529,0.161865,0.182927,-0.670732,0.487805
1548437499566,-1.022095,0.092224,0.165955,0.304878,-0.792683,0.548781
1548437499573,-1.020325,0.092957,0.166382,0.426829,-0.731707,0.426829
1548437499581,-1.021545,0.094421,0.162659,0.365854,-0.731707,0.365854
1548437499596,-1.024475,0.094910,0.164490,0.365854,-0.731707,0.365854
1548437499603,-1.022888,0.094849,0.164856,0.365854,-0.792683,0.365854
1548437499613,-1.022339,0.095032,0.162354,0.365854,-0.792683,0.304878
1548437499626,-1.022705,0.094055,0.162415,0.426829,-0.792683,0.182927
1548437499633,-1.023010,0.094055,0.164551,0.365854,-0.731707,0.182927
1548437499641,-1.023804,0.094604,0.163757,0.365854,-0.853659,0.243902
1548437499656,-1.021301,0.093994,0.163147,0.365854,-0.792683,0.121951
1548437499663,-1.023193,0.093079,0.163086,0.487805,-0.731707,0.121951
1548437499671,-1.020203,0.091370,0.164612,0.426829,-0.731707,0.121951
1548437499686,-1.022522,0.092957,0.162964,0.426829,-0.731707,0.121951
1548437499693,-1.022522,0.094910,0.164490,0.426829,-0.731707,0.060976
1548437499701,-1.022888,0.093567,0.162598,0.426829,-0.792683,-0.060976
1548437499716,-1.023804,0.093689,0.161011,0.487805,-0.853659,-0.121951
1548437499724,-1.022705,0.093323,0.162415,0.609756,-0.853659,-0.121951
1548437499731,-1.023865,0.092590,0.163330,0.670732,-0.914634,-0.121951
1548437499746,-1.023193,0.089478,0.162231,0.731707,-0.914634,-0.060976
1548437499754,-1.022827,0.088196,0.165894,0.548781,-0.853659,0.000000
1548437499761,-1.023071,0.087830,0.167175,0.487805,-0.853659,0.060976
1548437499776,-1.021851,0.088074,0.163452,0.365854,-0.853659,0.121951
1548437499783,-1.021667,0.087402,0.164612,0.365854,-0.731707,0.121951
1548437499791,-1.023376,0.088318,0.163757,0.487805,-0.731707,0.121951
1548437499806,-1.023804,0.089355,0.164734,0.426829,-0.731707,0.243902
1548437499813,-1.022522,0.090820,0.166199,0.365854,-0.731707,0.304878
1548437499821,-1.019836,0.090637,0.162903,0.426829,-0.731707,0.304878
1548437499836,-1.023621,0.090515,0.165100,0.304878,-0.731707,0.304878
1548437499843,-1.020020,0.091309,0.162964,0.304878,-0.792683,0.304878
1548437499851,-1.019775,0.091797,0.163635,0.182927,-0.731707,0.426829
1548437499866,-1.020264,0.091614,0.162903,0.121951,-0.731707,0.426829
1548437499874,-1.022522,0.090698,0.165894,0.243902,-0.670732,0.487805
1548437499881,-1.023865,0.091797,0.162537,0.365854,-0.731707,0.426829
1548437499896,-1.021790,0.092896,0.163452,0.365854,-0.792683,0.487805
1548437499903,-1.021545,0.092407,0.164185,0.426829,-0.853659,0.487805
1548437499911,-1.022522,0.090881,0.163147,0.426829,-0.731707,0.426829
1548437499926,-1.023071,0.092896,0.164978,0.365854,-0.670732,0.487805
1548437499934,-1.021790,0.094299,0.165222,0.304878,-0.731707,0.426829
1548437499941,-1.023743,0.095093,0.163635,0.304878,-0.731707,0.365854
1548437499956,-1.021851,0.094666,0.164856,0.243902,-0.853659,0.365854
1548437499963,-1.021851,0.093750,0.164917,0.365854,-0.792683,0.426829
1548437499971,-1.023560,0.094421,0.163147,0.304878,-0.731707,0.304878
1548437499986,-1.021423,0.093750,0.161804,0.304878,-0.731707,0.243902
1548437499993,-1.020630,0.093628,0.165527,0.365854,-0.609756,0.243902
1548437500001,-1.021973,0.091919,0.165100,0.243902,-0.609756,0.243902
1548437500016,-1.021057,0.093567,0.162720,0.304878,-0.609756,0.243902
1548437500023,-1.020447,0.094910,0.162903,0.365854,-0.731707,0.182927
1548437500031,-1.020386,0.094299,0.159790,0.426829,-0.670732,0.182927
1548437500046,-1.022583,0.093689,0.161377,0.365854,-0.670732,0.060976
1548437500054,-1.023132,0.094543,0.161926,0.426829,-0.670732,0.121951
1548437500061,-1.021667,0.094116,0.161133,0.365854,-0.670732,0.060976
1548437500076,-1.022339,0.094666,0.162048,0.426829,-0.670732,0.000000
1548437500083,-1.022339,0.093872,0.162415,0.426829,-0.731707,0.000000
1548437500091,-1.020813,0.091858,0.162292,0.304878,-0.731707,0.121951
1548437500106,-1.023499,0.091614,0.163452,0.426829,-0.792683,0.060976
1548437500113,-1.023315,0.090088,0.165405,0.365854,-0.914634,0.000000
1548437500121,-1.023621,0.091125,0.164917,0.304878,-0.914634,0.000000
1548437500143,-1.023926,0.091675,0.163757,0.426829,-0.853659,0.060976
1548437500144,-1.021667,0.091736,0.163513,0.365854,-0.792683,0.060976
1548437500151,-1.022583,0.092957,0.165344,0.365854,-0.792683,0.000000
1548437500173,-1.022461,0.094360,0.167847,0.182927,-0.853659,0.000000
1548437500174,-1.022217,0.096497,0.165466,0.182927,-0.792683,-0.060976
1548437500181,-1.021851,0.095825,0.166016,0.182927,-0.853659,-0.121951
1548437500196,-1.023376,0.095642,0.163147,0.365854,-0.731707,-0.121951
1548437500203,-1.023865,0.096558,0.162659,0.548781,-0.731707,-0.121951
1548437500211,-1.023865,0.094849,0.160645,0.548781,-0.792683,-0.182927
1548437500233,-1.024963,0.091064,0.163208,0.487805,-0.792683,-0.182927
1548437500234,-1.023254,0.090149,0.163513,0.548781,-0.731707,-0.304878
1548437500241,-1.023071,0.090088,0.166565,0.487805,-0.731707,-0.365854
1548437500256,-1.022156,0.088013,0.167969,0.365854,-0.670732,-0.365854
1548437500263,-1.020325,0.084839,0.167114,0.365854,-0.731707,-0.365854
1548437500271,-1.021118,0.085327,0.168274,0.487805,-0.792683,-0.243902
1548437500286,-1.022461,0.085205,0.166199,0.548781,-0.670732,-0.182927
1548437500294,-1.021484,0.084106,0.162598,0.487805,-0.670732,-0.121951
1548437500301,-1.020325,0.086487,0.162598,0.365854,-0.670732,-0.121951
1548437500316,-1.022095,0.086853,0.161194,0.304878,-0.609756,0.000000
1548437500323,-1.021973,0.086853,0.162598,0.182927,-0.670732,0.060976
1548437500331,-1.021729,0.087769,0.162109,0.304878,-0.731707,0.121951
1548437500346,-1.022949,0.088501,0.160828,0.243902,-0.731707,0.182927
1548437500353,-1.023682,0.089539,0.162781,0.304878,-0.792683,0.304878
1548437500361,-1.023315,0.089844,0.161072,0.304878,-0.792683,0.304878
1548437500376,-1.022949,0.088867,0.164978,0.426829,-0.731707,0.304878
1548437500383,-1.023376,0.089539,0.164856,0.304878,-0.731707,0.426829
1548437500391,-1.023193,0.091125,0.164368,0.121951,-0.670732,0.487805
1548437500406,-1.021912,0.091736,0.166565,0.182927,-0.731707,0.426829
1548437500413,-1.020203,0.092529,0.165222,0.365854,-0.731707,0.426829
1548437500421,-1.022827,0.091980,0.165405,0.365854,-0.731707,0.548781
1548437500436,-1.021118,0.092712,0.167480,0.365854,-0.670732,0.548781
1548437500443,-1.020691,0.094055,0.163635,0.487805,-0.731707,0.487805
1548437500451,-1.023743,0.094604,0.162292,0.426829,-0.792683,0.365854
1548437500466,-1.023987,0.094116,0.161194,0.426829,-0.731707,0.365854
1548437500474,-1.024719,0.093079,0.163818,0.548781,-0.670732,0.304878
1548437500481,-1.023987,0.091980,0.163635,0.487805,-0.731707,0.304878
1548437500496,-1.021545,0.091675,0.164368,0.426829,-0.670732,0.365854
1548437500504,-1.021729,0.091248,0.164917,0.426829,-0.731707,0.426829
1548437500511,-1.020935,0.089539,0.166687,0.243902,-0.731707,0.304878
1548437500526,-1.021057,0.090149,0.164062,0.243902,-0.670732,0.365854
1548437500533,-1.021240,0.090820,0.165222,0.365854,-0.609756,0.365854
1548437500541,-1.021423,0.092407,0.164734,0.365854,-0.670732,0.365854
1548437500556,-1.023132,0.092590,0.159668,0.243902,-0.670732,0.365854
1548437500564,-1.021973,0.092041,0.162659,0.182927,-0.670732,0.365854
1548437500571,-1.022278,0.092041,0.162903,0.426829,-0.792683,0.365854
1548437500586,-1.020813,0.090698,0.165833,0.487805,-0.731707,0.426829
1548437500594,-1.020630,0.090698,0.165283,0.426829,-0.670732,0.304878
1548437500601,-1.021973,0.091736,0.162781,0.365854,-0.670732,0.304878
1548437500616,-1.022827,0.089661,0.162598,0.365854,-0.792683,0.365854
1548437500623,-1.023560,0.090698,0.166199,0.365854,-0.792683,0.426829
1548437500631,-1.021790,0.091125,0.166199,0.365854,-0.792683,0.365854
1548437500646,-1.022156,0.092651,0.166870,0.304878,-0.731707,0.365854
1548437500653,-1.021362,0.092834,0.164978,0.182927,-0.731707,0.426829
1548437500661,-1.021973,0.094666,0.162781,0.182927,-0.731707,0.426829
1548437500676,-1.022705,0.093384,0.162781,0.243902,-0.670732,0.365854
1548437500683,-1.023865,0.093994,0.159790,0.365854,-0.731707,0.365854
1548437500691,-1.022156,0.093567,0.162109,0.426829,-0.731707,0.304878
1548437500706,-1.021301,0.092834,0.161255,0.548781,-0.731707,0.243902
1548437500713,-1.023010,0.093506,0.162109,0.487805,-0.731707,0.182927
1548437500721,-1.023315,0.091797,0.162659,0.487805,-0.731707,0.243902
1548437500736,-1.022156,0.090027,0.163574,0.426829,-0.731707,0.121951
1548437500743,-1.023071,0.090332,0.163391,0.365854,-0.670732,0.060976
1548437500751,-1.022522,0.090210,0.161804,0.365854,-0.731707,0.121951
1548437500766,-1.022949,0.091492,0.161255,0.304878,-0.792683,0.060976
1548437500773,-1.022156,0.092957,0.161682,0.365854,-0.731707,0.000000
1548437500781,-1.023193,0.093445,0.161743,0.243902,-0.792683,0.060976
1548437500796,-1.023743,0.091675,0.158813,0.243902,-0.792683,0.060976
1548437500804,-1.022278,0.094238,0.163269,0.243902,-0.792683,0.000000
1548437500818,-1.022034,0.096069,0.166626,0.304878,-0.792683,-0.060976
1548437500826,-1.023132,0.095886,0.167297,0.304878,-0.853659,-0.121951
1548437500833,-1.021484,0.095947,0.165161,0.182927,-0.975610,-0.182927
1548437500841,-1.022095,0.096313,0.163391,0.304878,-0.914634,-0.243902
1548437500856,-1.023621,0.096558,0.165649,0.426829,-0.914634,-0.304878
1548437500863,-1.022156,0.093689,0.162598,0.426829,-0.914634,-0.365854
1548437500871,-1.023621,0.090698,0.163391,0.487805,-0.914634,-0.365854
1548437500886,-1.021057,0.093750,0.165894,0.548781,-0.914634,-0.304878
1548437500893,-1.019775,0.089966,0.165161,0.426829,-0.975610,-0.304878
1548437500901,-1.021851,0.088928,0.164978,0.365854,-0.914634,-0.365854
1548437500916,-1.023376,0.090576,0.165100,0.365854,-0.853659,-0.365854
1548437500924,-1.024231,0.087830,0.167786,0.243902,-0.853659,-0.365854
1548437500931,-1.022766,0.087708,0.168823,0.304878,-0.853659,-0.243902
1548437500946,-1.024231,0.086853,0.168030,0.548781,-0.853659,-0.182927
1548437500953,-1.023804,0.086609,0.167969,0.548781,-0.792683,-0.121951
1548437500968,-1.023438,0.084595,0.166077,0.487805,-0.853659,-0.060976
1548437500976,-1.022400,0.082153,0.165100,0.731707,-0.670732,-0.060976
1548437500983,-1.023926,0.081848,0.167664,0.487805,-0.609756,0.121951
1548437500991,-1.022888,0.083435,0.169617,0.182927,-0.609756,0.243902
1548437501006,-1.021851,0.083374,0.165833,0.182927,-0.609756,0.304878
1548437501014,-1.021790,0.085632,0.164429,0.304878,-0.426829,0.487805
1548437501021,-1.023865,0.086792,0.164246,0.121951,-0.487805,0.548781
