timestamp, accel_x, accel_y, accel_z, gyro_x, gyro_y, gyro_z
1548457224579,-1.028625,-0.061646,-0.113770,0.426829,-0.853659,-0.121951
1548457224586,-1.037354,-0.058594,-0.116699,0.304878,-0.792683,0.000000
1548457224594,-1.033508,-0.059998,-0.117920,0.487805,-0.792683,0.000000
1548457224609,-1.034424,-0.060669,-0.116089,0.609756,-0.914634,0.060976
1548457224624,-1.033752,-0.060852,-0.117676,0.731707,-0.914634,0.243902
1548457224625,-1.034607,-0.059387,-0.118774,0.792683,-0.853659,0.243902
1548457224639,-1.032898,-0.059937,-0.117126,0.792683,-0.792683,0.304878
1548457224646,-1.032898,-0.062012,-0.117188,0.914634,-0.731707,0.426829
1548457224662,-1.032593,-0.059387,-0.119202,0.914634,-0.670732,0.548781
1548457224669,-1.031982,-0.058228,-0.115723,0.914634,-0.609756,0.548781
1548457224676,-1.031677,-0.060974,-0.114319,1.036585,-0.548781,0.731707
1548457224684,-1.032654,-0.061035,-0.116882,1.036585,-0.609756,0.792683
1548457224699,-1.030701,-0.060547,-0.117981,0.975610,-0.670732,0.731707
1548457224706,-1.029053,-0.063232,-0.119812,0.975610,-0.731707,0.670732
1548457224714,-1.029053,-0.062073,-0.120178,0.914634,-0.670732,0.670732
1548457224729,-1.029358,-0.062256,-0.116882,0.975610,-0.670732,0.670732
1548457224737,-1.028503,-0.063660,-0.119812,1.036585,-0.792683,0.670732
1548457224744,-1.028870,-0.063721,-0.118530,1.036585,-0.853659,0.670732
1548457224759,-1.028503,-0.060791,-0.120117,0.975610,-1.097561,0.609756
1548457224767,-1.030762,-0.061584,-0.120117,0.853659,-1.097561,0.487805
1548457224774,-1.030823,-0.059387,-0.118164,0.853659,-1.097561,0.365854
1548457224789,-1.031616,-0.059448,-0.119019,0.975610,-1.097561,0.304878
1548457224797,-1.033081,-0.057922,-0.122131,0.975610,-1.036585,0.365854
1548457224804,-1.031860,-0.058228,-0.120483,0.914634,-1.036585,0.304878
1548457224819,-1.030701,-0.059631,-0.119873,0.975610,-0.853659,0.365854
1548457224826,-1.032593,-0.061890,-0.121826,0.792683,-0.670732,0.304878
1548457224834,-1.032837,-0.062927,-0.119751,0.792683,-0.731707,0.304878
1548457224849,-1.033936,-0.062622,-0.120605,0.670732,-0.670732,0.243902
1548457224856,-1.032776,-0.062500,-0.117249,0.548781,-0.609756,0.243902
1548457224864,-1.032776,-0.061218,-0.119507,0.548781,-0.731707,0.182927
1548457224879,-1.032288,-0.061401,-0.117737,0.426829,-0.731707,0.121951
1548457224887,-1.032410,-0.062134,-0.117004,0.304878,-0.609756,0.121951
1548457224894,-1.031006,-0.061951,-0.117004,0.182927,-0.670732,0.121951
1548457224909,-1.031494,-0.060913,-0.117981,0.182927,-0.548781,0.060976
1548457224917,-1.032227,-0.060242,-0.116150,0.182927,-0.548781,0.182927
1548457224924,-1.034485,-0.061951,-0.117065,0.243902,-0.548781,0.000000
1548457224939,-1.035461,-0.061096,-0.118958,0.182927,-0.487805,0.121951
1548457224947,-1.031616,-0.059998,-0.119507,0.182927,-0.548781,0.121951
1548457224954,-1.031860,-0.060730,-0.117859,0.182927,-0.487805,0.182927
1548457224969,-1.031250,-0.059387,-0.119141,0.121951,-0.548781,0.182927
1548457224977,-1.029358,-0.059387,-0.118652,0.121951,-0.487805,0.121951
1548457224984,-1.030945,-0.057617,-0.117798,0.000000,-0.487805,0.182927
1548457224999,-1.028503,-0.058777,-0.118591,0.121951,-0.487805,0.182927
1548457225007,-1.028748,-0.058289,-0.119751,0.182927,-0.548781,0.121951
1548457225014,-1.029297,-0.058899,-0.121155,0.121951,-0.548781,0.182927
1548457225029,-1.029358,-0.057983,-0.118469,0.243902,-0.548781,0.243902
1548457225037,-1.030701,-0.059326,-0.118530,0.365854,-0.731707,0.243902
1548457225044,-1.031677,-0.061218,-0.119385,0.243902,-0.670732,0.304878
1548457225059,-1.030518,-0.060791,-0.120911,0.243902,-0.670732,0.304878
1548457225067,-1.032166,-0.061279,-0.118774,0.243902,-0.853659,0.243902
1548457225074,-1.032104,-0.060852,-0.118591,0.243902,-0.731707,0.304878
1548457225089,-1.030640,-0.059875,-0.119080,0.304878,-0.670732,0.365854
1548457225097,-1.032776,-0.057922,-0.117432,0.243902,-0.792683,0.304878
1548457225104,-1.033813,-0.059082,-0.116638,0.182927,-0.853659,0.243902
1548457225119,-1.031067,-0.059448,-0.118042,0.243902,-0.792683,0.243902
1548457225127,-1.032959,-0.060425,-0.119263,0.365854,-0.731707,0.365854
1548457225134,-1.033203,-0.059998,-0.119446,0.304878,-0.670732,0.365854
1548457225149,-1.031799,-0.061035,-0.117737,0.304878,-0.731707,0.365854
1548457225157,-1.033813,-0.060730,-0.119385,0.426829,-0.609756,0.365854
1548457225164,-1.032532,-0.060608,-0.118530,0.426829,-0.670732,0.365854
1548457225179,-1.030029,-0.059143,-0.117676,0.365854,-0.731707,0.487805
1548457225187,-1.031067,-0.059570,-0.118591,0.304878,-0.670732,0.426829
1548457225194,-1.030518,-0.060181,-0.119934,0.304878,-0.731707,0.426829
1548457225209,-1.032166,-0.058594,-0.118774,0.182927,-0.609756,0.365854
1548457225216,-1.031799,-0.059631,-0.117126,0.304878,-0.548781,0.365854
1548457225224,-1.031555,-0.058716,-0.115723,0.243902,-0.609756,0.304878
1548457225239,-1.028870,-0.059326,-0.117249,0.182927,-0.609756,0.304878
1548457225246,-1.028748,-0.060730,-0.117310,0.304878,-0.670732,0.243902
1548457225254,-1.031494,-0.059570,-0.116150,0.304878,-0.670732,0.243902
1548457225269,-1.030396,-0.058533,-0.116638,0.365854,-0.609756,0.304878
1548457225277,-1.028748,-0.059692,-0.118835,0.365854,-0.548781,0.243902
1548457225284,-1.030884,-0.060364,-0.117737,0.365854,-0.670732,0.243902
1548457225299,-1.032288,-0.059265,-0.117859,0.365854,-0.731707,0.243902
1548457225307,-1.033142,-0.059326,-0.118652,0.304878,-0.670732,0.182927
1548457225314,-1.032471,-0.060791,-0.118958,0.304878,-0.670732,0.182927
1548457225329,-1.032532,-0.060059,-0.117859,0.365854,-0.670732,0.182927
1548457225336,-1.031555,-0.062561,-0.117310,0.426829,-0.670732,0.304878
1548457225344,-1.028198,-0.061401,-0.117493,0.487805,-0.670732,0.243902
1548457225359,-1.030884,-0.058289,-0.117249,0.487805,-0.670732,0.243902
1548457225367,-1.029236,-0.059692,-0.119568,0.426829,-0.792683,0.243902
1548457225374,-1.030212,-0.058289,-0.115662,0.548781,-0.853659,0.121951
1548457225389,-1.031860,-0.056335,-0.116882,0.731707,-0.914634,0.060976
1548457225397,-1.030823,-0.056824,-0.117920,0.609756,-0.914634,0.060976
1548457225404,-1.030823,-0.056274,-0.119873,0.670732,-0.853659,0.121951
1548457225419,-1.032166,-0.059265,-0.118103,0.670732,-0.792683,0.182927
1548457225426,-1.033203,-0.060425,-0.119568,0.670732,-0.792683,0.243902
1548457225434,-1.030334,-0.061279,-0.119080,0.670732,-0.670732,0.304878
1548457225449,-1.030396,-0.060486,-0.116516,0.731707,-0.609756,0.182927
1548457225456,-1.031921,-0.061340,-0.117371,0.731707,-0.609756,0.182927
1548457225464,-1.031128,-0.060059,-0.118713,0.548781,-0.731707,0.182927
1548457225479,-1.032288,-0.059875,-0.116943,0.487805,-0.731707,0.243902
1548457225487,-1.032898,-0.061829,-0.117371,0.426829,-0.792683,0.304878
1548457225494,-1.033020,-0.060974,-0.117798,0.365854,-0.792683,0.365854
1548457225509,-1.032166,-0.060730,-0.118103,0.304878,-0.731707,0.426829
1548457225517,-1.033508,-0.060303,-0.118469,0.365854,-0.792683,0.304878
1548457225524,-1.033875,-0.059753,-0.117004,0.609756,-0.853659,0.365854
1548457225539,-1.034119,-0.060547,-0.118164,0.548781,-0.731707,0.365854
1548457225547,-1.033569,-0.060425,-0.120239,0.609756,-0.609756,0.426829
1548457225554,-1.033081,-0.060608,-0.119263,0.609756,-0.670732,0.487805
1548457225569,-1.031311,-0.060791,-0.119080,0.426829,-0.609756,0.548781
1548457225577,-1.031921,-0.060608,-0.119507,0.426829,-0.670732,0.426829
1548457225584,-1.030457,-0.059509,-0.116699,0.365854,-0.731707,0.426829
1548457225599,-1.029297,-0.057190,-0.114685,0.365854,-0.670732,0.426829
1548457225606,-1.029602,-0.058228,-0.119446,0.426829,-0.670732,0.304878
1548457225614,-1.028748,-0.056946,-0.119141,0.426829,-0.670732,0.182927
1548457225629,-1.029785,-0.058960,-0.117371,0.304878,-0.670732,0.182927
1548457225636,-1.030884,-0.059021,-0.117249,0.304878,-0.670732,0.243902
1548457225644,-1.031616,-0.059021,-0.119141,0.365854,-0.792683,0.304878
1548457225659,-1.029785,-0.058594,-0.120483,0.426829,-0.670732,0.243902
1548457225667,-1.030273,-0.060486,-0.119629,0.426829,-0.670732,0.060976
1548457225674,-1.031250,-0.060181,-0.117798,0.426829,-0.731707,0.000000
1548457225689,-1.029602,-0.060913,-0.117676,0.487805,-0.792683,0.060976
1548457225697,-1.031921,-0.061890,-0.116577,0.426829,-0.792683,0.000000
1548457225704,-1.032898,-0.060791,-0.116272,0.426829,-0.731707,0.060976
1548457225719,-1.032837,-0.059021,-0.118408,0.487805,-0.670732,0.121951
1548457225727,-1.033142,-0.058105,-0.118225,0.548781,-0.670732,0.121951
1548457225734,-1.033142,-0.059998,-0.118103,0.670732,-0.731707,0.060976
1548457225749,-1.030396,-0.061707,-0.116577,0.670732,-0.792683,0.121951
1548457225757,-1.031555,-0.061462,-0.116699,0.731707,-0.731707,0.121951
1548457225764,-1.032898,-0.062622,-0.117249,0.731707,-0.792683,0.182927
1548457225779,-1.033386,-0.060852,-0.118408,0.731707,-0.792683,0.182927
1548457225787,-1.032043,-0.061218,-0.118103,0.731707,-0.731707,0.243902
1548457225794,-1.032532,-0.060547,-0.119141,0.792683,-0.731707,0.182927
1548457225809,-1.031860,-0.059326,-0.117065,0.731707,-0.792683,0.182927
1548457225817,-1.030151,-0.058960,-0.119019,0.670732,-0.731707,0.243902
1548457225824,-1.030579,-0.059387,-0.116943,0.670732,-0.731707,0.243902
1548457225839,-1.030579,-0.058777,-0.116516,0.731707,-0.670732,0.243902
1548457225847,-1.032532,-0.059570,-0.117737,0.548781,-0.670732,0.304878
1548457225854,-1.032654,-0.062317,-0.120422,0.487805,-0.609756,0.243902
1548457225869,-1.029419,-0.059143,-0.116943,0.609756,-0.609756,0.365854
1548457225876,-1.031555,-0.058716,-0.116638,0.609756,-0.548781,0.365854
1548457225884,-1.031738,-0.059265,-0.117310,0.548781,-0.548781,0.487805
1548457225899,-1.028015,-0.058899,-0.116272,0.548781,-0.487805,0.487805
1548457225906,-1.030212,-0.059937,-0.118225,0.487805,-0.487805,0.365854
1548457225914,-1.029541,-0.057129,-0.115540,0.487805,-0.548781,0.304878
1548457225929,-1.030273,-0.057251,-0.119141,0.609756,-0.548781,0.304878
1548457225937,-1.029114,-0.058533,-0.118042,0.548781,-0.548781,0.304878
1548457225944,-1.028259,-0.058411,-0.116821,0.487805,-0.548781,0.243902
1548457225959,-1.028870,-0.059387,-0.118225,0.487805,-0.548781,0.243902
1548457225967,-1.029358,-0.058289,-0.117920,0.487805,-0.548781,0.182927
1548457225974,-1.030151,-0.061462,-0.117615,0.426829,-0.670732,0.060976
1548457225989,-1.030029,-0.058167,-0.115967,0.365854,-0.609756,0.182927
1548457225997,-1.030396,-0.059021,-0.117615,0.426829,-0.670732,0.060976
1548457226004,-1.029419,-0.061829,-0.118530,0.487805,-0.731707,0.000000
1548457226019,-1.031860,-0.061951,-0.116882,0.487805,-0.731707,0.000000
1548457226027,-1.030212,-0.061584,-0.118225,0.548781,-0.670732,0.000000
1548457226034,-1.031860,-0.063721,-0.118896,0.548781,-0.731707,0.000000
1548457226049,-1.033752,-0.061279,-0.118896,0.609756,-0.792683,-0.060976
1548457226057,-1.034180,-0.061829,-0.120544,0.609756,-0.853659,0.000000
1548457226064,-1.035095,-0.061707,-0.119995,0.670732,-0.853659,-0.121951
1548457226079,-1.036621,-0.062195,-0.120117,0.609756,-0.914634,-0.121951
1548457226087,-1.037659,-0.063293,-0.119873,0.548781,-0.975610,-0.060976
1548457226094,-1.036987,-0.066223,-0.123535,0.548781,-0.853659,0.000000
1548457226109,-1.038452,-0.065796,-0.122375,0.548781,-0.731707,0.121951
1548457226116,-1.038696,-0.065002,-0.120972,0.487805,-0.670732,0.243902
1548457226124,-1.036987,-0.066711,-0.121704,0.609756,-0.609756,0.304878
1548457226139,-1.037170,-0.067871,-0.119812,0.853659,-0.609756,0.426829
1548457226147,-1.037781,-0.068359,-0.119507,0.853659,-0.853659,0.487805
1548457226154,-1.039001,-0.069641,-0.121460,0.975610,-0.975610,0.548781
1548457226169,-1.039246,-0.070679,-0.119568,0.914634,-1.097561,0.670732
1548457226177,-1.040588,-0.073303,-0.120117,0.853659,-1.097561,0.792683
1548457226192,-1.043274,-0.072937,-0.121643,0.853659,-1.341463,0.792683
1548457226199,-1.046997,-0.073120,-0.122559,0.975610,-1.280488,0.853659
1548457226207,-1.049561,-0.076233,-0.123291,0.914634,-1.402439,0.975610
1548457226214,-1.050415,-0.077637,-0.125732,0.975610,-1.463415,1.280488
1548457226229,-1.049194,-0.077026,-0.125671,1.036585,-1.280488,1.768293
1548457226236,-1.046753,-0.074585,-0.128601,1.036585,-1.097561,2.317073
1548457226244,-1.040955,-0.069031,-0.128113,1.158537,-0.975610,2.804878
1548457226259,-1.033936,-0.064270,-0.127014,1.280488,-0.914634,3.170732
1548457226274,-1.027466,-0.059875,-0.127136,1.219512,-0.853659,3.414634
1548457226275,-1.020508,-0.052551,-0.126160,1.158537,-0.975610,3.597561
1548457226289,-1.016296,-0.046265,-0.125427,0.792683,-1.036585,3.597561
1548457226297,-1.012573,-0.043030,-0.124023,0.426829,-1.097561,3.475610
1548457226304,-1.004211,-0.038574,-0.122742,-0.304878,-1.158537,3.170732
1548457226319,-1.000366,-0.033386,-0.123718,-1.158537,-1.158537,2.743902
1548457226327,-1.000122,-0.030884,-0.120178,-1.829268,-1.280488,2.256098
1548457226334,-0.999023,-0.029175,-0.116394,-2.378049,-1.402439,1.585366
1548457226349,-0.999695,-0.032043,-0.116211,-2.865854,-1.463415,0.975610
1548457226356,-1.003967,-0.036011,-0.115356,-3.353659,-1.524390,0.548781
1548457226364,-1.007874,-0.041016,-0.112183,-3.597561,-1.707317,0.182927
1548457226379,-1.013184,-0.045715,-0.112793,-3.658537,-1.646341,-0.243902
1548457226386,-1.016113,-0.047546,-0.110901,-3.719512,-1.585366,-0.548781
1548457226394,-1.020569,-0.052979,-0.110657,-3.536585,-1.524390,-1.036585
1548457226416,-1.030884,-0.052429,-0.108643,-3.536585,-1.524390,-1.280488
1548457226418,-1.036072,-0.054077,-0.105896,-3.353659,-1.585366,-1.463415
1548457226424,-1.040710,-0.052185,-0.107727,-3.231707,-1.524390,-1.646341
1548457226439,-1.046570,-0.055786,-0.106995,-2.926829,-1.280488,-1.646341
1548457226447,-1.048096,-0.053894,-0.106506,-2.560976,-0.975610,-1.524390
1548457226454,-1.047302,-0.051880,-0.109924,-2.378049,-0.487805,-1.463415
1548457226469,-1.048523,-0.054321,-0.110840,-2.134146,0.060976,-1.219512
1548457226477,-1.046204,-0.056885,-0.109497,-1.646341,0.487805,-0.975610
1548457226484,-1.042664,-0.059082,-0.109985,-1.341463,0.914634,-0.975610
1548457226499,-1.038879,-0.060730,-0.109314,-1.158537,1.280488,-0.914634
1548457226506,-1.036255,-0.061768,-0.111572,-1.158537,1.463415,-0.914634
1548457226514,-1.032043,-0.059448,-0.111877,-1.219512,1.524390,-1.036585
1548457226529,-1.029785,-0.057251,-0.110596,-1.402439,1.707317,-1.097561
1548457226537,-1.025146,-0.052490,-0.107117,-1.768293,1.768293,-1.280488
1548457226552,-1.022888,-0.051514,-0.105957,-1.951220,1.463415,-1.463415
1548457226559,-1.024658,-0.048401,-0.104797,-2.134146,1.341463,-1.585366
1548457226567,-1.025574,-0.048279,-0.104248,-2.134146,1.280488,-1.768293
1548457226574,-1.027771,-0.047913,-0.103821,-2.073171,1.219512,-1.890244
1548457226589,-1.027283,-0.046021,-0.103760,-1.890244,1.158537,-1.951220
1548457226596,-1.025818,-0.043152,-0.105957,-1.524390,1.341463,-1.951220
1548457226604,-1.027771,-0.045349,-0.102295,-0.731707,1.463415,-1.890244
1548457226619,-1.028931,-0.048523,-0.102539,0.243902,1.280488,-2.012195
1548457226627,-1.027527,-0.053345,-0.106628,1.158537,1.402439,-2.073171
1548457226634,-1.029419,-0.055359,-0.109131,1.707317,1.280488,-1.890244
1548457226649,-1.037415,-0.057312,-0.108032,2.378049,0.853659,-1.707317
1548457226657,-1.039368,-0.057739,-0.109985,3.170732,0.426829,-1.768293
1548457226664,-1.038391,-0.057190,-0.114258,3.719512,0.426829,-1.646341
1548457226679,-1.037170,-0.055481,-0.118225,4.329268,0.365854,-1.219512
1548457226694,-1.036133,-0.061829,-0.122009,5.670732,0.426829,-0.609756
1548457226695,-1.037109,-0.069519,-0.127625,7.073171,-0.060976,0.060976
1548457226709,-1.038452,-0.072693,-0.129822,8.414635,-0.609756,0.670732
1548457226717,-1.040649,-0.077332,-0.133118,9.573171,-1.219512,1.036585
1548457226724,-1.041016,-0.078796,-0.134827,10.060976,-1.585366,1.402439
1548457226739,-1.041382,-0.079590,-0.134033,10.060976,-2.012195,1.707317
1548457226746,-1.043091,-0.078735,-0.131958,9.634147,-2.500000,2.012195
1548457226754,-1.042297,-0.079224,-0.137146,8.841464,-2.865854,2.317073
1548457226769,-1.042542,-0.076416,-0.138245,7.804878,-3.109756,2.500000
1548457226777,-1.039124,-0.074524,-0.136597,6.768293,-3.109756,2.560976
1548457226784,-1.035095,-0.073608,-0.135193,6.097561,-3.109756,2.621951
1548457226799,-1.033813,-0.072266,-0.137634,5.426829,-3.231707,2.682927
1548457226807,-1.030212,-0.070801,-0.135498,4.695122,-3.414634,2.743902
1548457226814,-1.025024,-0.071045,-0.135681,4.024390,-3.719512,2.682927
1548457226829,-1.024109,-0.071045,-0.136963,3.109756,-3.902439,2.621951
1548457226836,-1.022217,-0.069153,-0.132996,2.134146,-4.024390,2.378049
1548457226844,-1.020691,-0.064209,-0.127991,1.097561,-4.207317,2.134146
1548457226859,-1.021729,-0.061951,-0.126526,0.000000,-4.390244,1.829268
1548457226867,-1.025208,-0.060547,-0.122498,-0.975610,-4.512195,1.402439
1548457226874,-1.027222,-0.059265,-0.118286,-1.707317,-4.512195,1.280488
1548457226889,-1.033813,-0.056946,-0.113098,-2.195122,-4.390244,1.097561
1548457226897,-1.038086,-0.058228,-0.110596,-2.256098,-4.146341,0.853659
1548457226904,-1.040649,-0.060059,-0.109253,-2.256098,-3.719512,0.792683
1548457226926,-1.046509,-0.060852,-0.107910,-2.134146,-3.109756,0.670732
1548457226927,-1.048523,-0.060974,-0.105225,-1.890244,-2.378049,0.731707
1548457226934,-1.051270,-0.064697,-0.103943,-1.707317,-1.585366,0.731707
1548457226949,-1.053162,-0.065002,-0.106262,-1.646341,-0.975610,0.792683
1548457226957,-1.049377,-0.064636,-0.109436,-1.524390,-0.182927,0.792683
1548457226964,-1.044373,-0.065308,-0.109070,-1.646341,0.609756,1.036585
1548457226979,-1.042358,-0.062500,-0.110474,-1.463415,1.341463,1.158537
1548457226986,-1.039307,-0.059021,-0.110474,-1.585366,1.951220,1.158537
1548457226994,-1.035889,-0.055176,-0.115601,-1.768293,2.439024,1.158537
1548457227009,-1.032349,-0.052795,-0.116150,-1.890244,2.865854,1.097561
1548457227016,-1.026306,-0.052612,-0.116699,-2.012195,3.231707,1.036585
1548457227024,-1.023438,-0.049438,-0.115295,-2.195122,3.414634,0.853659
1548457227039,-1.017883,-0.049744,-0.118896,-2.256098,3.536585,0.670732
1548457227047,-1.013062,-0.051941,-0.119751,-2.256098,3.414634,0.426829
1548457227055,-1.011353,-0.049744,-0.121399,-2.500000,3.170732,0.121951
1548457227069,-1.011536,-0.050354,-0.123901,-2.621951,2.743902,-0.182927
1548457227078,-1.014160,-0.049805,-0.121338,-2.804878,2.317073,-0.426829
1548457227084,-1.014160,-0.050171,-0.121887,-2.865854,1.829268,-0.731707
1548457227099,-1.015503,-0.050842,-0.123413,-3.109756,1.402439,-0.975610
1548457227106,-1.019775,-0.050354,-0.122437,-3.170732,0.975610,-1.036585
1548457227114,-1.022644,-0.051880,-0.121521,-2.987805,0.487805,-1.036585
1548457227130,-1.024536,-0.051575,-0.120178,-2.804878,0.182927,-0.975610
1548457227137,-1.027100,-0.052612,-0.119507,-2.560976,-0.060976,-0.914634
1548457227144,-1.029907,-0.051880,-0.118591,-2.256098,-0.304878,-0.853659
1548457227159,-1.030273,-0.055054,-0.116272,-1.829268,-0.548781,-0.731707
1548457227167,-1.031189,-0.054260,-0.117432,-1.524390,-0.731707,-0.548781
1548457227174,-1.030945,-0.054565,-0.114807,-1.280488,-0.792683,-0.365854
1548457227189,-1.031189,-0.054321,-0.114441,-0.914634,-1.036585,-0.182927
1548457227197,-1.030334,-0.054260,-0.113647,-0.487805,-1.158537,-0.060976
1548457227204,-1.030090,-0.052856,-0.113708,-0.243902,-1.280488,0.060976
1548457227219,-1.030212,-0.052795,-0.114319,0.121951,-1.463415,0.121951
1548457227227,-1.029663,-0.051514,-0.114075,0.548781,-1.585366,0.121951
1548457227234,-1.030457,-0.052429,-0.113098,0.914634,-1.707317,0.304878
1548457227249,-1.028931,-0.052673,-0.112854,1.036585,-1.829268,0.304878
1548457227257,-1.030396,-0.052856,-0.112915,1.341463,-1.707317,0.426829
1548457227264,-1.031372,-0.053528,-0.113159,1.402439,-1.646341,0.304878
1548457227279,-1.029419,-0.055603,-0.114258,1.341463,-1.646341,0.365854
1548457227287,-1.033020,-0.055115,-0.111511,1.280488,-1.707317,0.304878
1548457227294,-1.034729,-0.055237,-0.112732,0.975610,-1.646341,0.121951
1548457227309,-1.034424,-0.053955,-0.111023,0.609756,-1.463415,0.121951
1548457227317,-1.034607,-0.055054,-0.112610,0.487805,-1.341463,0.182927
1548457227324,-1.037964,-0.055481,-0.111084,0.365854,-1.097561,0.182927
1548457227339,-1.037415,-0.054993,-0.110229,0.182927,-0.975610,0.121951
1548457227346,-1.034912,-0.054321,-0.110596,0.487805,-0.670732,0.182927
1548457227354,-1.034546,-0.053955,-0.114197,0.731707,-0.365854,0.243902
1548457227369,-1.035706,-0.055115,-0.112427,1.097561,-0.243902,0.243902
1548457227377,-1.033752,-0.055054,-0.112549,1.524390,-0.121951,0.243902
1548457227384,-1.030884,-0.058533,-0.114014,2.073171,0.000000,0.304878
1548457227399,-1.031311,-0.056824,-0.114563,2.500000,0.060976,0.365854
1548457227407,-1.031433,-0.056641,-0.119690,2.743902,0.000000,0.426829
1548457227414,-1.030579,-0.059692,-0.120728,2.987805,-0.060976,0.426829
1548457227429,-1.030457,-0.062256,-0.120789,3.170732,-0.060976,0.426829
1548457227437,-1.031250,-0.064697,-0.122070,3.292683,-0.304878,0.365854
1548457227444,-1.032166,-0.065735,-0.123108,3.414634,-0.426829,0.365854
1548457227459,-1.033020,-0.065552,-0.122314,3.353659,-0.609756,0.365854
1548457227466,-1.032593,-0.065186,-0.122314,3.353659,-0.853659,0.365854
1548457227474,-1.032959,-0.063477,-0.121399,3.048780,-1.036585,0.304878
1548457227489,-1.034058,-0.064941,-0.123718,2.743902,-1.158537,0.304878
1548457227497,-1.033508,-0.064270,-0.123413,2.500000,-1.219512,0.182927
1548457227504,-1.034546,-0.062256,-0.122192,2.195122,-1.219512,0.243902
1548457227519,-1.033997,-0.061462,-0.122742,2.073171,-1.280488,0.304878
1548457227527,-1.033020,-0.062073,-0.123535,1.707317,-1.341463,0.243902
1548457227534,-1.033020,-0.062439,-0.121399,1.402439,-1.341463,0.243902
1548457227549,-1.033569,-0.062378,-0.121582,1.158537,-1.158537,0.243902
1548457227557,-1.032959,-0.062012,-0.122437,1.036585,-1.158537,0.243902
1548457227564,-1.034241,-0.060608,-0.123901,0.853659,-1.219512,0.243902
1548457227579,-1.033203,-0.060547,-0.122009,0.548781,-1.219512,0.060976
1548457227587,-1.033813,-0.060730,-0.121399,0.365854,-1.036585,0.121951
1548457227594,-1.032288,-0.061584,-0.119690,0.243902,-0.975610,0.060976
1548457227616,-1.033325,-0.059143,-0.119385,0.243902,-0.853659,0.000000
1548457227617,-1.034363,-0.059204,-0.119507,0.182927,-0.792683,0.000000
1548457227624,-1.034668,-0.058289,-0.120239,0.243902,-0.670732,0.000000
1548457227639,-1.033447,-0.059326,-0.121094,0.304878,-0.609756,0.000000
1548457227646,-1.032959,-0.057434,-0.120239,0.243902,-0.487805,0.121951
1548457227654,-1.034790,-0.057007,-0.120178,0.182927,-0.365854,0.121951
1548457227669,-1.034973,-0.058350,-0.120850,0.304878,-0.304878,0.243902
1548457227677,-1.033813,-0.060242,-0.121704,0.365854,-0.182927,0.365854
1548457227684,-1.032654,-0.061401,-0.122803,0.304878,-0.121951,0.365854
1548457227699,-1.029236,-0.061890,-0.124207,0.182927,0.000000,0.426829
1548457227707,-1.029724,-0.059387,-0.122192,0.060976,-0.060976,0.548781
1548457227714,-1.030884,-0.057312,-0.122070,0.000000,-0.060976,0.670732
1548457227730,-1.028015,-0.057922,-0.123596,-0.121951,-0.121951,0.670732
1548457227737,-1.024902,-0.057739,-0.124146,-0.182927,-0.243902,0.731707
1548457227744,-1.027039,-0.056885,-0.123474,-0.182927,-0.304878,0.731707
1548457227759,-1.025696,-0.056580,-0.124207,-0.121951,-0.548781,0.731707
1548457227767,-1.025452,-0.055786,-0.121826,-0.060976,-0.792683,0.853659
1548457227774,-1.027405,-0.058105,-0.124268,0.000000,-0.914634,0.731707
1548457227789,-1.027222,-0.057617,-0.124268,0.060976,-1.097561,0.670732
1548457227797,-1.027344,-0.055908,-0.123108,0.000000,-1.158537,0.670732
1548457227804,-1.027344,-0.056763,-0.122375,-0.060976,-1.341463,0.731707
1548457227819,-1.026489,-0.057373,-0.121948,-0.121951,-1.463415,0.609756
1548457227827,-1.029358,-0.057495,-0.122253,-0.060976,-1.463415,0.609756
1548457227834,-1.030212,-0.057373,-0.121948,-0.182927,-1.463415,0.670732
1548457227850,-1.031738,-0.057861,-0.117676,-0.243902,-1.463415,0.548781
1548457227857,-1.029785,-0.057739,-0.118591,-0.426829,-1.463415,0.487805
1548457227864,-1.030518,-0.057312,-0.117493,-0.548781,-1.280488,0.426829
1548457227879,-1.030212,-0.053345,-0.117126,-0.609756,-1.158537,0.243902
1548457227886,-1.031006,-0.057800,-0.115234,-0.853659,-1.036585,0.243902
1548457227894,-1.033264,-0.055969,-0.115234,-0.914634,-0.792683,0.243902
1548457227909,-1.031189,-0.056152,-0.112732,-0.975610,-0.792683,0.060976
1548457227916,-1.029297,-0.056091,-0.116577,-0.914634,-0.670732,-0.121951
1548457227924,-1.030640,-0.056030,-0.114319,-1.097561,-0.487805,-0.182927
1548457227939,-1.029724,-0.057678,-0.111938,-1.036585,-0.304878,-0.182927
1548457227947,-1.032043,-0.055359,-0.113953,-1.097561,-0.243902,-0.243902
1548457227954,-1.033386,-0.056335,-0.115845,-1.158537,-0.243902,-0.487805
1548457227969,-1.031494,-0.056213,-0.114624,-1.097561,-0.182927,-0.487805
1548457227977,-1.030273,-0.057251,-0.114685,-1.036585,-0.121951,-0.426829
1548457227984,-1.032532,-0.057983,-0.114990,-0.914634,-0.182927,-0.487805
1548457227999,-1.031555,-0.056885,-0.112549,-0.731707,-0.060976,-0.548781
1548457228006,-1.029053,-0.057312,-0.114624,-0.609756,-0.121951,-0.548781
1548457228014,-1.029846,-0.056213,-0.115417,-0.548781,-0.121951,-0.548781
1548457228029,-1.030884,-0.056702,-0.113220,-0.304878,-0.304878,-0.426829
1548457228037,-1.031128,-0.054749,-0.115295,-0.121951,-0.365854,-0.365854
1548457228044,-1.031860,-0.053650,-0.116821,0.121951,-0.487805,-0.426829
1548457228059,-1.030273,-0.054016,-0.116638,0.487805,-0.365854,-0.304878
1548457228067,-1.030640,-0.056152,-0.117004,0.548781,-0.487805,-0.182927
1548457228074,-1.033447,-0.057190,-0.117065,0.609756,-0.548781,-0.060976
1548457228089,-1.032227,-0.057495,-0.116943,0.792683,-0.487805,0.000000
1548457228096,-1.033264,-0.058960,-0.116150,0.975610,-0.487805,0.121951
1548457228104,-1.032715,-0.058105,-0.116211,1.097561,-0.609756,0.243902
1548457228119,-1.031738,-0.058228,-0.117920,1.097561,-0.792683,0.304878
1548457228127,-1.033203,-0.058960,-0.117554,1.158537,-0.792683,0.304878
1548457228134,-1.033752,-0.060059,-0.115723,1.158537,-0.792683,0.426829
1548457228149,-1.033691,-0.058960,-0.117615,1.219512,-0.853659,0.487805
1548457228157,-1.035217,-0.058044,-0.118164,1.280488,-1.036585,0.609756
1548457228164,-1.035156,-0.057739,-0.119934,1.341463,-0.975610,0.670732
1548457228179,-1.034973,-0.058655,-0.121033,1.463415,-0.975610,0.670732
1548457228186,-1.033264,-0.059692,-0.118958,1.463415,-1.097561,0.792683
1548457228194,-1.033936,-0.059631,-0.120056,1.524390,-1.036585,0.914634
1548457228209,-1.034607,-0.057495,-0.118896,1.646341,-1.036585,0.914634
1548457228217,-1.033630,-0.058594,-0.121033,1.646341,-0.853659,0.914634
1548457228224,-1.032532,-0.058899,-0.120728,1.524390,-0.853659,0.853659
1548457228239,-1.032104,-0.058838,-0.119751,1.402439,-0.853659,0.914634
1548457228247,-1.029175,-0.058594,-0.119873,1.280488,-0.792683,0.853659
1548457228254,-1.027405,-0.058350,-0.119873,1.219512,-0.853659,0.731707
1548457228269,-1.028992,-0.058289,-0.123230,1.158537,-0.853659,0.609756
1548457228276,-1.031067,-0.059387,-0.120300,1.219512,-0.792683,0.548781
1548457228284,-1.030212,-0.057800,-0.119263,1.219512,-0.792683,0.365854
1548457228299,-1.030396,-0.058899,-0.120789,1.158537,-0.792683,0.243902
1548457228307,-1.030884,-0.057251,-0.121094,0.975610,-0.670732,0.121951
1548457228315,-1.030823,-0.058044,-0.121887,0.792683,-0.670732,0.121951
1548457228329,-1.032166,-0.059814,-0.121948,0.731707,-0.670732,0.060976
1548457228336,-1.031860,-0.060852,-0.121094,0.731707,-0.609756,0.060976
1548457228344,-1.033020,-0.058472,-0.121399,0.731707,-0.548781,-0.060976
1548457228359,-1.032593,-0.059753,-0.119873,0.670732,-0.426829,-0.060976
1548457228367,-1.032227,-0.058777,-0.121277,0.609756,-0.426829,-0.060976
1548457228374,-1.031921,-0.058167,-0.121155,0.487805,-0.487805,-0.121951
1548457228389,-1.030457,-0.060974,-0.122803,0.426829,-0.487805,-0.182927
1548457228397,-1.032104,-0.058472,-0.123291,0.487805,-0.426829,0.000000
1548457228404,-1.029358,-0.058838,-0.120667,0.426829,-0.365854,0.000000
1548457228419,-1.030029,-0.060303,-0.122742,0.304878,-0.548781,0.000000
1548457228426,-1.030029,-0.058350,-0.121582,0.365854,-0.609756,0.000000
1548457228434,-1.029602,-0.058105,-0.123535,0.304878,-0.609756,-0.060976
1548457228449,-1.028076,-0.058716,-0.122253,0.182927,-0.670732,-0.060976
1548457228457,-1.030151,-0.057678,-0.120911,0.060976,-0.670732,0.000000
1548457228464,-1.032410,-0.057495,-0.120422,0.060976,-0.670732,0.121951
1548457228479,-1.030640,-0.056396,-0.120850,0.000000,-0.792683,0.121951
1548457228486,-1.029175,-0.056335,-0.119263,0.060976,-0.853659,0.182927
1548457228494,-1.028137,-0.057617,-0.119324,0.000000,-0.731707,0.121951
1548457228509,-1.028992,-0.055420,-0.119629,-0.060976,-0.792683,0.182927
1548457228516,-1.032471,-0.055664,-0.119751,-0.060976,-0.792683,0.243902
1548457228524,-1.031738,-0.057983,-0.119202,-0.121951,-0.731707,0.304878
1548457228539,-1.030334,-0.058044,-0.119995,-0.121951,-0.670732,0.365854
1548457228546,-1.030884,-0.056458,-0.119019,-0.182927,-0.670732,0.304878
1548457228554,-1.030823,-0.057739,-0.118408,-0.182927,-0.731707,0.365854
1548457228569,-1.031799,-0.059143,-0.120667,-0.182927,-0.670732,0.426829
1548457228577,-1.031006,-0.057373,-0.120972,-0.121951,-0.609756,0.365854
1548457228584,-1.030823,-0.058777,-0.119141,-0.121951,-0.609756,0.426829
1548457228599,-1.031250,-0.057312,-0.119324,-0.243902,-0.609756,0.487805
1548457228607,-1.030884,-0.057129,-0.117920,-0.304878,-0.548781,0.426829
1548457228614,-1.030701,-0.059692,-0.118286,0.000000,-0.609756,0.426829
1548457228629,-1.031067,-0.057190,-0.118530,-0.060976,-0.609756,0.426829
1548457228636,-1.030457,-0.057495,-0.115051,-0.121951,-0.670732,0.365854
1548457228644,-1.031494,-0.056580,-0.117065,0.000000,-0.670732,0.304878
1548457228659,-1.031799,-0.058594,-0.117371,0.060976,-0.670732,0.365854
1548457228667,-1.031799,-0.058594,-0.121582,0.000000,-0.670732,0.304878
1548457228674,-1.030579,-0.059021,-0.119202,0.000000,-0.670732,0.182927
1548457228689,-1.030151,-0.058411,-0.115967,0.060976,-0.670732,0.121951
1548457228696,-1.029419,-0.056885,-0.117126,0.121951,-0.731707,0.060976
1548457228704,-1.031311,-0.057983,-0.118713,0.243902,-0.670732,0.121951
1548457228719,-1.030334,-0.057373,-0.118835,0.365854,-0.731707,0.000000
1548457228726,-1.031067,-0.056885,-0.115784,0.426829,-0.853659,-0.121951
1548457228734,-1.031799,-0.055237,-0.119141,0.487805,-0.914634,-0.182927
1548457228749,-1.034729,-0.055115,-0.118774,0.609756,-0.914634,-0.121951
1548457228757,-1.032166,-0.056824,-0.118591,0.548781,-0.792683,-0.121951
1548457228764,-1.030396,-0.058044,-0.120422,0.548781,-0.853659,-0.060976
1548457228779,-1.031982,-0.060181,-0.117676,0.609756,-0.731707,0.000000
1548457228787,-1.031738,-0.060181,-0.119812,0.609756,-0.670732,0.000000
1548457228794,-1.033264,-0.058960,-0.118286,0.853659,-0.609756,0.060976
1548457228809,-1.032166,-0.059998,-0.117859,0.792683,-0.670732,0.000000
1548457228817,-1.033569,-0.058594,-0.118835,0.670732,-0.731707,0.060976
1548457228824,-1.035339,-0.058228,-0.117493,0.609756,-0.853659,0.121951
1548457228839,-1.033081,-0.057922,-0.119080,0.609756,-0.792683,0.182927
1548457228846,-1.033142,-0.057434,-0.117676,0.670732,-0.792683,0.304878
1548457228854,-1.031494,-0.056824,-0.118713,0.670732,-0.731707,0.304878
1548457228869,-1.031982,-0.056946,-0.119385,0.792683,-0.731707,0.365854
1548457228877,-1.032593,-0.059753,-0.120850,0.792683,-0.792683,0.426829
1548457228884,-1.033569,-0.058899,-0.121338,0.914634,-0.792683,0.548781
1548457228899,-1.031189,-0.059265,-0.121277,0.853659,-0.670732,0.609756
1548457228907,-1.032288,-0.058350,-0.118225,0.914634,-0.731707,0.609756
1548457228914,-1.031616,-0.057068,-0.119324,0.731707,-0.670732,0.670732
1548457228929,-1.032532,-0.058411,-0.120605,0.548781,-0.670732,0.670732
1548457228937,-1.030334,-0.058350,-0.120056,0.487805,-0.670732,0.670732
1548457228944,-1.028503,-0.056030,-0.121826,0.365854,-0.731707,0.548781
1548457228959,-1.028931,-0.057129,-0.121155,0.487805,-0.731707,0.548781
1548457228967,-1.030334,-0.057495,-0.120789,0.548781,-0.731707,0.609756
1548457228975,-1.030029,-0.057373,-0.119141,0.487805,-0.731707,0.487805
1548457228989,-1.028625,-0.058838,-0.122742,0.487805,-0.731707,0.487805
1548457228998,-1.028992,-0.056274,-0.120850,0.426829,-0.670732,0.426829
1548457229004,-1.030090,-0.057800,-0.119934,0.487805,-0.548781,0.426829
1548457229020,-1.029968,-0.058716,-0.120483,0.487805,-0.609756,0.304878
1548457229027,-1.029785,-0.060242,-0.120972,0.365854,-0.670732,0.182927
1548457229034,-1.032471,-0.058838,-0.120422,0.182927,-0.609756,0.182927
1548457229049,-1.030029,-0.059021,-0.122131,0.243902,-0.609756,0.060976
1548457229057,-1.029663,-0.059875,-0.121887,0.182927,-0.670732,0.000000
1548457229064,-1.031799,-0.059448,-0.117798,0.121951,-0.731707,0.000000
1548457229079,-1.030090,-0.057678,-0.118774,0.243902,-0.670732,-0.121951
1548457229087,-1.031860,-0.059387,-0.121338,0.121951,-0.609756,-0.060976
1548457229094,-1.032288,-0.060059,-0.120544,0.182927,-0.609756,0.060976
1548457229109,-1.031677,-0.058838,-0.120789,0.182927,-0.670732,-0.060976
1548457229117,-1.032410,-0.059082,-0.121460,0.243902,-0.609756,-0.060976
1548457229124,-1.031372,-0.059509,-0.121765,0.182927,-0.609756,-0.060976
1548457229139,-1.029480,-0.060120,-0.120300,0.121951,-0.609756,-0.121951
1548457229146,-1.029480,-0.057434,-0.121094,0.060976,-0.670732,-0.121951
1548457229154,-1.029785,-0.058044,-0.118896,0.000000,-0.731707,-0.121951
1548457229169,-1.030945,-0.056702,-0.116943,0.000000,-0.670732,-0.060976
1548457229176,-1.030701,-0.055725,-0.118958,-0.060976,-0.670732,-0.121951
1548457229184,-1.032898,-0.057678,-0.119934,0.060976,-0.670732,-0.060976
1548457229199,-1.032104,-0.056946,-0.119995,0.121951,-0.670732,-0.060976
1548457229207,-1.033264,-0.056335,-0.118408,0.182927,-0.670732,-0.060976
1548457229214,-1.031860,-0.057983,-0.117554,0.243902,-0.609756,0.000000
1548457229229,-1.033081,-0.058228,-0.118713,0.243902,-0.670732,0.121951
1548457229237,-1.031799,-0.057373,-0.119751,0.243902,-0.609756,0.182927
1548457229244,-1.031860,-0.059692,-0.119873,0.182927,-0.609756,0.243902
1548457229259,-1.033081,-0.059998,-0.118774,0.304878,-0.609756,0.304878
1548457229267,-1.032959,-0.057861,-0.118530,0.304878,-0.731707,0.365854
1548457229274,-1.031799,-0.058105,-0.117859,0.365854,-0.670732,0.243902
1548457229289,-1.032898,-0.056641,-0.120850,0.365854,-0.731707,0.487805
1548457229296,-1.030945,-0.057678,-0.121033,0.426829,-0.731707,0.487805
1548457229312,-1.031738,-0.057922,-0.119812,0.487805,-0.731707,0.548781
1548457229319,-1.030945,-0.058533,-0.119141,0.487805,-0.670732,0.487805
1548457229326,-1.033386,-0.057617,-0.118286,0.426829,-0.792683,0.548781
1548457229334,-1.033264,-0.058594,-0.118774,0.548781,-0.853659,0.548781
1548457229356,-1.031860,-0.060120,-0.119446,0.670732,-0.853659,0.548781
1548457229357,-1.029846,-0.061340,-0.119995,0.670732,-0.792683,0.548781
1548457229364,-1.030518,-0.061218,-0.118530,0.731707,-0.792683,0.548781
1548457229379,-1.032104,-0.059631,-0.117493,0.853659,-0.731707,0.487805
1548457229387,-1.031006,-0.058594,-0.119507,0.670732,-0.853659,0.487805
1548457229394,-1.031250,-0.058105,-0.122253,0.609756,-0.792683,0.487805
1548457229409,-1.030396,-0.060059,-0.120850,0.548781,-0.670732,0.426829
1548457229417,-1.030945,-0.061096,-0.120911,0.548781,-0.792683,0.365854
1548457229424,-1.031494,-0.060913,-0.119690,0.548781,-0.731707,0.365854
1548457229439,-1.031189,-0.058472,-0.119690,0.426829,-0.792683,0.304878
1548457229447,-1.030212,-0.059387,-0.120056,0.548781,-0.731707,0.243902
1548457229454,-1.030945,-0.059814,-0.121521,0.609756,-0.853659,0.182927
1548457229469,-1.028748,-0.061768,-0.118713,0.670732,-0.792683,0.121951
1548457229477,-1.032166,-0.059814,-0.121277,0.731707,-0.731707,0.121951
1548457229484,-1.032410,-0.057190,-0.121765,0.670732,-0.792683,0.121951
1548457229499,-1.032166,-0.058228,-0.121948,0.670732,-0.670732,0.121951
1548457229507,-1.030090,-0.059021,-0.122070,0.548781,-0.670732,0.121951
1548457229514,-1.030701,-0.060059,-0.119995,0.548781,-0.609756,0.060976
1548457229529,-1.032288,-0.059570,-0.121338,0.487805,-0.548781,0.000000
1548457229537,-1.030884,-0.062073,-0.120117,0.487805,-0.487805,0.121951
1548457229544,-1.030579,-0.060120,-0.122742,0.426829,-0.548781,0.121951
1548457229559,-1.030151,-0.060059,-0.118591,0.243902,-0.609756,0.121951
1548457229567,-1.030518,-0.059631,-0.116821,0.243902,-0.670732,0.121951
1548457229574,-1.032288,-0.060913,-0.119202,0.121951,-0.731707,0.182927
1548457229589,-1.033081,-0.059448,-0.118164,0.182927,-0.670732,0.182927
1548457229597,-1.032471,-0.060364,-0.118835,0.182927,-0.731707,0.182927
1548457229604,-1.031067,-0.059631,-0.121216,0.304878,-0.792683,0.365854
1548457229619,-1.034241,-0.059509,-0.120056,0.243902,-0.670732,0.365854
1548457229627,-1.031372,-0.058228,-0.119568,0.304878,-0.670732,0.426829
1548457229634,-1.031799,-0.059814,-0.118896,0.304878,-0.670732,0.426829
1548457229649,-1.031738,-0.059021,-0.118958,0.243902,-0.609756,0.487805
1548457229657,-1.031067,-0.059265,-0.117859,0.121951,-0.548781,0.426829
1548457229664,-1.031067,-0.058105,-0.119446,0.000000,-0.548781,0.426829
1548457229679,-1.029297,-0.060669,-0.118164,0.000000,-0.609756,0.426829
1548457229687,-1.031006,-0.058105,-0.120605,-0.060976,-0.731707,0.365854
1548457229694,-1.030579,-0.055542,-0.119385,0.060976,-0.731707,0.365854
1548457229709,-1.029785,-0.056885,-0.116577,0.182927,-0.609756,0.304878
1548457229717,-1.030151,-0.058899,-0.119324,0.121951,-0.670732,0.243902
1548457229724,-1.030090,-0.060669,-0.120239,0.060976,-0.609756,0.304878
1548457229739,-1.032227,-0.057312,-0.118713,0.121951,-0.609756,0.243902
1548457229747,-1.030518,-0.058716,-0.119019,0.060976,-0.609756,0.182927
1548457229754,-1.031189,-0.060242,-0.120056,0.060976,-0.609756,0.243902
1548457229769,-1.030090,-0.058533,-0.122131,0.182927,-0.609756,0.121951
1548457229777,-1.029297,-0.057861,-0.119263,0.182927,-0.609756,0.121951
1548457229784,-1.031616,-0.057129,-0.117310,0.121951,-0.548781,0.060976
1548457229799,-1.031311,-0.057922,-0.118591,0.121951,-0.609756,0.121951
1548457229806,-1.031128,-0.059448,-0.121216,0.243902,-0.609756,0.121951
1548457229814,-1.032104,-0.058044,-0.120544,0.304878,-0.609756,0.060976
1548457229829,-1.029846,-0.059875,-0.119385,0.487805,-0.670732,0.060976
1548457229837,-1.030396,-0.060425,-0.120483,0.365854,-0.731707,0.121951
1548457229844,-1.030640,-0.059448,-0.120056,0.487805,-0.792683,0.060976
1548457229859,-1.031555,-0.059204,-0.119873,0.487805,-0.792683,0.000000
1548457229867,-1.032104,-0.055908,-0.118286,0.426829,-0.792683,0.060976
1548457229874,-1.033813,-0.054504,-0.120483,0.243902,-0.853659,0.243902
1548457229889,-1.040466,-0.051819,-0.117859,0.060976,-0.792683,0.609756
1548457229897,-1.050842,-0.043945,-0.115479,-0.060976,-0.670732,1.402439
1548457229904,-1.053223,-0.033813,-0.115601,0.243902,-0.304878,2.500000
1548457229919,-1.050842,-0.031860,-0.119263,0.426829,0.548781,3.780488
1548457229927,-1.049561,-0.025208,-0.123779,0.548781,1.585366,5.121951
1548457229934,-1.046936,-0.026306,-0.128296,0.731707,2.439024,6.585366
1548457229949,-1.045959,-0.023926,-0.133240,0.243902,2.804878,7.926829
1548457229957,-1.043457,-0.023193,-0.134766,-0.060976,2.804878,9.390244
1548457229964,-1.040283,-0.023804,-0.135071,-0.670732,2.682927,11.036586
1548457229979,-1.036865,-0.021729,-0.128540,-1.158537,2.317073,12.621951
1548457229987,-1.032227,-0.012268,-0.126953,-1.219512,1.829268,14.207317
1548457229994,-1.033752,-0.002808,-0.123291,-0.792683,1.219512,15.792684
1548457230009,-1.036194,0.002625,-0.117798,-0.670732,0.243902,17.439024
1548457230017,-1.035828,0.000244,-0.115479,-0.548781,-0.487805,19.390244
1548457230024,-1.035645,-0.000854,-0.115784,-0.121951,-0.853659,21.463415
1548457230039,-1.035400,-0.000244,-0.118225,0.060976,-0.853659,23.780489
1548457230047,-1.036316,0.004333,-0.122437,-0.182927,-0.853659,25.914635
1548457230054,-1.037292,0.004761,-0.124390,-0.853659,-1.036585,27.804878
1548457230069,-1.038269,0.003540,-0.120239,-1.890244,-1.219512,29.390245
1548457230077,-1.031372,0.002441,-0.123779,-2.804878,-0.853659,30.975611
1548457230084,-1.027039,-0.008789,-0.128357,-3.597561,-0.182927,32.439026
1548457230099,-1.039856,-0.010742,-0.119873,-5.487805,-1.829268,33.231709
1548457230107,-1.048767,-0.001526,-0.117249,-8.719512,-5.000000,33.109756
1548457230114,-1.049683,0.022522,-0.123901,-12.195122,-4.939024,33.414635
1548457230129,-1.039062,0.036011,-0.130798,-14.146341,-2.317073,35.000000
1548457230137,-1.037109,0.052673,-0.129578,-14.268293,0.548781,37.865856
1548457230144,-1.045349,0.060913,-0.124146,-13.292684,0.365854,40.000000
1548457230159,-1.049866,0.071106,-0.125427,-11.341464,-0.365854,40.731709
1548457230167,-1.049805,0.080566,-0.124817,-8.963415,-0.548781,41.036587
1548457230174,-1.047729,0.087585,-0.122620,-6.646342,-0.243902,41.585365
1548457230189,-1.045349,0.091919,-0.125061,-4.756098,-0.121951,42.439026
1548457230197,-1.045837,0.091431,-0.123474,-2.987805,-0.121951,43.231709
1548457230204,-1.039368,0.098328,-0.120483,-1.402439,0.182927,44.146343
1548457230219,-1.032898,0.108093,-0.118530,0.000000,0.548781,45.000000
1548457230227,-1.028870,0.115417,-0.119812,1.097561,0.670732,45.792683
1548457230234,-1.023865,0.122009,-0.119263,2.134146,0.670732,46.707317
1548457230249,-1.024719,0.129456,-0.121887,2.682927,0.731707,47.560978
1548457230257,-1.021606,0.133179,-0.122009,2.987805,0.853659,48.719513
1548457230264,-1.018005,0.138977,-0.123535,2.682927,1.219512,50.060978
1548457230279,-1.028381,0.137146,-0.124451,2.317073,1.707317,51.280491
1548457230287,-1.029297,0.139648,-0.121033,1.341463,1.646341,52.560978
1548457230294,-1.027161,0.152893,-0.119995,0.182927,2.378049,53.841465
1548457230309,-1.025940,0.167419,-0.122009,-0.670732,2.926829,54.817074
1548457230317,-1.023071,0.177185,-0.117432,-2.378049,2.804878,55.365856
1548457230324,-1.024048,0.194824,-0.118774,-3.475610,2.560976,55.670734
1548457230339,-1.029480,0.208496,-0.116516,-3.658537,2.073171,55.914635
1548457230347,-1.029114,0.223267,-0.117493,-3.963415,1.646341,55.975613
1548457230354,-1.024170,0.231995,-0.120239,-3.658537,2.073171,56.036587
1548457230369,-1.016541,0.241211,-0.118225,-3.780488,2.256098,56.097561
1548457230376,-1.012512,0.243835,-0.123352,-3.170732,2.439024,56.158539
1548457230384,-1.008545,0.246033,-0.126282,-2.134146,2.439024,55.914635
1548457230399,-0.998840,0.249634,-0.127136,-1.585366,2.317073,55.609756
1548457230407,-0.990601,0.262756,-0.127625,-1.280488,2.621951,55.243904
1548457230414,-0.991089,0.267822,-0.131226,-0.731707,2.560976,54.878052
1548457230429,-0.989258,0.266724,-0.131531,-0.548781,2.256098,54.695122
1548457230437,-0.980652,0.273987,-0.128479,0.000000,2.500000,54.085365
1548457230444,-0.987427,0.293884,-0.124390,0.670732,2.804878,53.475613
1548457230459,-0.974365,0.293335,-0.127991,1.280488,2.926829,52.621952
1548457230467,-0.964783,0.305115,-0.131348,1.829268,3.841464,51.585365
1548457230474,-0.973694,0.319336,-0.132507,2.743902,3.170732,50.548782
1548457230489,-0.978455,0.326782,-0.132019,2.926829,2.012195,49.390244
1548457230497,-0.964294,0.327942,-0.137390,2.926829,2.804878,48.597561
1548457230504,-0.955872,0.335144,-0.139648,2.926829,4.207317,47.987804
1548457230519,-0.959534,0.347656,-0.138428,3.353659,3.475610,47.256100
1548457230527,-0.962036,0.351257,-0.142090,3.841464,2.804878,46.585365
1548457230534,-0.955566,0.352783,-0.141907,3.902439,3.048780,45.609756
1548457230549,-0.953613,0.363770,-0.133911,3.841464,3.414634,44.634148
1548457230557,-0.936157,0.373352,-0.140137,4.024390,4.329268,44.085365
1548457230564,-0.928101,0.385193,-0.143372,4.329268,5.914634,43.780487
1548457230579,-0.939819,0.400879,-0.142273,5.243903,4.939024,43.170734
1548457230587,-0.941650,0.402649,-0.148743,5.914634,3.780488,42.804878
1548457230594,-0.937561,0.411133,-0.147888,5.975610,4.878049,42.926830
1548457230609,-0.942261,0.421021,-0.153564,6.829268,5.548780,43.414635
1548457230617,-0.940308,0.421448,-0.157593,6.951220,6.097561,44.024391
1548457230624,-0.917664,0.423645,-0.165100,6.463415,7.560976,44.878048
1548457230639,-0.923828,0.442627,-0.160889,6.707317,8.658537,45.792683
1548457230647,-0.935974,0.470337,-0.159241,7.012195,6.829268,46.463417
1548457230654,-0.947205,0.479919,-0.156860,7.256098,6.341464,47.134148
1548457230669,-0.938965,0.484009,-0.155823,7.134147,7.500000,48.048782
1548457230677,-0.917297,0.487427,-0.166504,7.865854,10.060976,49.268295
1548457230684,-0.925903,0.499756,-0.159302,8.841464,10.670732,50.304878
1548457230699,-0.932739,0.519714,-0.159302,8.902439,8.963415,50.670734
1548457230707,-0.931519,0.519104,-0.164795,7.926829,9.085366,51.402439
1548457230714,-0.894958,0.505310,-0.175232,5.853659,10.914635,52.682926
1548457230729,-0.888367,0.503113,-0.172913,5.304878,12.621951,54.085365
1548457230737,-0.890808,0.510132,-0.164185,5.243903,10.365854,54.512196
1548457230744,-0.878784,0.522705,-0.173340,4.695122,9.451220,54.817074
1548457230759,-0.866577,0.531616,-0.177979,4.085366,9.878049,55.426830
1548457230767,-0.852722,0.542419,-0.176819,3.048780,9.512196,55.731709
1548457230774,-0.838440,0.546204,-0.178772,2.560976,9.024390,56.402439
1548457230789,-0.832886,0.540344,-0.182129,2.134146,8.475610,57.439026
1548457230797,-0.831604,0.541809,-0.176758,2.195122,8.170732,57.560978
1548457230804,-0.834961,0.559631,-0.170044,2.378049,8.231708,57.926830
1548457230819,-0.837158,0.583801,-0.176208,2.073171,7.804878,57.743904
1548457230827,-0.834595,0.585632,-0.188843,1.158537,7.682927,57.256100
1548457230834,-0.827332,0.582153,-0.188965,0.670732,7.926829,56.768295
1548457230849,-0.813721,0.595459,-0.186646,1.951220,8.231708,56.036587
1548457230857,-0.804993,0.607239,-0.187805,3.414634,8.719512,55.304878
1548457230865,-0.800598,0.611328,-0.186279,3.963415,8.353659,54.390244
1548457230879,-0.792786,0.609192,-0.188538,4.695122,8.292683,53.719513
1548457230887,-0.784424,0.601746,-0.181702,5.304878,9.024390,52.804878
1548457230894,-0.774353,0.611816,-0.183594,6.585366,9.939025,51.707317
1548457230910,-0.788147,0.612183,-0.190430,7.682927,10.426829,50.853661
1548457230917,-0.750793,0.629089,-0.200439,8.414635,11.158537,49.756100
1548457230924,-0.724426,0.634277,-0.213196,9.573171,14.573171,49.390244
1548457230939,-0.750122,0.623047,-0.204773,7.743903,11.951220,48.414635
1548457230947,-0.738770,0.627686,-0.204895,7.926829,8.414635,45.487804
1548457230954,-0.732788,0.637512,-0.210754,8.231708,9.207317,44.268295
1548457230969,-0.729370,0.625977,-0.210083,7.682927,8.597561,43.048782
1548457230977,-0.717529,0.629272,-0.207092,8.109756,8.475610,41.524391
1548457230984,-0.727295,0.645752,-0.202454,8.231708,9.146341,40.853661
1548457230999,-0.719360,0.672058,-0.207703,5.670732,8.841464,40.548782
1548457231007,-0.688110,0.691101,-0.232422,9.512196,11.219512,37.682926
1548457231014,-0.708923,0.681091,-0.233887,10.975610,11.341464,35.670734
1548457231030,-0.702087,0.665955,-0.232056,9.573171,7.865854,34.390244
1548457231037,-0.689697,0.676208,-0.228149,10.548780,8.658537,33.963417
1548457231044,-0.693542,0.692932,-0.231262,11.524390,8.902439,33.658539
1548457231061,-0.699646,0.708557,-0.233093,10.609756,8.109756,33.048782
1548457231067,-0.694946,0.709656,-0.243347,10.365854,8.109756,32.560978
1548457231074,-0.689392,0.709961,-0.246216,10.304878,8.902439,31.890245
1548457231090,-0.715515,0.695435,-0.239807,10.548780,8.780488,31.219513
1548457231097,-0.661926,0.729553,-0.243286,10.853659,8.902439,30.609756
1548457231104,-0.631348,0.728638,-0.252258,11.280488,13.109756,30.853659
1548457231119,-0.673279,0.709290,-0.243896,7.926829,9.817074,30.487806
1548457231127,-0.665039,0.723206,-0.251526,7.682927,6.036585,29.939026
1548457231134,-0.659302,0.743164,-0.258728,7.560976,7.987805,30.182928
1548457231149,-0.659302,0.749329,-0.264954,6.219512,8.048780,29.878050
1548457231157,-0.652771,0.733521,-0.266479,5.609756,7.682927,29.207317
1548457231164,-0.634338,0.719055,-0.260132,5.670732,7.682927,28.658537
1548457231179,-0.628235,0.722717,-0.256470,5.609756,7.378049,28.536587
1548457231187,-0.630859,0.733093,-0.259521,5.000000,6.646342,28.719513
1548457231194,-0.661560,0.716064,-0.257385,3.780488,6.341464,29.085367
1548457231209,-0.623596,0.762634,-0.263245,3.841464,7.317073,29.390245
1548457231217,-0.572510,0.784668,-0.289734,6.463415,13.170732,30.121952
1548457231224,-0.636536,0.751709,-0.270996,2.256098,10.121951,29.146341
1548457231239,-0.620361,0.749695,-0.264648,1.585366,3.658537,27.073172
1548457231247,-0.600586,0.743469,-0.264282,2.073171,5.792683,26.585367
1548457231254,-0.597595,0.747986,-0.262390,1.463415,5.853659,26.707317
1548457231269,-0.596436,0.765869,-0.259949,1.951220,5.487805,26.829269
1548457231277,-0.600647,0.777588,-0.268127,2.134146,5.975610,26.768293
1548457231284,-0.600769,0.769897,-0.285950,1.768293,6.280488,26.402439
1548457231307,-0.589417,0.764587,-0.278748,2.317073,6.463415,25.609756
1548457231307,-0.578369,0.761169,-0.273376,4.207317,6.463415,24.390244
1548457231314,-0.578308,0.759033,-0.271790,3.109756,5.792683,23.353659
1548457231329,-0.571472,0.754211,-0.273010,1.829268,5.121951,22.560976
1548457231337,-0.582581,0.744690,-0.273071,2.073171,5.670732,21.890244
1548457231344,-0.606140,0.750061,-0.258240,2.743902,6.219512,21.341463
1548457231360,-0.506897,0.822937,-0.293823,6.524390,9.573171,21.219513
1548457231367,-0.563477,0.777222,-0.288818,5.670732,12.987805,21.036587
1548457231374,-0.570557,0.772156,-0.284851,3.414634,4.817073,18.048780
1548457231389,-0.550110,0.759583,-0.282715,5.426829,5.426829,16.402439
1548457231397,-0.543579,0.755127,-0.274109,5.731708,5.731708,15.182927
1548457231404,-0.546692,0.762024,-0.273376,5.914634,4.878049,14.207317
1548457231419,-0.551575,0.772278,-0.277527,5.609756,4.024390,13.536586
1548457231427,-0.550659,0.775452,-0.282715,5.060976,3.902439,12.926829
1548457231434,-0.546204,0.768311,-0.284912,4.817073,4.024390,12.073171
1548457231449,-0.545288,0.765869,-0.282776,5.000000,4.024390,11.341464
1548457231457,-0.545715,0.774902,-0.278320,5.182927,3.841464,11.158537
1548457231464,-0.550659,0.806458,-0.284424,5.426829,3.719512,11.402439
1548457231479,-0.562561,0.829895,-0.291748,6.036585,3.719512,11.829268
1548457231487,-0.557800,0.815186,-0.286560,7.012195,4.024390,11.768293
1548457231494,-0.544067,0.785645,-0.281616,9.329268,5.000000,12.195122
1548457231509,-0.530701,0.796448,-0.294006,12.195122,6.280488,13.780488
1548457231517,-0.542969,0.838867,-0.310120,12.804878,6.707317,16.036585
1548457231525,-0.565613,0.870911,-0.322876,10.426829,5.609756,17.439024
1548457231547,-0.559143,0.862122,-0.330627,8.170732,5.060976,17.560976
1548457231547,-0.536255,0.831299,-0.322998,7.378049,5.548780,17.256098
1548457231554,-0.524048,0.811768,-0.306091,6.280488,5.060976,17.012196
1548457231569,-0.523499,0.820007,-0.299622,3.719512,3.292683,17.256098
1548457231577,-0.528259,0.838135,-0.309570,0.121951,1.890244,17.743902
1548457231584,-0.526245,0.843811,-0.316956,-3.658537,1.219512,18.048780
1548457231599,-0.520142,0.831726,-0.321533,-6.158537,1.036585,17.865854
1548457231607,-0.510681,0.814331,-0.313110,-7.256098,0.731707,16.829269
1548457231614,-0.500183,0.795166,-0.296936,-7.560976,-0.121951,15.365854
1548457231629,-0.492554,0.783752,-0.291870,-7.560976,-0.731707,14.085366
1548457231637,-0.484436,0.770447,-0.288086,-7.682927,-1.097561,13.109756
1548457231644,-0.477600,0.750000,-0.286194,-7.378049,-0.914634,12.256098
1548457231659,-0.469727,0.733093,-0.284058,-5.853659,-0.304878,11.402439
1548457231667,-0.470581,0.738525,-0.279358,-4.024390,0.365854,10.609756
1548457231674,-0.479797,0.778076,-0.290222,-2.865854,0.548781,9.878049
1548457231689,-0.492859,0.814880,-0.302917,-2.134146,0.243902,8.536586
1548457231697,-0.503845,0.830688,-0.304565,-1.585366,-0.243902,6.097561
1548457231712,-0.502625,0.812378,-0.296570,0.548781,-0.365854,2.804878
1548457231719,-0.486877,0.775269,-0.286133,2.926829,-0.304878,-0.365854
1548457231727,-0.472961,0.761169,-0.282776,5.243903,-0.060976,-2.378049
1548457231734,-0.475281,0.770081,-0.290771,5.731708,0.060976,-3.536585
1548457231757,-0.487732,0.779907,-0.293518,4.268293,-0.243902,-4.512195
1548457231757,-0.486816,0.779297,-0.298950,3.475610,-0.426829,-5.853659
1548457231764,-0.482849,0.774963,-0.296631,3.719512,-0.426829,-7.256098
1548457231779,-0.485229,0.779785,-0.288025,4.329268,-1.036585,-8.658537
1548457231787,-0.492432,0.800598,-0.285767,5.182927,-2.073171,-9.939025
1548457231794,-0.506714,0.825867,-0.295837,5.731708,-2.743902,-10.853659
1548457231809,-0.519226,0.836914,-0.304443,5.975610,-3.048780,-11.585366
1548457231817,-0.520020,0.831726,-0.311584,7.073171,-2.743902,-12.804878
1548457231824,-0.517029,0.809326,-0.310608,8.597561,-2.195122,-14.085366
1548457231839,-0.511292,0.786072,-0.304016,9.512196,-2.012195,-15.060976
1548457231847,-0.505005,0.783936,-0.301147,9.329268,-2.134146,-15.487805
1548457231854,-0.508728,0.789246,-0.308289,8.353659,-2.439024,-15.487805
1548457231869,-0.518127,0.797302,-0.308838,7.073171,-2.987805,-15.426829
1548457231877,-0.523376,0.807678,-0.312195,6.524390,-3.048780,-15.487805
1548457231884,-0.531250,0.815552,-0.314697,7.073171,-2.682927,-15.792684
1548457231899,-0.538513,0.816223,-0.315979,7.560976,-2.865854,-16.280489
1548457231907,-0.541443,0.818054,-0.321350,8.048780,-2.865854,-16.890244
1548457231914,-0.539856,0.808167,-0.317017,8.414635,-2.987805,-17.926830
1548457231929,-0.533081,0.786133,-0.312195,8.475610,-3.353659,-19.085367
1548457231937,-0.521301,0.752869,-0.299805,8.719512,-3.292683,-20.000000
1548457231944,-0.513977,0.726257,-0.292664,8.414635,-3.597561,-20.426830
1548457231959,-0.507019,0.714294,-0.294312,7.926829,-4.268293,-20.487804
1548457231967,-0.508850,0.712952,-0.295471,5.975610,-4.939024,-20.426830
1548457231974,-0.517517,0.724670,-0.308777,3.719512,-5.853659,-20.548780
1548457231989,-0.534485,0.743469,-0.320496,1.707317,-6.829268,-20.975611
1548457231997,-0.555847,0.766174,-0.326904,-0.609756,-8.536586,-21.768293
1548457232004,-0.577881,0.795654,-0.331970,-2.621951,-9.695122,-22.804878
1548457232019,-0.598328,0.808472,-0.326782,-3.902439,-10.243902,-24.146341
1548457232034,-0.606567,0.806519,-0.317993,-4.451220,-10.426829,-25.487806
1548457232035,-0.605591,0.804749,-0.314148,-2.134146,-9.390244,-26.280489
1548457232049,-0.608398,0.809204,-0.311096,1.097561,-7.621952,-26.341463
1548457232064,-0.608093,0.797852,-0.312073,3.902439,-6.036585,-25.914635
1548457232065,-0.601074,0.772888,-0.312622,7.012195,-4.085366,-25.182928
1548457232079,-0.594482,0.761230,-0.320068,10.792684,-1.768293,-24.512196
1548457232087,-0.598022,0.757996,-0.325073,13.109756,-0.487805,-24.268293
1548457232094,-0.606262,0.747253,-0.320984,13.475610,-0.792683,-24.390244
1548457232109,-0.606934,0.742188,-0.322083,13.719513,-1.097561,-24.329269
1548457232117,-0.606506,0.744568,-0.330750,14.512196,-0.731707,-24.024391
1548457232124,-0.612732,0.743042,-0.336609,13.536586,-0.975610,-23.719513
1548457232139,-0.618530,0.743225,-0.336853,11.646341,-1.829268,-23.475611
1548457232147,-0.622803,0.745850,-0.340027,10.121951,-2.134146,-23.597561
1548457232154,-0.629333,0.728088,-0.335449,8.048780,-2.743902,-24.146341
1548457232169,-0.621094,0.705933,-0.323303,5.609756,-3.902439,-24.573172
1548457232177,-0.610413,0.696045,-0.311584,4.390244,-4.329268,-24.146341
1548457232184,-0.616577,0.705566,-0.320557,3.170732,-4.756098,-23.536587
1548457232199,-0.631958,0.722473,-0.328430,0.609756,-5.792683,-22.865854
1548457232207,-0.643555,0.735718,-0.329285,-2.256098,-6.646342,-22.500000
1548457232222,-0.650879,0.726624,-0.328369,-3.597561,-6.829268,-22.682928
1548457232229,-0.650452,0.715576,-0.320618,-3.353659,-6.524390,-23.048780
1548457232237,-0.655029,0.720276,-0.315979,-2.439024,-6.951220,-23.292683
1548457232244,-0.661499,0.720215,-0.310120,-1.951220,-7.804878,-23.414635
1548457232259,-0.661804,0.715027,-0.306885,-2.378049,-8.170732,-23.353659
1548457232267,-0.657593,0.707336,-0.308777,-1.341463,-7.682927,-23.109756
1548457232274,-0.660217,0.702942,-0.312378,-0.548781,-6.890244,-22.926830
1548457232289,-0.668518,0.695312,-0.313049,-0.487805,-7.073171,-22.926830
1548457232297,-0.667053,0.681824,-0.314331,-0.792683,-7.621952,-23.231709
1548457232304,-0.662964,0.671387,-0.312378,-1.158537,-7.682927,-23.841463
1548457232326,-0.671570,0.676514,-0.307922,-1.646341,-8.414635,-24.512196
1548457232327,-0.686584,0.683655,-0.306580,-3.170732,-10.000000,-25.609756
1548457232334,-0.690918,0.677551,-0.300537,-5.609756,-11.585366,-26.951220
1548457232349,-0.686768,0.666565,-0.296753,-6.280488,-12.378049,-28.353659
1548457232357,-0.679504,0.652405,-0.290588,-5.853659,-12.560976,-29.512196
1548457232364,-0.680420,0.645447,-0.287231,-5.731708,-13.109756,-30.609756
1548457232379,-0.685730,0.641296,-0.281067,-5.731708,-13.841464,-31.219513
1548457232387,-0.690369,0.649719,-0.278564,-5.609756,-13.475610,-31.585367
1548457232394,-0.700989,0.659973,-0.284851,-5.304878,-12.987805,-32.317074
1548457232409,-0.714539,0.657104,-0.286987,-5.426829,-12.987805,-33.353661
1548457232417,-0.716553,0.648376,-0.286194,-5.121951,-13.109756,-34.329269
1548457232425,-0.715515,0.639832,-0.282898,-2.560976,-12.317074,-35.121952
1548457232439,-0.717834,0.635254,-0.281189,-0.121951,-11.707317,-35.731709
1548457232447,-0.731995,0.638733,-0.277100,1.585366,-11.890244,-35.853661
1548457232454,-0.743347,0.652710,-0.283630,2.743902,-11.768293,-35.426830
1548457232469,-0.756470,0.664551,-0.289856,3.353659,-10.609756,-35.243904
1548457232477,-0.770386,0.654541,-0.295593,3.597561,-9.878049,-35.609756
1548457232484,-0.773926,0.639343,-0.295898,4.024390,-9.817074,-36.280487
1548457232499,-0.772705,0.624451,-0.294067,5.792683,-9.878049,-37.073170
1548457232507,-0.774963,0.618347,-0.288208,6.402439,-10.182927,-37.682926
1548457232514,-0.779480,0.611633,-0.287781,5.670732,-11.097561,-38.048782
1548457232529,-0.778503,0.594849,-0.286865,3.658537,-11.768293,-38.170734
1548457232537,-0.775146,0.591309,-0.279602,1.890244,-11.585366,-38.048782
1548457232544,-0.778870,0.590637,-0.278320,1.402439,-11.280488,-37.865856
1548457232559,-0.786255,0.588562,-0.277588,-0.304878,-11.585366,-37.621952
1548457232567,-0.786255,0.580383,-0.281799,-2.439024,-12.134147,-37.317074
1548457232574,-0.779724,0.563477,-0.280396,-3.109756,-11.646341,-36.768295
1548457232589,-0.782349,0.565002,-0.268066,-2.378049,-10.548780,-35.975609
1548457232597,-0.798828,0.578552,-0.265259,-1.402439,-10.000000,-34.695122
1548457232604,-0.820618,0.589417,-0.273743,-2.195122,-9.878049,-33.414635
1548457232619,-0.834961,0.587708,-0.281250,-3.353659,-9.085366,-32.804878
1548457232627,-0.841125,0.586670,-0.278320,-3.109756,-8.475610,-33.231709
1548457232634,-0.848755,0.576477,-0.273743,-1.524390,-9.024390,-34.573170
1548457232649,-0.851196,0.550476,-0.270874,-1.036585,-10.609756,-36.036587
1548457232657,-0.841125,0.545471,-0.264648,-0.853659,-12.012196,-37.134148
1548457232664,-0.833435,0.526367,-0.258972,-0.121951,-12.195122,-37.743904
1548457232679,-0.825745,0.503906,-0.243652,-2.012195,-12.195122,-38.048782
1548457232687,-0.823792,0.502258,-0.239319,-3.048780,-11.890244,-38.048782
1548457232694,-0.823425,0.488220,-0.248169,-3.780488,-11.402439,-38.414635
1548457232709,-0.826416,0.478760,-0.241333,-6.402439,-10.792684,-38.719513
1548457232717,-0.835815,0.482117,-0.241272,-7.439024,-10.853659,-39.451221
1548457232724,-0.848145,0.490234,-0.238098,-8.109756,-11.036586,-40.487804
1548457232739,-0.861084,0.510559,-0.232727,-8.963415,-11.463415,-41.402439
1548457232747,-0.862183,0.499878,-0.240112,-9.268292,-11.463415,-42.378048
1548457232754,-0.857727,0.474731,-0.238892,-9.329268,-10.975610,-43.109756
1548457232769,-0.853821,0.468872,-0.235657,-5.914634,-9.939025,-43.048782
1548457232777,-0.863281,0.467224,-0.232544,-1.463415,-9.024390,-42.439026
1548457232784,-0.883179,0.480896,-0.232727,0.609756,-9.024390,-41.768295
1548457232799,-0.903381,0.481750,-0.242798,2.012195,-8.536586,-41.219513
1548457232807,-0.913635,0.481384,-0.247559,2.256098,-7.439024,-41.158539
1548457232814,-0.920166,0.483887,-0.249756,3.597561,-6.402439,-41.524391
1548457232829,-0.930237,0.469849,-0.246460,5.182927,-6.524390,-42.195122
1548457232837,-0.934692,0.461243,-0.238831,6.158537,-7.560976,-42.926830
1548457232844,-0.932800,0.455322,-0.237610,8.048780,-7.865854,-43.170734
1548457232859,-0.928589,0.445862,-0.237000,8.292683,-7.743903,-42.682926
1548457232867,-0.920776,0.425110,-0.238037,7.378049,-7.500000,-41.768295
1548457232874,-0.914307,0.404541,-0.232178,6.890244,-6.646342,-40.243904
1548457232889,-0.914062,0.398987,-0.224182,6.341464,-5.609756,-38.414635
1548457232897,-0.920898,0.407104,-0.226135,5.975610,-5.060976,-36.646343
1548457232904,-0.931824,0.407776,-0.230774,4.146341,-5.000000,-35.121952
1548457232919,-0.939453,0.404968,-0.231873,1.524390,-5.060976,-34.146343
1548457232927,-0.942322,0.404358,-0.233459,0.670732,-4.817073,-33.353661
1548457232934,-0.946411,0.399109,-0.234802,-0.304878,-5.060976,-32.621952
1548457232949,-0.948059,0.389587,-0.231262,-1.585366,-5.731708,-31.768293
1548457232964,-0.946045,0.377441,-0.225769,-1.768293,-5.914634,-30.792685
1548457232965,-0.947083,0.376709,-0.219177,-2.134146,-5.670732,-29.207317
1548457232979,-0.949280,0.381958,-0.217712,-2.378049,-5.365854,-27.560976
1548457232987,-0.953979,0.383667,-0.216980,-3.109756,-5.121951,-26.219513
1548457232994,-0.952820,0.378479,-0.222290,-4.085366,-4.817073,-25.121952
1548457233009,-0.954712,0.370361,-0.225464,-4.512195,-4.695122,-24.085367
1548457233017,-0.955627,0.364990,-0.221558,-4.146341,-4.512195,-23.231709
1548457233024,-0.958374,0.355957,-0.218567,-3.414634,-4.451220,-22.256098
1548457233039,-0.959839,0.346191,-0.213684,-2.804878,-4.451220,-21.341463
1548457233047,-0.955811,0.357117,-0.213379,-2.317073,-4.207317,-20.487804
1548457233054,-0.955750,0.352905,-0.216064,-2.134146,-3.780488,-19.512196
1548457233069,-0.958862,0.342407,-0.211914,-2.987805,-3.719512,-19.085367
1548457233077,-0.960327,0.343201,-0.210083,-2.987805,-3.841464,-18.719513
1548457233084,-0.956177,0.336487,-0.212830,-2.682927,-3.902439,-18.536585
1548457233099,-0.951660,0.325623,-0.214478,-2.926829,-3.902439,-18.231709
1548457233107,-0.950623,0.320740,-0.210144,-2.621951,-4.024390,-17.865854
1548457233114,-0.950684,0.319275,-0.208069,-1.829268,-3.902439,-17.317074
1548457233129,-0.954590,0.316650,-0.210999,-1.524390,-3.780488,-16.829269
1548457233137,-0.956604,0.312927,-0.211914,-1.585366,-3.780488,-16.463415
1548457233144,-0.960144,0.308960,-0.213013,-1.646341,-3.780488,-16.341463
1548457233159,-0.966064,0.312622,-0.211670,-1.463415,-3.963415,-16.280489
1548457233167,-0.969055,0.310730,-0.212708,-1.219512,-4.085366,-16.402439
1548457233174,-0.970642,0.303833,-0.212830,-1.463415,-4.512195,-16.646341
1548457233189,-0.967346,0.297546,-0.212585,-1.280488,-4.512195,-16.768293
1548457233197,-0.967285,0.293762,-0.208313,-0.792683,-4.573171,-17.012196
1548457233204,-0.967712,0.291748,-0.203796,-0.670732,-4.878049,-17.012196
1548457233219,-0.966858,0.292969,-0.204712,-0.487805,-4.817073,-16.890244
1548457233227,-0.968933,0.285522,-0.206604,-0.731707,-4.573171,-16.951220
1548457233234,-0.970032,0.280884,-0.204834,-1.036585,-4.207317,-17.134148
1548457233249,-0.976074,0.279297,-0.203186,-0.914634,-4.268293,-17.378050
1548457233257,-0.978455,0.278992,-0.202393,-0.792683,-4.695122,-17.865854
1548457233264,-0.978760,0.273499,-0.200989,-0.731707,-4.756098,-18.353659
1548457233279,-0.975220,0.270569,-0.200317,-0.609756,-4.817073,-18.902439
1548457233287,-0.972229,0.266724,-0.199463,0.060976,-4.695122,-19.451220
1548457233294,-0.973145,0.260498,-0.198853,-0.121951,-4.756098,-20.060976
1548457233309,-0.972168,0.257751,-0.197937,-0.121951,-5.000000,-20.548780
1548457233317,-0.973145,0.252380,-0.196167,-0.426829,-4.939024,-21.097561
1548457233324,-0.975037,0.245850,-0.198242,-0.609756,-4.756098,-21.280489
1548457233339,-0.977905,0.247009,-0.194702,-0.487805,-4.512195,-21.585367
1548457233347,-0.981506,0.250427,-0.193115,-0.182927,-4.329268,-22.073172
1548457233354,-0.985962,0.246948,-0.194946,-0.182927,-4.451220,-22.804878
1548457233376,-0.988708,0.247009,-0.195496,0.000000,-4.329268,-23.353659
1548457233377,-0.987915,0.241760,-0.196106,0.792683,-3.902439,-23.719513
1548457233384,-0.987183,0.233643,-0.198975,1.585366,-3.780488,-24.146341
1548457233399,-0.989136,0.223022,-0.198059,2.134146,-3.841464,-24.634148
1548457233407,-0.990601,0.221985,-0.196045,2.682927,-3.780488,-25.121952
1548457233414,-0.992126,0.219177,-0.196716,3.048780,-3.719512,-25.487806
1548457233429,-0.991821,0.218079,-0.199707,3.048780,-3.475610,-25.792683
1548457233437,-0.991150,0.212891,-0.199280,3.048780,-3.475610,-26.097561
1548457233444,-0.994324,0.208984,-0.195129,3.109756,-3.475610,-26.158537
1548457233452,-0.996521,0.204773,-0.194336,3.536585,-3.658537,-26.280489
1548457233467,-0.999207,0.203491,-0.195618,4.085366,-3.780488,-26.158537
1548457233474,-1.000793,0.200256,-0.195251,4.451220,-3.719512,-26.158537
1548457233489,-1.000671,0.195312,-0.195007,4.634146,-3.475610,-26.097561
1548457233497,-1.001160,0.190369,-0.195312,4.634146,-3.170732,-25.853659
1548457233504,-1.003662,0.182373,-0.193726,4.878049,-2.987805,-25.609756
1548457233512,-1.005798,0.172241,-0.196167,5.243903,-2.987805,-25.365854
1548457233527,-1.006226,0.160583,-0.193054,5.609756,-2.926829,-25.060976
1548457233534,-1.008911,0.171326,-0.190857,6.036585,-3.170732,-24.695122
1548457233542,-1.013855,0.170593,-0.192200,6.158537,-3.475610,-24.573172
1548457233557,-1.014038,0.153320,-0.192566,4.512195,-3.536585,-24.756098
1548457233564,-1.013855,0.154541,-0.190308,4.024390,-3.658537,-25.000000
1548457233572,-1.015381,0.154419,-0.186279,3.414634,-3.902439,-24.878050
1548457233587,-1.014038,0.148071,-0.184265,2.317073,-4.024390,-24.695122
1548457233595,-1.013489,0.138123,-0.186035,1.524390,-4.085366,-24.329269
1548457233602,-1.014038,0.135437,-0.180908,1.158537,-3.963415,-24.024391
1548457233617,-1.012268,0.141296,-0.182068,0.853659,-3.536585,-23.597561
1548457233624,-1.006958,0.137146,-0.183533,0.060976,-3.170732,-23.414635
1548457233632,-1.003601,0.134155,-0.186218,-0.304878,-2.804878,-23.170732
1548457233647,-1.007568,0.129822,-0.185669,-0.243902,-2.560976,-22.500000
1548457233654,-1.012939,0.127075,-0.186462,0.487805,-2.621951,-21.768293
1548457233662,-1.016418,0.130493,-0.188293,1.402439,-2.560976,-21.158537
1548457233677,-1.018494,0.126160,-0.187439,2.195122,-2.500000,-20.670732
1548457233684,-1.020874,0.125183,-0.188171,2.987805,-2.500000,-20.365854
1548457233692,-1.023743,0.123413,-0.188232,4.207317,-2.500000,-19.756098
1548457233707,-1.025146,0.116150,-0.186157,4.939024,-2.560976,-19.268293
1548457233714,-1.023743,0.112122,-0.186462,5.670732,-2.621951,-18.658537
1548457233722,-1.027283,0.106018,-0.184753,6.280488,-2.743902,-18.048780
1548457233737,-1.024719,0.101868,-0.186096,6.463415,-2.804878,-17.439024
1548457233744,-1.023987,0.094421,-0.183838,6.219512,-2.743902,-16.829269
1548457233752,-1.024963,0.091614,-0.182007,6.036585,-2.743902,-16.280489
1548457233767,-1.025024,0.087280,-0.182312,5.670732,-2.560976,-15.548780
1548457233774,-1.024719,0.084900,-0.182007,5.000000,-2.378049,-14.756098
1548457233782,-1.023438,0.078186,-0.180298,4.390244,-2.256098,-13.719513
1548457233797,-1.021729,0.083496,-0.181335,3.963415,-2.073171,-12.865854
1548457233804,-1.022034,0.072693,-0.181885,2.865854,-1.829268,-12.500000
1548457233812,-1.022095,0.070435,-0.179260,1.890244,-2.012195,-12.195122
1548457233827,-1.020020,0.070435,-0.179016,1.585366,-2.073171,-11.768293
1548457233834,-1.019043,0.067688,-0.179565,0.792683,-2.012195,-11.280488
1548457233842,-1.018127,0.064758,-0.178406,0.243902,-2.073171,-10.853659
1548457233857,-1.019226,0.061646,-0.179016,-0.121951,-2.073171,-10.548780
1548457233864,-1.021790,0.061157,-0.180725,-0.487805,-2.195122,-10.365854
1548457233872,-1.021790,0.060852,-0.183472,-0.914634,-2.317073,-10.243902
1548457233887,-1.020569,0.058472,-0.184143,-1.341463,-2.560976,-10.060976
1548457233894,-1.021912,0.060669,-0.180420,-1.341463,-2.682927,-9.939025
1548457233902,-1.019958,0.058838,-0.182861,-0.914634,-2.560976,-9.695122
1548457233917,-1.023376,0.055176,-0.184326,-0.609756,-2.621951,-9.451220
1548457233924,-1.024048,0.058228,-0.181458,-0.060976,-2.682927,-9.390244
1548457233932,-1.024414,0.059570,-0.181213,0.548781,-2.500000,-9.451220
1548457233947,-1.024597,0.055969,-0.181274,1.097561,-2.195122,-9.390244
1548457233954,-1.024353,0.055725,-0.180359,1.768293,-2.073171,-9.268292
1548457233962,-1.022766,0.056885,-0.182251,2.621951,-2.012195,-9.085366
1548457233977,-1.022766,0.049927,-0.182251,3.231707,-1.829268,-9.024390
1548457233984,-1.021973,0.046570,-0.181396,3.658537,-1.951220,-8.902439
1548457233992,-1.021729,0.042664,-0.179993,4.085366,-1.951220,-8.902439
1548457234007,-1.021423,0.038147,-0.180298,4.390244,-1.890244,-8.902439
1548457234014,-1.019958,0.035522,-0.179626,4.268293,-1.890244,-8.902439
1548457234022,-1.021057,0.032410,-0.176575,4.024390,-1.951220,-8.841464
1548457234037,-1.020691,0.029053,-0.176270,3.780488,-1.951220,-8.902439
1548457234044,-1.020203,0.028137,-0.175232,3.536585,-1.951220,-8.780488
1548457234052,-1.018433,0.023621,-0.177185,3.231707,-2.073171,-8.841464
1548457234067,-1.019836,0.020691,-0.176636,2.621951,-2.195122,-8.902439
1548457234074,-1.020020,0.023132,-0.176453,2.073171,-2.378049,-8.902439
1548457234082,-1.020081,0.023315,-0.177795,1.585366,-2.439024,-9.024390
1548457234097,-1.021484,0.017029,-0.174500,0.975610,-2.500000,-9.146341
1548457234104,-1.024353,0.018250,-0.172058,0.792683,-2.682927,-9.268292
1548457234112,-1.024109,0.018005,-0.170471,0.670732,-2.621951,-9.207317
1548457234127,-1.026367,0.019409,-0.172913,0.792683,-2.500000,-9.207317
1548457234134,-1.027405,0.021362,-0.174255,0.792683,-2.560976,-9.329268
1548457234142,-1.026978,0.018311,-0.172546,0.975610,-2.560976,-9.451220
1548457234157,-1.025696,0.020569,-0.175537,1.219512,-2.500000,-9.573171
1548457234164,-1.020691,0.012512,-0.178955,1.402439,-2.439024,-9.695122
1548457234172,-1.022339,0.010193,-0.176880,1.768293,-2.073171,-9.207317
1548457234187,-1.025024,0.008179,-0.173645,2.682927,-1.951220,-8.719512
1548457234194,-1.027954,0.017578,-0.170349,3.963415,-1.768293,-8.597561
1548457234202,-1.026550,0.013306,-0.173767,4.451220,-1.585366,-8.658537
1548457234217,-1.026001,0.002380,-0.173584,3.414634,-1.341463,-9.085366
1548457234224,-1.022095,0.006958,-0.170044,3.414634,-1.341463,-9.268292
1548457234275,-1.020386,0.006287,-0.171875,3.475610,-1.341463,-9.085366
1548457234278,-1.022461,0.001282,-0.173645,3.414634,-1.280488,-9.024390
1548457234278,-1.024292,0.000977,-0.171997,3.414634,-1.524390,-9.146341
1548457234279,-1.024353,-0.000671,-0.172913,3.414634,-1.524390,-9.085366
1548457234279,-1.027832,-0.004089,-0.171387,3.414634,-1.341463,-8.841464
1548457234284,-1.027527,-0.004333,-0.172180,3.231707,-1.402439,-8.597561
1548457234292,-1.027405,-0.004456,-0.172546,3.048780,-1.280488,-8.292683
1548457234307,-1.031006,-0.005737,-0.171387,2.926829,-1.158537,-8.109756
1548457234314,-1.029663,-0.007629,-0.171570,2.743902,-1.158537,-7.865854
1548457234322,-1.028809,-0.007324,-0.171204,2.560976,-1.036585,-7.743903
1548457234337,-1.029480,-0.012939,-0.169861,2.317073,-0.975610,-7.317073
1548457234346,-1.029236,-0.015381,-0.169067,2.134146,-0.792683,-6.951220
1548457234352,-1.030701,-0.015625,-0.170776,2.012195,-0.792683,-6.585366
1548457234367,-1.032166,-0.016174,-0.170471,1.951220,-0.609756,-6.158537
1548457234374,-1.034424,-0.011353,-0.171326,1.951220,-0.548781,-5.853659
1548457234382,-1.032227,-0.009460,-0.169556,1.951220,-0.304878,-5.426829
1548457234397,-1.029602,-0.010132,-0.169067,1.829268,-0.182927,-5.060976
1548457234404,-1.030518,-0.010132,-0.169739,1.768293,-0.060976,-4.756098
1548457234412,-1.028992,-0.009460,-0.169678,1.829268,0.060976,-4.390244
1548457234427,-1.027588,-0.007935,-0.171509,2.134146,0.182927,-3.902439
1548457234434,-1.027832,-0.010254,-0.170288,2.256098,0.487805,-3.414634
1548457234442,-1.027893,-0.013367,-0.168762,2.378049,0.731707,-2.987805
1548457234457,-1.026489,-0.011963,-0.171997,2.621951,0.792683,-2.500000
1548457234465,-1.025391,-0.014038,-0.168030,2.743902,0.975610,-1.951220
1548457234472,-1.025940,-0.016296,-0.170288,2.682927,0.975610,-1.585366
1548457234488,-1.025024,-0.016296,-0.173279,2.682927,1.097561,-1.341463
1548457234495,-1.023315,-0.018616,-0.172058,2.317073,0.975610,-0.853659
1548457234502,-1.021729,-0.019531,-0.173340,2.134146,0.853659,-0.487805
1548457234517,-1.020813,-0.019043,-0.176880,1.768293,0.731707,-0.060976
1548457234525,-1.022949,-0.020752,-0.178528,1.463415,0.548781,0.243902
1548457234533,-1.023254,-0.022156,-0.177917,1.097561,0.426829,0.670732
1548457234547,-1.024292,-0.020630,-0.176819,0.792683,0.182927,0.975610
1548457234555,-1.025085,-0.022583,-0.176636,0.609756,-0.060976,1.280488
1548457234562,-1.026123,-0.020264,-0.175476,0.365854,-0.060976,1.768293
1548457234577,-1.027100,-0.020996,-0.173218,0.304878,-0.121951,2.012195
1548457234585,-1.027832,-0.020874,-0.174133,0.426829,-0.182927,2.378049
1548457234599,-1.027527,-0.018921,-0.176697,0.365854,-0.182927,2.743902
1548457234607,-1.026062,-0.019897,-0.177307,0.304878,-0.121951,3.048780
1548457234614,-1.026794,-0.022827,-0.178345,0.121951,-0.121951,3.231707
1548457234622,-1.027649,-0.020874,-0.173279,0.121951,-0.121951,3.536585
1548457234637,-1.027954,-0.018555,-0.173279,0.243902,-0.243902,3.719512
1548457234644,-1.024902,-0.017029,-0.174622,0.487805,0.000000,3.963415
1548457234652,-1.023682,-0.017517,-0.174988,0.670732,-0.060976,4.085366
1548457234667,-1.023438,-0.018250,-0.177307,0.609756,-0.121951,4.146341
1548457234682,-1.019470,-0.016907,-0.177002,0.792683,-0.121951,4.085366
1548457234682,-1.018921,-0.016785,-0.176453,0.853659,-0.182927,4.146341
1548457234697,-1.020874,-0.018127,-0.175964,0.853659,-0.365854,3.963415
1548457234704,-1.018311,-0.018005,-0.177917,0.975610,-0.365854,4.024390
1548457234713,-1.019165,-0.018372,-0.176086,0.975610,-0.304878,3.902439
1548457234727,-1.018005,-0.019897,-0.176514,0.853659,-0.365854,3.719512
1548457234736,-1.019531,-0.017822,-0.176392,0.792683,-0.487805,3.597561
1548457234742,-1.020203,-0.018860,-0.175476,0.792683,-0.548781,3.536585
1548457234757,-1.021362,-0.019775,-0.175476,0.731707,-0.670732,3.231707
1548457234766,-1.023254,-0.017883,-0.175720,0.670732,-0.731707,3.048780
1548457234772,-1.023865,-0.015991,-0.175720,0.792683,-0.731707,2.926829
1548457234794,-1.023926,-0.015198,-0.177673,0.914634,-0.670732,2.743902
1548457234795,-1.023621,-0.017578,-0.177124,0.975610,-0.731707,2.621951
1548457234802,-1.023438,-0.016846,-0.179382,0.975610,-0.609756,2.317073
1548457234817,-1.026489,-0.017334,-0.177612,0.914634,-0.670732,2.134146
1548457234824,-1.021667,-0.017639,-0.176147,0.914634,-0.670732,1.829268
1548457234832,-1.022156,-0.018433,-0.179260,0.853659,-0.731707,1.585366
1548457234847,-1.020996,-0.016724,-0.176453,0.853659,-0.731707,1.402439
1548457234854,-1.020264,-0.015808,-0.177795,0.670732,-0.670732,1.036585
1548457234862,-1.019653,-0.014343,-0.177795,0.670732,-0.609756,0.670732
1548457234877,-1.019714,-0.014832,-0.177490,0.670732,-0.609756,0.365854
1548457234884,-1.018066,-0.015686,-0.176147,0.487805,-0.548781,0.182927
1548457234892,-1.018860,-0.015808,-0.176819,0.426829,-0.670732,-0.121951
1548457234907,-1.020691,-0.015869,-0.177612,0.426829,-0.731707,-0.426829
1548457234914,-1.020630,-0.015869,-0.176453,0.304878,-0.670732,-0.609756
1548457234922,-1.020020,-0.014648,-0.177185,0.304878,-0.792683,-0.853659
1548457234937,-1.019592,-0.014648,-0.177124,0.243902,-0.792683,-1.097561
1548457234944,-1.022766,-0.016113,-0.175964,0.243902,-0.914634,-1.219512
1548457234952,-1.022949,-0.015869,-0.177612,0.243902,-0.853659,-1.341463
1548457234967,-1.023376,-0.016113,-0.178894,0.121951,-0.792683,-1.402439
1548457234974,-1.026489,-0.016541,-0.176270,0.121951,-0.914634,-1.463415
1548457234989,-1.026855,-0.014404,-0.179138,0.000000,-0.975610,-1.463415
1548457234997,-1.025330,-0.011475,-0.178650,-0.121951,-0.853659,-1.463415
1548457235004,-1.025391,-0.012878,-0.179382,-0.243902,-0.731707,-1.402439
1548457235012,-1.027466,-0.014221,-0.176575,-0.304878,-0.792683,-1.341463
1548457235027,-1.026184,-0.013733,-0.173645,-0.243902,-0.731707,-1.280488
1548457235034,-1.026733,-0.012329,-0.175537,-0.060976,-0.792683,-1.097561
1548457235042,-1.026489,-0.007751,-0.176147,0.000000,-0.548781,-0.914634
1548457235057,-1.025208,-0.007385,-0.177246,-0.060976,-0.548781,-0.792683
1548457235065,-1.026184,-0.010986,-0.175842,-0.182927,-0.548781,-0.426829
1548457235072,-1.026917,-0.010681,-0.174561,-0.243902,-0.487805,-0.060976
1548457235087,-1.028198,-0.005127,-0.176941,-0.243902,-0.426829,0.304878
1548457235094,-1.029053,-0.003784,-0.177979,-0.243902,-0.243902,0.792683
1548457235109,-1.028442,-0.005981,-0.176453,-0.304878,-0.243902,1.280488
1548457235117,-1.028687,-0.004089,-0.179077,-0.243902,-0.182927,1.646341
1548457235124,-1.031128,-0.003296,-0.180115,-0.426829,-0.182927,2.134146
1548457235132,-1.030823,-0.005554,-0.179016,-0.548781,-0.182927,2.682927
1548457235154,-1.031311,-0.002930,-0.179077,-0.670732,0.060976,3.353659
1548457235162,-1.028442,-0.004089,-0.181396,-0.914634,0.182927,4.085366
1548457235162,-1.026611,-0.002991,-0.179749,-1.280488,0.182927,4.695122
1548457235177,-1.028564,0.000183,-0.176392,-1.524390,0.304878,5.304878
1548457235184,-1.028625,0.004333,-0.175476,-1.707317,0.426829,5.975610
1548457235192,-1.028625,0.008728,-0.175171,-1.768293,0.487805,6.646342
1548457235207,-1.030823,0.008118,-0.179138,-1.829268,0.670732,7.500000
1548457235214,-1.026917,0.010559,-0.179016,-1.951220,0.731707,8.292683
1548457235222,-1.028687,0.011414,-0.179810,-1.829268,0.853659,9.207317
1548457235237,-1.025452,0.010742,-0.181091,-1.890244,0.853659,9.878049
1548457235244,-1.024536,0.010681,-0.181702,-2.195122,0.914634,10.670732
1548457235252,-1.024048,0.010986,-0.180359,-2.378049,1.097561,11.341464
1548457235267,-1.022461,0.012146,-0.181030,-2.500000,0.975610,11.951220
1548457235274,-1.022888,0.017761,-0.183350,-2.926829,0.609756,12.621951
1548457235282,-1.027405,0.020325,-0.182129,-3.658537,-0.426829,12.926829
1548457235297,-1.028320,0.022522,-0.179810,-4.268293,-1.097561,13.170732
1548457235304,-1.029541,0.026611,-0.178894,-4.939024,-1.158537,13.536586
1548457235312,-1.026978,0.030334,-0.179993,-5.609756,-1.097561,14.024390
1548457235327,-1.021545,0.033325,-0.182495,-5.914634,-0.182927,15.121951
1548457235334,-1.019226,0.040771,-0.184814,-5.670732,1.463415,17.439024
1548457235342,-1.023621,0.044434,-0.183838,-5.060976,1.890244,19.207317
1548457235357,-1.027344,0.046692,-0.183044,-4.573171,1.707317,20.182928
1548457235365,-1.030029,0.048950,-0.184326,-4.207317,1.524390,20.792683
1548457235372,-1.027405,0.052551,-0.182739,-4.024390,1.707317,21.280489
1548457235387,-1.026733,0.057007,-0.186035,-3.963415,1.951220,21.890244
1548457235394,-1.025269,0.058228,-0.181274,-3.902439,1.890244,22.682928
1548457235402,-1.027588,0.061340,-0.179077,-3.902439,1.829268,23.597561
1548457235417,-1.024536,0.065796,-0.179260,-3.536585,1.951220,24.451220
1548457235424,-1.021729,0.068909,-0.175903,-3.170732,2.256098,25.121952
1548457235432,-1.022034,0.076416,-0.172852,-2.987805,2.500000,25.975611
1548457235447,-1.019348,0.085327,-0.172668,-2.865854,2.865854,26.646341
1548457235455,-1.018555,0.091553,-0.174866,-2.317073,2.987805,27.500000
1548457235462,-1.016785,0.094421,-0.179321,-1.585366,3.109756,28.292683
1548457235477,-1.018127,0.098389,-0.179932,-1.097561,2.926829,28.963415
1548457235484,-1.021362,0.100586,-0.182190,-0.731707,2.743902,29.634148
1548457235492,-1.020386,0.104675,-0.180176,-0.365854,2.500000,30.365854
1548457235507,-1.018066,0.110779,-0.183105,-0.243902,2.439024,31.158537
1548457235514,-1.016418,0.115112,-0.188782,-0.548781,2.500000,31.829269
1548457235522,-1.020203,0.119385,-0.189331,-0.792683,2.317073,32.560978
1548457235537,-1.020081,0.127136,-0.189819,-0.975610,2.073171,33.292683
1548457235544,-1.017395,0.136108,-0.194397,-1.280488,1.890244,34.146343
1548457235552,-1.017761,0.139404,-0.195496,-1.890244,1.768293,35.060978
1548457235567,-1.015442,0.144592,-0.195984,-2.682927,1.768293,35.792683
1548457235574,-1.016052,0.148682,-0.195557,-3.170732,1.646341,36.646343
1548457235582,-1.015564,0.157532,-0.198059,-3.597561,1.402439,37.500000
1548457235597,-1.014587,0.166199,-0.196411,-4.085366,1.280488,38.475609
1548457235604,-1.015015,0.177246,-0.190735,-4.146341,1.341463,39.573174
1548457235612,-1.018372,0.186401,-0.189697,-4.024390,1.402439,40.670734
1548457235627,-1.017578,0.192810,-0.192749,-3.780488,1.524390,41.768295
1548457235634,-1.020142,0.202209,-0.193970,-3.353659,1.646341,42.682926
1548457235642,-1.016602,0.205139,-0.194641,-3.170732,1.707317,43.475613
1548457235657,-1.013916,0.209717,-0.192993,-2.926829,2.134146,44.085365
1548457235664,-1.012085,0.218018,-0.194519,-2.682927,2.439024,44.817074
1548457235672,-1.009460,0.224609,-0.197510,-2.378049,2.804878,45.792683
1548457235687,-1.007751,0.230774,-0.201599,-2.621951,3.170732,46.402439
1548457235694,-1.007690,0.235413,-0.200562,-2.865854,3.170732,47.012196
1548457235702,-1.005493,0.238220,-0.202820,-3.109756,3.170732,47.500000
1548457235717,-1.000488,0.246094,-0.201050,-3.231707,3.170732,47.926830
1548457235724,-0.997314,0.254700,-0.200806,-3.170732,3.353659,48.414635
1548457235732,-0.993286,0.261292,-0.200378,-3.170732,3.536585,49.024391
1548457235747,-0.989075,0.269592,-0.200378,-3.597561,3.597561,49.451221
1548457235754,-0.984680,0.280334,-0.202759,-3.841464,3.963415,49.756100
1548457235762,-0.981079,0.289246,-0.204468,-3.780488,4.207317,50.121952
1548457235777,-0.977905,0.297791,-0.205688,-3.963415,4.329268,50.487804
1548457235784,-0.975647,0.303650,-0.206970,-3.963415,4.390244,50.853661
1548457235792,-0.975098,0.313965,-0.203003,-3.414634,4.329268,51.097561
1548457235807,-0.975769,0.325684,-0.204163,-2.865854,4.573171,51.402439
1548457235814,-0.971680,0.335144,-0.207458,-2.378049,4.817073,51.402439
1548457235822,-0.969055,0.342896,-0.209595,-1.951220,5.060976,51.341465
1548457235837,-0.961304,0.343994,-0.211243,-1.951220,5.426829,51.402439
1548457235844,-0.955444,0.350342,-0.209045,-1.402439,5.731708,51.585365
1548457235852,-0.950928,0.359863,-0.200806,-0.670732,6.036585,51.585365
1548457235867,-0.953308,0.370605,-0.201416,0.121951,6.158537,51.707317
1548457235874,-0.953369,0.382507,-0.205444,0.670732,6.463415,51.829269
1548457235882,-0.953430,0.395142,-0.205688,0.914634,7.195122,51.707317
1548457235897,-0.948242,0.400879,-0.211914,1.097561,7.743903,51.219513
1548457235904,-0.938538,0.404602,-0.217285,1.524390,8.170732,50.731709
1548457235912,-0.929199,0.400085,-0.220886,2.134146,8.536586,50.304878
1548457235927,-0.919617,0.397034,-0.219910,2.804878,8.658537,50.060978
1548457235934,-0.912415,0.407593,-0.216187,3.475610,8.536586,49.878052
1548457235942,-0.909912,0.420166,-0.217285,3.353659,8.597561,49.512196
1548457235957,-0.904053,0.424988,-0.219849,2.317073,8.536586,49.146343
1548457235964,-0.897461,0.427734,-0.223022,0.792683,8.475610,48.597561
1548457235972,-0.893494,0.432617,-0.222473,0.182927,8.353659,47.987804
1548457235987,-0.894348,0.444580,-0.220825,0.060976,8.048780,47.621952
1548457235994,-0.893738,0.461731,-0.222229,0.000000,7.804878,47.378052
1548457236002,-0.892883,0.474670,-0.227600,-0.060976,7.987805,47.073174
1548457236017,-0.893066,0.486389,-0.228088,-0.426829,8.292683,46.585365
1548457236024,-0.888794,0.500305,-0.228394,-0.304878,8.414635,45.975613
1548457236032,-0.884460,0.498596,-0.229980,-0.060976,8.536586,45.182926
1548457236047,-0.873901,0.499268,-0.228821,0.000000,8.536586,44.695122
1548457236054,-0.865417,0.504456,-0.226501,1.036585,8.780488,44.390244
1548457236062,-0.860107,0.515015,-0.223877,2.134146,9.085366,44.329269
1548457236077,-0.856873,0.522949,-0.232422,2.621951,9.146341,44.024391
1548457236084,-0.849182,0.522522,-0.237915,2.317073,9.329268,43.780487
1548457236092,-0.838013,0.521301,-0.239685,2.012195,10.121951,43.536587
1548457236107,-0.832092,0.528015,-0.241089,2.378049,10.731708,43.231709
1548457236114,-0.831665,0.535034,-0.238586,2.926829,10.548780,43.048782
1548457236122,-0.828247,0.541748,-0.238342,3.292683,10.121951,42.743904
1548457236137,-0.828491,0.546143,-0.238098,3.536585,9.817074,42.256100
1548457236144,-0.827759,0.551758,-0.237915,3.414634,9.390244,41.524391
1548457236152,-0.820618,0.559875,-0.238281,2.743902,9.085366,40.792683
1548457236167,-0.813354,0.565735,-0.241882,1.890244,9.329268,40.304878
1548457236174,-0.807190,0.577942,-0.243835,1.158537,9.512196,40.060978
1548457236182,-0.801575,0.578186,-0.253967,1.585366,9.878049,39.695122
1548457236197,-0.796570,0.575378,-0.251038,1.951220,9.939025,39.085365
1548457236204,-0.791809,0.578674,-0.249939,2.804878,9.512196,38.292683
1548457236212,-0.785828,0.585876,-0.251038,2.865854,8.963415,37.500000
1548457236227,-0.781372,0.585022,-0.254272,1.646341,8.353659,36.951221
1548457236234,-0.775757,0.592896,-0.258057,0.792683,8.109756,36.646343
1548457236242,-0.771606,0.598694,-0.264771,0.548781,8.109756,36.402439
1548457236257,-0.770325,0.602966,-0.268372,-0.121951,7.804878,36.402439
1548457236264,-0.768677,0.617004,-0.267639,-0.304878,7.682927,36.341465
1548457236272,-0.769165,0.634033,-0.270813,0.000000,7.865854,35.975609
1548457236287,-0.769165,0.632812,-0.273499,0.121951,7.743903,35.304878
1548457236294,-0.761841,0.625916,-0.268616,0.182927,7.560976,34.695122
1548457236302,-0.751343,0.635010,-0.264038,1.402439,7.865854,34.146343
1548457236317,-0.748108,0.640625,-0.267334,2.621951,8.048780,33.719513
1548457236324,-0.742859,0.645752,-0.267029,2.195122,7.560976,33.536587
1548457236332,-0.735779,0.654602,-0.266479,2.500000,7.865854,33.475609
1548457236347,-0.728455,0.654968,-0.266907,3.902439,8.719512,33.292683
1548457236354,-0.727844,0.655762,-0.265991,5.609756,8.963415,32.987804
1548457236362,-0.725281,0.658142,-0.271240,7.073171,8.719512,32.560978
1548457236377,-0.720459,0.657043,-0.271606,7.439024,8.841464,32.256100
1548457236384,-0.715271,0.664001,-0.270935,7.134147,9.268292,32.073170
1548457236392,-0.712646,0.668396,-0.278748,7.195122,9.817074,32.134148
1548457236407,-0.712280,0.673767,-0.286011,6.036585,9.817074,32.195122
1548457236414,-0.707764,0.684509,-0.290710,5.182927,9.512196,31.890245
1548457236422,-0.707153,0.687500,-0.293701,5.060976,9.390244,31.341465
1548457236437,-0.699463,0.683228,-0.293884,4.634146,9.085366,31.097561
1548457236444,-0.689575,0.680725,-0.293091,4.878049,8.963415,30.853659
1548457236452,-0.683167,0.684021,-0.289124,4.573171,8.963415,30.853659
1548457236467,-0.685425,0.697937,-0.293213,3.841464,8.658537,30.792685
1548457236474,-0.687561,0.707886,-0.298218,2.743902,8.170732,30.548780
1548457236482,-0.683594,0.708496,-0.296936,1.646341,7.621952,29.939026
1548457236497,-0.670044,0.703186,-0.294678,2.134146,7.682927,29.268293
1548457236505,-0.663086,0.698669,-0.292053,3.475610,7.804878,28.658537
1548457236512,-0.657043,0.696350,-0.292847,3.963415,7.256098,28.231709
1548457236527,-0.646667,0.694824,-0.292969,3.780488,6.951220,27.987806
1548457236545,-0.636475,0.691956,-0.293396,3.658537,7.073171,27.743902
1548457236545,-0.633484,0.700378,-0.291565,3.658537,6.829268,27.073172
1548457236557,-0.637939,0.708862,-0.296814,3.414634,6.097561,26.219513
1548457236568,-0.637390,0.711731,-0.300781,2.621951,5.182927,25.426830
1548457236572,-0.629639,0.702454,-0.298828,2.012195,4.878049,24.451220
1548457236587,-0.619263,0.697266,-0.292053,2.073171,4.878049,23.536587
1548457236594,-0.617737,0.707336,-0.293884,2.256098,4.573171,23.048780
1548457236602,-0.621948,0.727295,-0.298462,2.682927,4.268293,22.987806
1548457236625,-0.625183,0.739075,-0.298889,2.682927,4.207317,22.804878
1548457236625,-0.622620,0.739380,-0.303955,3.048780,4.451220,22.195122
1548457236632,-0.618896,0.735962,-0.311401,4.268293,5.121951,21.402439
1548457236647,-0.617249,0.735474,-0.322021,5.487805,5.243903,20.731709
1548457236654,-0.616028,0.742859,-0.315125,6.036585,4.390244,20.121952
1548457236662,-0.611084,0.744141,-0.315308,6.219512,3.719512,19.512196
1548457236685,-0.608093,0.745605,-0.318176,5.426829,3.597561,18.902439
1548457236685,-0.605164,0.745239,-0.320374,4.695122,3.292683,18.231709
1548457236692,-0.599609,0.737793,-0.320190,3.841464,3.170732,17.743902
1548457236707,-0.597778,0.734985,-0.318298,2.987805,2.987805,17.256098
1548457236714,-0.596313,0.736023,-0.317566,2.378049,2.621951,16.768293
1548457236722,-0.589417,0.738647,-0.317993,0.975610,2.195122,16.463415
1548457236737,-0.585815,0.744202,-0.321228,0.000000,1.951220,16.341463
1548457236744,-0.586121,0.750122,-0.325134,-0.365854,2.195122,16.463415
1548457236752,-0.587219,0.762756,-0.330811,0.000000,2.195122,16.341463
1548457236767,-0.589417,0.771606,-0.333984,0.243902,2.256098,16.158537
1548457236774,-0.590271,0.769714,-0.331909,0.548781,2.378049,15.792684
1548457236782,-0.583679,0.765015,-0.333618,1.158537,2.560976,15.121951
1548457236797,-0.575134,0.759644,-0.330322,1.463415,2.621951,14.268293
1548457236804,-0.572632,0.750183,-0.326965,1.219512,2.500000,13.597561
1548457236812,-0.564392,0.745605,-0.319824,0.853659,2.378049,13.231708
1548457236827,-0.563416,0.754395,-0.325012,0.670732,2.560976,13.170732
1548457236834,-0.566772,0.763428,-0.327820,-0.060976,2.682927,12.865854
1548457236842,-0.568359,0.765137,-0.328003,-0.975610,2.134146,12.256098
1548457236857,-0.560059,0.750671,-0.322388,-0.853659,2.134146,11.341464
1548457236864,-0.552734,0.740295,-0.318420,-0.670732,2.012195,10.304878
1548457236872,-0.550049,0.739685,-0.317627,-0.548781,1.402439,9.695122
1548457236887,-0.553345,0.757263,-0.322266,-1.158537,0.853659,9.451220
1548457236894,-0.562988,0.777222,-0.329468,-2.073171,0.487805,8.902439
1548457236902,-0.569092,0.777649,-0.327637,-2.621951,0.121951,7.682927
1548457236917,-0.560059,0.756897,-0.320068,-2.378049,0.060976,6.280488
1548457236924,-0.545837,0.742310,-0.312866,-0.853659,0.243902,5.121951
1548457236932,-0.544434,0.745850,-0.307190,-0.243902,0.121951,4.451220
1548457236947,-0.549927,0.754639,-0.313721,-0.792683,-0.548781,3.963415
1548457236954,-0.550537,0.763000,-0.318298,-1.341463,-0.548781,3.597561
1548457236962,-0.552368,0.769470,-0.317627,-0.731707,-0.060976,3.109756
1548457236977,-0.556458,0.772949,-0.321289,0.304878,-0.060976,2.195122
1548457236984,-0.556763,0.767700,-0.315979,1.402439,-0.365854,1.158537
1548457236992,-0.552734,0.765503,-0.313660,2.500000,-0.304878,0.243902
1548457237007,-0.552795,0.766541,-0.318481,2.804878,-0.243902,-0.426829
1548457237014,-0.557922,0.776978,-0.327698,2.378049,-0.670732,-0.853659
1548457237022,-0.561584,0.782532,-0.328918,1.707317,-0.914634,-1.646341
1548457237037,-0.557556,0.765137,-0.323242,1.646341,-1.280488,-2.804878
1548457237044,-0.546753,0.734131,-0.311584,1.951220,-1.402439,-4.024390
1548457237052,-0.533936,0.713013,-0.300964,1.890244,-1.402439,-4.695122
1548457237067,-0.538818,0.725769,-0.303467,1.280488,-1.768293,-4.268293
1548457237075,-0.549744,0.763733,-0.315552,-0.060976,-2.256098,-3.414634
1548457237082,-0.569214,0.800659,-0.329834,-1.219512,-2.256098,-2.926829
1548457237097,-0.586182,0.813049,-0.334106,-0.731707,-2.073171,-3.414634
1548457237105,-0.584045,0.802185,-0.332642,1.463415,-1.768293,-4.451220
1548457237112,-0.574341,0.783813,-0.327820,4.146341,-1.341463,-5.365854
1548457237127,-0.572510,0.774719,-0.323608,4.878049,-1.524390,-5.792683
1548457237134,-0.574585,0.782776,-0.323425,4.024390,-2.073171,-5.914634
1548457237142,-0.579712,0.786987,-0.328369,2.987805,-1.890244,-5.914634
1548457237157,-0.575439,0.767456,-0.329529,2.012195,-1.646341,-5.975610
1548457237164,-0.560364,0.742981,-0.323242,2.012195,-1.097561,-5.853659
1548457237172,-0.553772,0.731445,-0.314758,2.987805,-0.365854,-5.609756
1548457237187,-0.556641,0.740784,-0.311157,2.500000,-1.097561,-5.243903
1548457237194,-0.568359,0.761414,-0.314697,1.219512,-2.195122,-4.939024
1548457237202,-0.577209,0.781311,-0.322815,0.487805,-2.439024,-4.512195
1548457237217,-0.584229,0.793457,-0.332458,0.914634,-2.195122,-4.390244
1548457237224,-0.589600,0.792053,-0.335632,2.073171,-1.951220,-4.390244
1548457237232,-0.589661,0.784302,-0.334656,3.292683,-1.707317,-4.756098
1548457237247,-0.587952,0.774048,-0.337036,3.963415,-1.463415,-5.121951
1548457237254,-0.586609,0.769531,-0.334229,3.414634,-1.646341,-5.304878
1548457237319,-0.583252,0.763000,-0.331116,2.012195,-2.073171,-5.548780
1548457237325,-0.576477,0.755371,-0.328247,0.853659,-2.134146,-5.731708
1548457237325,-0.571533,0.747375,-0.321594,0.000000,-2.317073,-5.853659
1548457237325,-0.568787,0.741882,-0.315613,-0.487805,-2.378049,-5.975610
1548457237325,-0.569763,0.747498,-0.317566,-0.487805,-2.500000,-5.792683
1548457237325,-0.578735,0.757080,-0.322754,-0.426829,-2.682927,-5.853659
1548457237325,-0.585022,0.752991,-0.322815,-0.609756,-2.926829,-6.097561
1548457237342,-0.581726,0.745911,-0.316223,0.000000,-2.926829,-6.524390
1548457237350,-0.584595,0.750305,-0.321106,1.158537,-2.743902,-6.768293
1548457237358,-0.590149,0.761536,-0.324707,1.280488,-2.987805,-6.768293
1548457237389,-0.597839,0.769470,-0.329712,0.975610,-3.292683,-6.829268
1548457237390,-0.599487,0.768616,-0.331848,0.975610,-2.987805,-7.256098
1548457237405,-0.598938,0.758118,-0.330627,1.097561,-2.621951,-8.048780
1548457237405,-0.590698,0.747559,-0.324768,1.158537,-2.439024,-8.536586
1548457237405,-0.587158,0.739868,-0.318970,1.341463,-2.500000,-8.902439
1548457237416,-0.590332,0.739380,-0.317749,1.036585,-2.743902,-9.329268
1548457237443,-0.592712,0.744995,-0.319824,0.426829,-3.292683,-9.695122
1548457237443,-0.593506,0.735840,-0.320740,-0.121951,-3.414634,-10.304878
1548457237447,-0.593140,0.730164,-0.318054,-0.182927,-3.475610,-10.792684
1548457237460,-0.593994,0.730774,-0.313049,0.975610,-3.414634,-11.280488
1548457237471,-0.601196,0.732666,-0.314148,1.646341,-3.597561,-11.585366
1548457237472,-0.604187,0.731995,-0.318054,1.524390,-3.902439,-11.890244
1548457237487,-0.605835,0.728699,-0.316956,1.463415,-3.841464,-12.378049
1548457237494,-0.609558,0.734314,-0.319214,2.134146,-3.658537,-12.987805
1548457237502,-0.616211,0.737549,-0.327881,2.256098,-4.024390,-13.536586
1548457237517,-0.618408,0.726074,-0.325073,1.707317,-4.634146,-14.207317
1548457237524,-0.615845,0.722656,-0.318115,1.646341,-4.756098,-14.756098
1548457237532,-0.620239,0.727478,-0.316284,2.317073,-4.512195,-15.060976
1548457237547,-0.623596,0.729919,-0.317078,1.829268,-4.939024,-15.365854
1548457237554,-0.626648,0.731812,-0.315796,1.219512,-5.243903,-15.548780
1548457237562,-0.625793,0.727539,-0.317566,2.012195,-4.512195,-15.487805
1548457237577,-0.626404,0.729736,-0.317749,2.926829,-3.902439,-15.487805
1548457237585,-0.631470,0.736389,-0.326965,3.353659,-3.963415,-15.487805
1548457237593,-0.642395,0.737915,-0.329956,3.170732,-4.146341,-15.609756
1548457237607,-0.646606,0.736755,-0.328918,2.926829,-4.207317,-16.280489
1548457237617,-0.649292,0.729797,-0.328674,2.865854,-4.512195,-17.256098
1548457237624,-0.649780,0.713989,-0.321045,2.378049,-5.243903,-18.292683
1548457237637,-0.641052,0.699219,-0.312439,2.134146,-5.975610,-18.963415
1548457237652,-0.634766,0.691589,-0.305969,2.682927,-6.280488,-19.146341
1548457237653,-0.634827,0.688782,-0.306763,2.134146,-6.402439,-19.024391
1548457237669,-0.639343,0.691467,-0.310852,1.219512,-6.768293,-19.024391
1548457237678,-0.647888,0.693665,-0.319580,0.243902,-6.890244,-19.207317
1548457237684,-0.656555,0.695129,-0.322876,-1.219512,-7.073171,-20.060976
1548457237697,-0.657349,0.684143,-0.317688,-2.621951,-7.865854,-21.219513
1548457237707,-0.655518,0.673462,-0.308472,-3.597561,-8.719512,-22.317074
1548457237712,-0.650452,0.672302,-0.300476,-2.500000,-9.390244,-22.865854
1548457237727,-0.655212,0.680847,-0.298584,-1.707317,-9.695122,-22.865854
1548457237734,-0.664001,0.696899,-0.305664,-1.646341,-9.878049,-22.439024
1548457237742,-0.668762,0.704346,-0.316772,-1.280488,-9.085366,-22.073172
1548457237757,-0.674072,0.696960,-0.323425,-0.914634,-7.560976,-22.134148
1548457237764,-0.679565,0.685059,-0.322632,0.121951,-6.707317,-22.682928
1548457237772,-0.690613,0.686035,-0.320984,1.280488,-7.073171,-23.658537
1548457237787,-0.695618,0.684326,-0.316650,0.670732,-8.170732,-24.817074
1548457237794,-0.691650,0.664917,-0.310364,-0.365854,-9.268292,-25.792683
1548457237802,-0.681213,0.651978,-0.297119,-0.426829,-9.573171,-26.280489
1548457237817,-0.672974,0.646667,-0.292175,0.426829,-9.329268,-26.280489
1548457237824,-0.674866,0.648193,-0.289062,0.548781,-9.024390,-25.487806
1548457237832,-0.689087,0.661865,-0.296814,0.121951,-8.170732,-24.024391
1548457237847,-0.706970,0.675232,-0.310181,-0.548781,-6.585366,-22.926830
1548457237854,-0.723877,0.682129,-0.314453,-1.951220,-5.426829,-23.048780
1548457237862,-0.732361,0.672913,-0.314087,-2.865854,-5.365854,-24.146341
1548457237877,-0.733215,0.659424,-0.306580,-2.256098,-6.097561,-25.487806
1548457237884,-0.734558,0.651306,-0.297485,-0.670732,-6.951220,-26.341463
1548457237892,-0.735107,0.654907,-0.289978,0.243902,-7.987805,-26.463415
1548457237907,-0.737793,0.653809,-0.290100,0.426829,-8.719512,-25.792683
1548457237914,-0.741211,0.652039,-0.292053,-0.182927,-8.109756,-25.060976
1548457237922,-0.736267,0.634521,-0.297791,-0.487805,-7.073171,-24.573172
1548457237937,-0.731812,0.620056,-0.295410,-0.426829,-6.219512,-23.719513
1548457237944,-0.733582,0.622253,-0.292969,1.097561,-5.487805,-22.804878
1548457237952,-0.747803,0.632507,-0.289429,1.585366,-5.121951,-21.768293
1548457237967,-0.768066,0.637939,-0.291931,0.000000,-5.365854,-21.097561
1548457237974,-0.776672,0.638672,-0.298401,-1.646341,-5.609756,-20.792683
1548457237982,-0.782654,0.639648,-0.298706,-2.012195,-5.609756,-21.280489
1548457237997,-0.791809,0.645081,-0.292847,-1.951220,-6.341464,-22.317074
1548457238004,-0.794739,0.641724,-0.291382,-2.378049,-7.865854,-23.353659
1548457238012,-0.788452,0.619324,-0.286438,-2.865854,-9.207317,-24.329269
1548457238027,-0.773071,0.594482,-0.278442,-2.682927,-9.695122,-25.243902
1548457238035,-0.758850,0.578674,-0.265320,-2.134146,-10.000000,-25.975611
1548457238042,-0.751831,0.564880,-0.256409,-2.621951,-10.487805,-26.219513
1548457238057,-0.750549,0.552979,-0.257263,-3.780488,-10.548780,-25.670732
1548457238065,-0.752136,0.550293,-0.260681,-4.695122,-9.573171,-24.695122
1548457238072,-0.768127,0.565552,-0.263306,-5.914634,-8.536586,-23.780489
1548457238087,-0.792480,0.591003,-0.264404,-7.500000,-8.414635,-23.841463
1548457238102,-0.811218,0.602417,-0.275330,-8.963415,-9.085366,-25.243902
1548457238102,-0.816772,0.592834,-0.279419,-9.390244,-9.512196,-27.134148
1548457238117,-0.816406,0.588135,-0.267822,-7.378049,-10.121951,-28.963415
1548457238124,-0.818420,0.586487,-0.257019,-3.780488,-10.914635,-30.548780
1548457238132,-0.822693,0.588501,-0.249878,-1.524390,-11.951220,-31.646341
1548457238147,-0.817322,0.580078,-0.252441,-0.243902,-12.195122,-32.378048
1548457238154,-0.805847,0.554932,-0.255615,-0.060976,-11.280488,-33.048782
1548457238162,-0.790100,0.528076,-0.251770,0.914634,-9.878049,-33.353661
1548457238177,-0.786133,0.513916,-0.247742,2.317073,-8.719512,-33.048782
1548457238184,-0.795654,0.517761,-0.247314,3.414634,-8.109756,-32.195122
1548457238192,-0.812317,0.527771,-0.253113,2.804878,-7.804878,-31.097561
1548457238207,-0.829529,0.531189,-0.264771,0.792683,-7.500000,-30.548780
1548457238214,-0.844116,0.531311,-0.269043,-0.914634,-7.378049,-30.731709
1548457238222,-0.856384,0.534912,-0.266113,-0.609756,-7.682927,-31.585367
1548457238237,-0.870667,0.546997,-0.254578,0.121951,-8.780488,-32.865856
1548457238244,-0.886475,0.557190,-0.252991,0.792683,-10.365854,-34.268295
1548457238252,-0.889709,0.555298,-0.250610,0.731707,-11.463415,-35.365856
1548457238267,-0.873535,0.532593,-0.251099,0.792683,-11.219512,-35.853661
1548457238274,-0.860229,0.504272,-0.245850,1.402439,-10.182927,-35.548782
1548457238282,-0.847473,0.489380,-0.242981,2.682927,-8.902439,-34.634148
1548457238297,-0.844360,0.480408,-0.237976,2.926829,-7.743903,-33.109756
1548457238304,-0.853882,0.475769,-0.243591,1.585366,-6.768293,-31.524391
1548457238312,-0.867126,0.477905,-0.247009,0.365854,-6.219512,-30.426830
1548457238327,-0.886658,0.493286,-0.250854,-0.487805,-6.097561,-30.182928
1548457238334,-0.897400,0.491760,-0.255371,-1.524390,-6.707317,-30.914635
1548457238342,-0.897644,0.487122,-0.249756,-3.658537,-8.170732,-32.134148
1548457238357,-0.891602,0.476440,-0.244568,-3.109756,-9.024390,-32.987804
1548457238364,-0.885437,0.463745,-0.235229,-1.829268,-9.085366,-32.621952
1548457238372,-0.884827,0.462769,-0.230103,-0.975610,-9.146341,-31.341465
1548457238387,-0.893433,0.463684,-0.228210,-0.304878,-8.658537,-29.817074
1548457238394,-0.904480,0.470337,-0.228455,-0.731707,-7.621952,-28.719513
1548457238402,-0.912292,0.479309,-0.236938,-1.463415,-6.585366,-28.353659
1548457238417,-0.914978,0.469666,-0.245361,-2.378049,-6.036585,-28.719513
1548457238424,-0.911743,0.449951,-0.245117,-2.804878,-6.219512,-29.451220
1548457238432,-0.904785,0.428162,-0.235107,-1.280488,-6.585366,-29.756098
1548457238447,-0.901855,0.423706,-0.221252,0.426829,-7.012195,-29.390245
1548457238454,-0.907043,0.422424,-0.215515,1.097561,-7.256098,-28.292683
1548457238462,-0.912903,0.418213,-0.216614,0.426829,-7.134147,-27.500000
1548457238477,-0.916443,0.417847,-0.222595,-1.097561,-6.341464,-26.829269
1548457238484,-0.922668,0.417297,-0.225952,-2.621951,-5.548780,-26.768293
1548457238492,-0.926147,0.415283,-0.229126,-3.536585,-5.670732,-27.134148
1548457238507,-0.928101,0.412231,-0.230896,-3.780488,-6.524390,-27.743902
1548457238514,-0.927673,0.405090,-0.226501,-3.475610,-7.317073,-28.536587
1548457238522,-0.919983,0.392029,-0.222717,-2.500000,-7.804878,-28.780489
1548457238537,-0.915527,0.378540,-0.214172,-1.707317,-7.926829,-28.658537
1548457238544,-0.914185,0.371887,-0.208862,-1.158537,-7.926829,-28.048780
1548457238552,-0.922913,0.370544,-0.205505,-1.036585,-7.682927,-27.439026
1548457238567,-0.932678,0.380737,-0.203491,-1.829268,-7.560976,-27.195122
1548457238574,-0.939697,0.381653,-0.206665,-2.926829,-7.134147,-27.378050
1548457238582,-0.941284,0.378967,-0.211426,-3.658537,-6.768293,-27.987806
1548457238597,-0.941895,0.368591,-0.214783,-3.231707,-6.646342,-28.780489
1548457238612,-0.944092,0.359253,-0.212585,-2.195122,-6.829268,-29.390245
1548457238612,-0.943909,0.351868,-0.206848,-0.792683,-7.317073,-29.756098
1548457238627,-0.943970,0.345764,-0.204407,0.121951,-7.560976,-30.121952
1548457238634,-0.948181,0.343506,-0.201050,0.426829,-7.682927,-30.243902
1548457238642,-0.948425,0.341064,-0.204468,0.304878,-7.439024,-30.487806
1548457238657,-0.949463,0.333862,-0.206665,0.060976,-7.012195,-30.853659
1548457238664,-0.951843,0.328430,-0.205139,-0.121951,-6.890244,-31.097561
1548457238672,-0.955017,0.325134,-0.203674,0.060976,-7.073171,-31.341465
1548457238687,-0.957275,0.324524,-0.203430,0.304878,-7.256098,-31.463415
1548457238694,-0.961426,0.323181,-0.200562,1.402439,-7.073171,-31.402439
1548457238702,-0.965271,0.319946,-0.197266,2.195122,-6.829268,-31.158537
1548457238717,-0.966125,0.318604,-0.195496,3.231707,-6.402439,-30.853659
1548457238724,-0.967651,0.314880,-0.199951,4.390244,-5.731708,-30.853659
1548457238732,-0.966675,0.307739,-0.197388,5.121951,-5.121951,-30.853659
1548457238747,-0.967346,0.297363,-0.197388,5.975610,-4.634146,-30.609756
1548457238754,-0.971741,0.289612,-0.197205,7.256098,-4.451220,-30.426830
1548457238762,-0.975586,0.279724,-0.200134,7.987805,-4.756098,-30.487806
1548457238777,-0.979675,0.267761,-0.200500,8.353659,-4.878049,-30.487806
1548457238784,-0.987000,0.262451,-0.201172,8.292683,-5.182927,-30.365854
1548457238792,-0.990967,0.257996,-0.201233,7.743903,-5.609756,-30.548780
1548457238814,-0.995117,0.251160,-0.201965,6.402439,-5.975610,-30.731709
1548457238815,-0.995728,0.242676,-0.202698,4.939024,-6.219512,-30.731709
1548457238822,-0.995361,0.246460,-0.195801,3.963415,-6.280488,-30.548780
1548457238837,-0.994934,0.246887,-0.194641,3.231707,-6.463415,-30.487806
1548457238844,-0.992615,0.242920,-0.194031,1.768293,-6.646342,-30.548780
1548457238852,-0.989258,0.235840,-0.191040,0.914634,-6.463415,-30.182928
1548457238867,-0.992676,0.235474,-0.185974,1.219512,-6.036585,-29.573172
1548457238874,-0.992188,0.234009,-0.187500,1.890244,-5.548780,-28.719513
1548457238882,-0.995911,0.233582,-0.189514,2.073171,-4.756098,-27.865854
1548457238897,-0.996948,0.228271,-0.191345,2.256098,-4.024390,-27.195122
1548457238904,-0.998352,0.222534,-0.192993,2.682927,-3.475610,-26.707317
1548457238912,-1.002502,0.215881,-0.195190,3.719512,-2.987805,-26.463415
1548457238927,-1.005981,0.210999,-0.198181,4.817073,-3.109756,-26.219513
1548457238934,-1.009705,0.204285,-0.197205,5.426829,-3.475610,-26.158537
1548457238942,-1.009766,0.198059,-0.197693,6.097561,-3.841464,-26.097561
1548457238957,-1.010071,0.189575,-0.198547,6.524390,-4.085366,-25.853659
1548457238964,-1.007568,0.181580,-0.198425,6.402439,-4.268293,-25.426830
1548457238972,-1.005493,0.176636,-0.196655,5.853659,-4.390244,-25.121952
1548457238987,-1.007446,0.168396,-0.194824,5.182927,-4.634146,-24.817074
1548457238994,-1.009338,0.164551,-0.193298,4.268293,-4.817073,-24.329269
1548457239002,-1.011169,0.160950,-0.190857,3.353659,-4.756098,-23.658537
1548457239017,-1.016113,0.163330,-0.188965,2.560976,-4.634146,-22.926830
1548457239024,-1.017212,0.166626,-0.191284,2.073171,-4.329268,-22.317074
1548457239032,-1.020996,0.160400,-0.189209,1.219512,-4.024390,-21.829269
1548457239047,-1.022034,0.157166,-0.189392,1.158537,-3.902439,-21.036587
1548457239054,-1.023560,0.156433,-0.188293,1.707317,-3.536585,-20.304878
1548457239062,-1.025024,0.156006,-0.186768,2.012195,-3.292683,-19.634148
1548457239077,-1.026855,0.151855,-0.181335,2.317073,-2.987805,-19.207317
1548457239084,-1.023010,0.148438,-0.183105,2.439024,-2.804878,-18.780489
1548457239092,-1.018616,0.143372,-0.182190,2.500000,-2.621951,-18.414635
1548457239107,-1.017639,0.140808,-0.184509,2.621951,-2.560976,-18.048780
1548457239122,-1.014709,0.141052,-0.187805,2.865854,-2.500000,-17.500000
1548457239122,-1.014099,0.132568,-0.186768,2.317073,-2.378049,-17.134148
1548457239137,-1.010803,0.126343,-0.184631,1.890244,-2.378049,-16.646341
1548457239145,-1.008484,0.122559,-0.185913,1.951220,-2.256098,-15.975610
1548457239152,-1.010437,0.120544,-0.182800,1.768293,-2.073171,-15.426829
1548457239167,-1.011230,0.120239,-0.182312,1.463415,-1.890244,-14.939025
1548457239174,-1.010315,0.118958,-0.182861,1.524390,-1.707317,-14.390244
1548457239182,-1.012146,0.116882,-0.181885,1.280488,-1.585366,-13.841464
1548457239197,-1.016479,0.116760,-0.182739,1.280488,-1.341463,-13.414635
1548457239204,-1.018127,0.114929,-0.185425,1.402439,-1.158537,-12.804878
1548457239212,-1.018127,0.108093,-0.183533,1.158537,-1.280488,-12.439025
1548457239227,-1.018250,0.104614,-0.181763,0.914634,-1.524390,-12.317074
1548457239242,-1.018494,0.103394,-0.178467,0.914634,-1.707317,-12.012196
1548457239242,-1.016113,0.101501,-0.177917,0.853659,-1.707317,-11.707317
1548457239257,-1.015198,0.097717,-0.176514,0.609756,-1.585366,-11.585366
1548457239264,-1.015625,0.096313,-0.177490,0.243902,-1.524390,-11.341464
1548457239272,-1.014221,0.093994,-0.179810,0.000000,-1.585366,-11.158537
1548457239287,-1.014038,0.092651,-0.177551,-0.182927,-1.646341,-10.914635
1548457239295,-1.014282,0.088684,-0.177368,-0.304878,-1.707317,-10.792684
1548457239302,-1.015930,0.089600,-0.174622,-0.487805,-1.707317,-10.731708
1548457239317,-1.018311,0.086975,-0.173828,-0.365854,-1.768293,-10.670732
1548457239324,-1.018005,0.085876,-0.176575,0.000000,-1.890244,-10.609756
1548457239332,-1.018738,0.081116,-0.174500,0.304878,-1.768293,-10.670732
1548457239347,-1.020203,0.080017,-0.169678,0.670732,-1.768293,-10.792684
1548457239354,-1.019226,0.085083,-0.171143,1.280488,-1.707317,-10.670732
1548457239362,-1.018005,0.075195,-0.170593,1.219512,-1.585366,-10.853659
1548457239377,-1.018311,0.073914,-0.170959,1.097561,-1.768293,-11.158537
1548457239384,-1.015686,0.071655,-0.170105,1.280488,-1.829268,-11.280488
1548457239392,-1.017029,0.069214,-0.171753,1.219512,-1.951220,-11.463415
1548457239407,-1.016296,0.068237,-0.174133,1.463415,-2.073171,-11.768293
1548457239414,-1.017822,0.067871,-0.174927,1.585366,-2.195122,-12.012196
1548457239422,-1.018799,0.067200,-0.174683,1.646341,-2.195122,-11.829268
1548457239437,-1.021790,0.065796,-0.174011,2.195122,-2.073171,-11.646341
1548457239444,-1.020813,0.065918,-0.176575,2.743902,-1.890244,-11.585366
1548457239452,-1.019104,0.058716,-0.177734,3.048780,-1.829268,-11.585366
1548457239467,-1.017578,0.054932,-0.177002,3.048780,-1.463415,-11.402439
1548457239474,-1.017822,0.064026,-0.176025,3.414634,-0.853659,-10.426829
1548457239482,-1.020935,0.062317,-0.174561,4.573171,-0.609756,-10.060976
1548457239497,-1.024475,0.054382,-0.174011,4.756098,-0.731707,-10.000000
1548457239504,-1.024048,0.051758,-0.173584,4.451220,-0.853659,-10.060976
1548457239512,-1.020203,0.052185,-0.172791,4.390244,-0.670732,-9.695122
1548457239527,-1.019043,0.049622,-0.175171,3.902439,-0.609756,-9.268292
1548457239534,-1.020935,0.046692,-0.176270,3.902439,-1.036585,-8.963415
1548457239542,-1.023743,0.045898,-0.172852,3.780488,-1.341463,-8.597561
1548457239557,-1.025269,0.043274,-0.171997,3.292683,-1.402439,-8.231708
1548457239564,-1.025818,0.040161,-0.173096,2.926829,-1.341463,-7.804878
1548457239572,-1.026367,0.042175,-0.171692,2.439024,-1.402439,-7.317073
1548457239587,-1.025574,0.045166,-0.173523,2.195122,-1.402439,-6.768293
1548457239594,-1.023682,0.044250,-0.173889,2.073171,-1.341463,-6.158537
1548457239602,-1.024109,0.044861,-0.173340,1.829268,-1.463415,-5.670732
1548457239617,-1.025269,0.040955,-0.173279,1.707317,-1.585366,-5.182927
1548457239624,-1.025269,0.038818,-0.173035,1.524390,-1.585366,-4.634146
1548457239632,-1.028809,0.038757,-0.175110,1.402439,-1.463415,-4.146341
1548457239647,-1.026855,0.038757,-0.175476,1.524390,-1.219512,-3.719512
1548457239654,-1.026184,0.040405,-0.174805,1.463415,-1.219512,-3.353659
1548457239662,-1.026001,0.040283,-0.173157,1.280488,-1.280488,-2.865854
1548457239677,-1.026794,0.035156,-0.172974,1.280488,-1.219512,-2.439024
1548457239684,-1.027710,0.034363,-0.175232,1.280488,-1.402439,-2.073171
1548457239692,-1.028503,0.034546,-0.173462,1.280488,-1.341463,-1.829268
1548457239707,-1.027222,0.033997,-0.174622,1.463415,-1.219512,-1.463415
1548457239714,-1.027344,0.030579,-0.173584,1.341463,-1.036585,-1.097561
1548457239722,-1.027405,0.030334,-0.174316,1.341463,-0.975610,-0.731707
1548457239737,-1.026001,0.032104,-0.172241,1.341463,-1.097561,-0.426829
1548457239744,-1.025208,0.030212,-0.172913,1.341463,-1.097561,-0.121951
1548457239752,-1.024536,0.027954,-0.171814,1.280488,-1.158537,0.060976
1548457239767,-1.024536,0.025330,-0.174622,1.036585,-1.219512,0.243902
1548457239774,-1.023804,0.025146,-0.172241,0.914634,-1.219512,0.426829
1548457239782,-1.025757,0.026855,-0.173035,0.792683,-1.219512,0.670732
1548457239797,-1.024719,0.025208,-0.173462,0.731707,-1.341463,0.731707
1548457239805,-1.024780,0.023010,-0.172119,0.548781,-1.280488,0.792683
1548457239812,-1.023315,0.024048,-0.173096,0.487805,-1.219512,0.792683
1548457239827,-1.023315,0.025696,-0.171204,0.548781,-1.280488,0.792683
1548457239834,-1.021484,0.025146,-0.170959,0.365854,-1.280488,0.609756
1548457239842,-1.023071,0.024353,-0.171997,0.121951,-1.341463,0.487805
1548457239857,-1.023987,0.022400,-0.171448,0.121951,-1.219512,0.487805
1548457239864,-1.025024,0.024170,-0.171570,0.060976,-1.158537,0.304878
1548457239872,-1.024658,0.025391,-0.170044,0.060976,-1.097561,0.000000
1548457239887,-1.021484,0.024719,-0.168945,0.060976,-1.097561,-0.243902
1548457239894,-1.023743,0.024048,-0.169250,0.060976,-1.097561,-0.548781
1548457239902,-1.024170,0.023438,-0.169800,0.182927,-0.975610,-0.731707
1548457239917,-1.024353,0.024353,-0.172363,0.365854,-0.853659,-0.731707
1548457239924,-1.023743,0.025940,-0.173767,0.487805,-0.792683,-0.914634
1548457239932,-1.023376,0.025635,-0.175110,0.731707,-0.670732,-1.097561
1548457239947,-1.022034,0.023010,-0.174194,0.731707,-0.609756,-1.097561
1548457239954,-1.022156,0.021973,-0.173950,0.914634,-0.670732,-1.280488
1548457239962,-1.019714,0.022278,-0.175537,1.036585,-0.609756,-1.463415
1548457239977,-1.018494,0.019470,-0.178406,0.914634,-0.670732,-1.646341
1548457239984,-1.016541,0.020081,-0.175171,0.731707,-0.792683,-1.829268
1548457239992,-1.016052,0.019775,-0.174927,0.304878,-0.914634,-2.012195
1548457240007,-1.015686,0.020630,-0.174561,0.000000,-1.341463,-2.256098
1548457240014,-1.016907,0.020813,-0.173096,-0.304878,-1.768293,-2.317073
1548457240022,-1.018250,0.020874,-0.173645,-0.731707,-2.012195,-2.378049
1548457240037,-1.019592,0.021912,-0.172241,-1.036585,-2.256098,-2.439024
1548457240045,-1.015747,0.021606,-0.171997,-1.341463,-2.439024,-2.378049
1548457240052,-1.019104,0.020569,-0.173889,-1.463415,-2.865854,-2.317073
1548457240067,-1.022644,0.021851,-0.172119,-1.402439,-3.048780,-2.195122
1548457240074,-1.027405,0.025452,-0.170776,-1.463415,-3.170732,-2.134146
1548457240082,-1.029907,0.026550,-0.167969,-1.585366,-3.170732,-1.829268
1548457240097,-1.031433,0.024292,-0.169678,-1.585366,-3.170732,-1.585366
1548457240104,-1.030396,0.023438,-0.168823,-1.341463,-3.048780,-1.280488
1548457240112,-1.033203,0.024292,-0.167542,-1.097561,-2.987805,-0.975610
1548457240127,-1.035095,0.025879,-0.166992,-1.036585,-2.987805,-0.548781
1548457240134,-1.035217,0.025513,-0.166504,-1.036585,-2.682927,-0.243902
1548457240142,-1.035583,0.021301,-0.165955,-0.853659,-2.500000,0.060976
1548457240157,-1.033081,0.021729,-0.164490,-0.731707,-2.256098,0.243902
1548457240164,-1.035522,0.021912,-0.164246,-0.609756,-2.073171,0.670732
1548457240172,-1.033142,0.022949,-0.163879,-0.426829,-1.890244,1.158537
1548457240187,-1.033142,0.024841,-0.162964,-0.243902,-1.646341,1.463415
1548457240194,-1.032593,0.026123,-0.163940,-0.121951,-1.402439,1.707317
1548457240202,-1.028748,0.026489,-0.164856,0.060976,-1.219512,1.951220
1548457240217,-1.029419,0.025940,-0.164673,0.243902,-1.036585,2.134146
1548457240224,-1.026489,0.024780,-0.166565,0.548781,-0.792683,2.256098
1548457240232,-1.025757,0.024658,-0.167725,0.487805,-0.670732,2.500000
1548457240247,-1.024353,0.024719,-0.168030,0.487805,-0.487805,2.682927
1548457240254,-1.024780,0.025146,-0.167358,0.548781,-0.243902,2.682927
1548457240262,-1.025757,0.025452,-0.165405,0.487805,0.000000,2.865854
1548457240277,-1.025818,0.022156,-0.170654,0.426829,0.182927,2.987805
1548457240284,-1.023315,0.021851,-0.169128,0.365854,0.365854,3.048780
1548457240292,-1.023438,0.021057,-0.169617,0.243902,0.609756,3.048780
1548457240314,-1.024536,0.022034,-0.168640,0.121951,0.731707,2.926829
1548457240315,-1.022339,0.026917,-0.168030,-0.060976,0.792683,2.865854
1548457240322,-1.024963,0.029053,-0.169739,-0.304878,0.914634,2.865854
1548457240337,-1.025146,0.030884,-0.170227,-0.426829,0.853659,2.865854
1548457240344,-1.021973,0.031921,-0.172607,-0.792683,0.792683,2.682927
1548457240352,-1.021240,0.031799,-0.170471,-1.097561,0.853659,2.560976
1548457240367,-1.019897,0.031860,-0.172363,-1.341463,1.097561,2.560976
1548457240374,-1.020813,0.031799,-0.174072,-1.585366,1.158537,2.682927
1548457240382,-1.019287,0.032532,-0.175110,-1.951220,1.158537,2.743902
1548457240397,-1.021973,0.032227,-0.172180,-2.134146,1.036585,2.804878
1548457240404,-1.027100,0.032043,-0.170166,-2.256098,0.914634,2.926829
1548457240412,-1.027893,0.034607,-0.173157,-2.317073,0.914634,3.170732
1548457240427,-1.026978,0.037415,-0.171326,-2.317073,1.097561,3.475610
1548457240434,-1.026917,0.041382,-0.173584,-2.317073,1.280488,3.780488
1548457240442,-1.024963,0.041077,-0.174377,-2.317073,1.402439,3.963415
1548457240457,-1.026672,0.043152,-0.175232,-2.134146,1.463415,4.451220
1548457240464,-1.029114,0.045227,-0.175110,-1.829268,1.402439,5.000000
1548457240472,-1.031433,0.045227,-0.176147,-1.158537,1.219512,5.487805
1548457240487,-1.033691,0.046082,-0.175720,-0.548781,0.914634,5.975610
1548457240494,-1.037292,0.045105,-0.173340,-0.182927,0.731707,6.585366
1548457240503,-1.039001,0.050354,-0.173767,0.000000,0.975610,7.560976
1548457240517,-1.038208,0.056030,-0.175232,0.304878,1.768293,8.658537
1548457240524,-1.036133,0.058472,-0.174377,0.426829,2.317073,9.573171
1548457240533,-1.031799,0.059937,-0.177856,0.243902,2.621951,10.426829
1548457240547,-1.028015,0.060120,-0.178467,0.243902,2.621951,11.219512
1548457240554,-1.026123,0.063599,-0.179016,0.121951,2.621951,12.134147
1548457240562,-1.024109,0.066650,-0.181885,-0.060976,2.560976,13.109756
1548457240577,-1.022095,0.067627,-0.180847,-0.426829,2.317073,14.024390
1548457240584,-1.019836,0.069580,-0.179077,-0.914634,2.317073,15.121951
1548457240592,-1.019592,0.069824,-0.177307,-1.463415,2.195122,16.158537
1548457240607,-1.019165,0.071838,-0.178711,-1.951220,2.378049,17.195122
1548457240614,-1.015869,0.078674,-0.180847,-2.560976,2.500000,18.109756
1548457240622,-1.016235,0.080750,-0.181458,-3.231707,2.500000,19.085367
1548457240637,-1.016479,0.087402,-0.182190,-3.780488,2.500000,20.121952
1548457240644,-1.017212,0.091492,-0.184204,-4.207317,2.560976,21.463415
1548457240652,-1.019470,0.093079,-0.182251,-4.695122,2.621951,22.743902
1548457240667,-1.020386,0.096619,-0.180786,-4.573171,2.500000,23.963415
1548457240674,-1.021912,0.101990,-0.181030,-4.451220,2.500000,25.000000
1548457240682,-1.023926,0.109131,-0.183105,-4.329268,2.682927,25.975611
1548457240697,-1.023865,0.115295,-0.184082,-4.329268,2.682927,27.134148
1548457240704,-1.022644,0.120239,-0.184998,-4.329268,2.804878,28.109756
1548457240712,-1.020508,0.124329,-0.190979,-4.390244,3.109756,29.146341
1548457240727,-1.020935,0.130859,-0.191223,-4.451220,2.987805,30.182928
1548457240734,-1.023010,0.136597,-0.193787,-4.329268,2.743902,31.402439
1548457240742,-1.023621,0.141907,-0.193787,-3.963415,2.621951,32.439026
1548457240757,-1.023682,0.146667,-0.193054,-4.024390,2.439024,33.414635
1548457240764,-1.021545,0.153564,-0.194580,-3.963415,2.317073,34.390244
1548457240772,-1.020630,0.158997,-0.194824,-3.719512,2.195122,35.304878
1548457240794,-1.018188,0.166626,-0.195496,-4.024390,2.378049,36.280487
1548457240795,-1.016052,0.171875,-0.195068,-4.695122,2.378049,37.317074
1548457240802,-1.014954,0.175964,-0.193115,-5.304878,2.256098,38.597561
1548457240817,-1.012268,0.182373,-0.194275,-5.609756,2.317073,39.695122
1548457240824,-1.010010,0.191772,-0.194092,-5.609756,2.500000,40.670734
1548457240832,-1.010437,0.201294,-0.194519,-5.731708,2.500000,41.524391
1548457240847,-1.013062,0.207336,-0.201294,-6.097561,2.256098,42.378048
1548457240854,-1.016052,0.209045,-0.204102,-6.402439,2.195122,43.231709
1548457240862,-1.020630,0.210938,-0.204346,-7.012195,2.073171,44.329269
1548457240877,-1.022095,0.217712,-0.204590,-8.048780,2.012195,45.121952
1548457240884,-1.021912,0.223328,-0.204834,-9.207317,1.829268,45.914635
1548457240892,-1.020935,0.234253,-0.200317,-10.243902,1.646341,46.646343
1548457240907,-1.016846,0.253784,-0.200684,-10.975610,1.585366,47.439026
1548457240914,-1.009216,0.265625,-0.193054,-11.951220,1.463415,48.231709
1548457240922,-1.004456,0.275635,-0.186279,-12.378049,1.158537,48.780487
1548457240937,-0.999756,0.282593,-0.178162,-11.402439,0.914634,49.207317
1548457240945,-0.992493,0.294861,-0.173767,-9.512196,1.219512,49.695122
1548457240952,-0.983521,0.306152,-0.169617,-7.743903,1.951220,50.182926
1548457240967,-0.974976,0.310303,-0.169128,-6.585366,2.743902,50.609756
1548457240974,-0.963989,0.310852,-0.171997,-5.000000,3.780488,50.975613
1548457240982,-0.957581,0.312622,-0.174377,-3.414634,4.939024,51.402439
1548457240997,-0.955322,0.318176,-0.172546,-2.317073,5.792683,51.585365
1548457241004,-0.954956,0.322449,-0.181396,-1.463415,6.524390,51.402439
1548457241012,-0.953491,0.324402,-0.189453,-1.158537,7.012195,51.158539
1548457241027,-0.953857,0.330139,-0.191284,-1.585366,7.256098,50.853661
1548457241034,-0.955261,0.336731,-0.195374,-1.707317,7.012195,50.609756
1548457241042,-0.960144,0.347046,-0.198608,-1.707317,6.646342,50.426830
1548457241057,-0.962036,0.360840,-0.198303,-2.073171,6.341464,50.243904
1548457241064,-0.957947,0.373718,-0.197632,-1.890244,6.280488,49.939026
1548457241072,-0.951477,0.388367,-0.196167,-1.402439,6.768293,49.451221
1548457241087,-0.944824,0.398376,-0.198547,-0.426829,7.439024,49.085365
1548457241094,-0.937378,0.406799,-0.197083,0.304878,7.865854,48.597561
1548457241102,-0.929016,0.418091,-0.201111,1.219512,7.926829,48.048782
1548457241117,-0.920593,0.412170,-0.209778,2.012195,8.048780,47.560978
1548457241124,-0.909851,0.404907,-0.207092,2.256098,8.109756,47.256100
